init_exp.started,init_exp.stopped,participant,session,date,expName,psychopyVersion,OS,frameRate,study_id,disp_instruction.started,disp_instruction.stopped,instruction.thisRepN,instruction.thisTrialN,instruction.thisN,instruction.thisIndex,instruction.ran,instimg_path,consent.started,consent.stopped,key_resp_3.keys,key_resp_3.rt,key_resp_3.duration,n_steps,sequence_path,init_block.started,init_block.stopped,key_resp.keys,key_resp.rt,key_resp.duration,init_trials.started,init_trials.stopped,step0.started,step0.stopped,act0,s1,res0.keys,res0.rt,res0.duration,step1.started,step1.stopped,act1,s2,res1.keys,step2.started,step2.stopped,act2,s3,res2.keys,rew,reward_comp.started,reward_comp.stopped,reward_disp.started,reward_disp.stopped,trials.thisRepN,trials.thisTrialN,trials.thisN,trials.thisIndex,trials.ran,s00a0s10,s00a0s11,s00a1s10,s00a1s11,rew10,rew11,break_block.started,break_block.stopped,block.thisRepN,block.thisTrialN,block.thisN,block.thisIndex,block.ran,s00path,s10path,s11path,s20path,s21path,res1.rt,res1.duration,s10a0s20,s10a0s21,s10a1s20,s10a1s21,s11a0s20,s11a0s21,s11a1s20,s11a1s21,rew20,rew21,res2.rt,res2.duration,s20a0s30,s20a0s31,s20a1s30,s20a1s31,s21a0s30,s21a0s31,s21a1s30,s21a1s31,rew30,rew31
0,0.003,66a63fd5eae42f430895d7bf,66dafa53e232ed557fef725a,2024-09-06_14h49.40.751,mdp,2024.2.1,Win32,144.5086705,66d7945b1baad48e845df3ce,,,,,,,,,,,,,,,,,,,,,,,,,,,,,,,,,,,,,,,,,,,,,,,,,,,,,,,,,,,,,,,,,,,,,,,,,,,,,,,,,,,,,,,,,,,
,,66a63fd5eae42f430895d7bf,66dafa53e232ed557fef725a,2024-09-06_14h49.40.751,mdp,2024.2.1,Win32,144.5086705,66d7945b1baad48e845df3ce,0.004,39.709,0,0,0,0,1,rlnn_exp/rlnn_exp.001.png,,,,,,,,,,,,,,,,,,,,,,,,,,,,,,,,,,,,,,,,,,,,,,,,,,,,,,,,,,,,,,,,,,,,,,,,,,,,,,,,,,,
,,66a63fd5eae42f430895d7bf,66dafa53e232ed557fef725a,2024-09-06_14h49.40.751,mdp,2024.2.1,Win32,144.5086705,66d7945b1baad48e845df3ce,39.71,50.181,0,1,1,1,1,rlnn_exp/rlnn_exp.002.png,,,,,,,,,,,,,,,,,,,,,,,,,,,,,,,,,,,,,,,,,,,,,,,,,,,,,,,,,,,,,,,,,,,,,,,,,,,,,,,,,,,
,,66a63fd5eae42f430895d7bf,66dafa53e232ed557fef725a,2024-09-06_14h49.40.751,mdp,2024.2.1,Win32,144.5086705,66d7945b1baad48e845df3ce,50.182,60.589,0,2,2,2,1,rlnn_exp/rlnn_exp.003.png,,,,,,,,,,,,,,,,,,,,,,,,,,,,,,,,,,,,,,,,,,,,,,,,,,,,,,,,,,,,,,,,,,,,,,,,,,,,,,,,,,,
,,66a63fd5eae42f430895d7bf,66dafa53e232ed557fef725a,2024-09-06_14h49.40.751,mdp,2024.2.1,Win32,144.5086705,66d7945b1baad48e845df3ce,60.59,71.239,0,3,3,3,1,rlnn_exp/rlnn_exp.004.png,,,,,,,,,,,,,,,,,,,,,,,,,,,,,,,,,,,,,,,,,,,,,,,,,,,,,,,,,,,,,,,,,,,,,,,,,,,,,,,,,,,
,,66a63fd5eae42f430895d7bf,66dafa53e232ed557fef725a,2024-09-06_14h49.40.751,mdp,2024.2.1,Win32,144.5086705,66d7945b1baad48e845df3ce,,,,,,,,,71.239,97.003,y,15.75,,,,,,,,,,,,,,,,,,,,,,,,,,,,,,,,,,,,,,,,,,,,,,,,,,,,,,,,,,,,,,,,,,,,,,,,,,,,,,,
,,66a63fd5eae42f430895d7bf,66dafa53e232ed557fef725a,2024-09-06_14h49.40.751,mdp,2024.2.1,Win32,144.5086705,66d7945b1baad48e845df3ce,,,,,,,,,,,,,,1,seqs/st1seq13.csv,97.008,98.99,space,1.476,,98.993,98.993,98.993,100.362,0,1,left,0.856,,100.363,100.364,,0,,100.364,100.365,,0,,0,100.366,100.366,100.366,101.864,0,0,0,0,1,0.8,0.2,0.6,0.4,1,0,,,,,,,,,,,,,,,,,,,,,,,,,,,,,,,,,,,,
,,66a63fd5eae42f430895d7bf,66dafa53e232ed557fef725a,2024-09-06_14h49.40.751,mdp,2024.2.1,Win32,144.5086705,66d7945b1baad48e845df3ce,,,,,,,,,,,,,,,,,,,,,101.865,101.865,101.866,102.965,1,0,right,0.59,,102.966,102.968,,1,,102.968,102.969,,1,,1,102.969,102.969,102.969,104.468,0,1,1,1,1,0.8,0.2,0.6,0.4,1,0,,,,,,,,,,,,,,,,,,,,,,,,,,,,,,,,,,,,
,,66a63fd5eae42f430895d7bf,66dafa53e232ed557fef725a,2024-09-06_14h49.40.751,mdp,2024.2.1,Win32,144.5086705,66d7945b1baad48e845df3ce,,,,,,,,,,,,,,,,,,,,,104.468,104.468,104.469,105.423,1,0,right,0.444,,105.423,105.424,,0,,105.426,105.426,,1,,1,105.426,105.426,105.428,106.926,0,2,2,2,1,0.8,0.2,0.6,0.4,1,0,,,,,,,,,,,,,,,,,,,,,,,,,,,,,,,,,,,,
,,66a63fd5eae42f430895d7bf,66dafa53e232ed557fef725a,2024-09-06_14h49.40.751,mdp,2024.2.1,Win32,144.5086705,66d7945b1baad48e845df3ce,,,,,,,,,,,,,,,,,,,,,106.926,106.926,106.926,108.063,1,1,right,0.623,,108.063,108.064,,1,,108.065,108.065,,0,,0,108.065,108.065,108.065,109.564,0,3,3,3,1,0.8,0.2,0.6,0.4,1,0,,,,,,,,,,,,,,,,,,,,,,,,,,,,,,,,,,,,
,,66a63fd5eae42f430895d7bf,66dafa53e232ed557fef725a,2024-09-06_14h49.40.751,mdp,2024.2.1,Win32,144.5086705,66d7945b1baad48e845df3ce,,,,,,,,,,,,,,,,,,,,,109.564,109.564,109.565,110.597,1,0,right,0.521,,110.598,110.598,,0,,110.599,110.599,,0,,1,110.599,110.599,110.6,112.098,0,4,4,4,1,0.8,0.2,0.6,0.4,1,0,,,,,,,,,,,,,,,,,,,,,,,,,,,,,,,,,,,,
,,66a63fd5eae42f430895d7bf,66dafa53e232ed557fef725a,2024-09-06_14h49.40.751,mdp,2024.2.1,Win32,144.5086705,66d7945b1baad48e845df3ce,,,,,,,,,,,,,,,,,,,,,112.098,112.098,112.099,116.924,1,0,right,4.312,,116.925,116.925,,0,,116.927,116.928,,0,,1,116.928,116.928,116.929,118.426,0,5,5,5,1,0.8,0.2,0.6,0.4,1,0,,,,,,,,,,,,,,,,,,,,,,,,,,,,,,,,,,,,
,,66a63fd5eae42f430895d7bf,66dafa53e232ed557fef725a,2024-09-06_14h49.40.751,mdp,2024.2.1,Win32,144.5086705,66d7945b1baad48e845df3ce,,,,,,,,,,,,,,,,,,,,,118.427,118.427,118.427,119.486,1,0,right,0.547,,119.487,119.488,,0,,119.488,119.489,,1,,1,119.489,119.489,119.489,120.989,0,6,6,6,1,0.8,0.2,0.6,0.4,1,0,,,,,,,,,,,,,,,,,,,,,,,,,,,,,,,,,,,,
,,66a63fd5eae42f430895d7bf,66dafa53e232ed557fef725a,2024-09-06_14h49.40.751,mdp,2024.2.1,Win32,144.5086705,66d7945b1baad48e845df3ce,,,,,,,,,,,,,,,,,,,,,120.989,120.989,120.99,121.813,1,0,right,0.312,,121.813,121.814,,0,,121.815,121.816,,0,,1,121.816,121.816,121.816,123.316,0,7,7,7,1,0.4,0.6,0.8,0.2,1,0,,,,,,,,,,,,,,,,,,,,,,,,,,,,,,,,,,,,
,,66a63fd5eae42f430895d7bf,66dafa53e232ed557fef725a,2024-09-06_14h49.40.751,mdp,2024.2.1,Win32,144.5086705,66d7945b1baad48e845df3ce,,,,,,,,,,,,,,,,,,,,,123.316,123.316,123.317,124.098,1,1,right,0.268,,124.101,124.102,,0,,124.103,124.104,,0,,0,124.104,124.104,124.105,125.6,0,8,8,8,1,0.6,0.4,0.4,0.6,1,0,,,,,,,,,,,,,,,,,,,,,,,,,,,,,,,,,,,,
,,66a63fd5eae42f430895d7bf,66dafa53e232ed557fef725a,2024-09-06_14h49.40.751,mdp,2024.2.1,Win32,144.5086705,66d7945b1baad48e845df3ce,,,,,,,,,,,,,,,,,,,,,125.601,125.601,125.602,126.514,1,0,right,0.402,,126.516,126.517,,0,,126.518,126.519,,0,,1,126.519,126.519,126.52,128.017,0,9,9,9,1,0.6,0.4,0.4,0.6,1,0,,,,,,,,,,,,,,,,,,,,,,,,,,,,,,,,,,,,
,,66a63fd5eae42f430895d7bf,66dafa53e232ed557fef725a,2024-09-06_14h49.40.751,mdp,2024.2.1,Win32,144.5086705,66d7945b1baad48e845df3ce,,,,,,,,,,,,,,,,,,,,,128.017,128.017,128.017,131.264,1,0,right,2.737,,131.265,131.267,,1,,131.268,131.269,,0,,1,131.269,131.269,131.269,132.767,0,10,10,10,1,0.6,0.4,0.4,0.6,1,0,,,,,,,,,,,,,,,,,,,,,,,,,,,,,,,,,,,,
,,66a63fd5eae42f430895d7bf,66dafa53e232ed557fef725a,2024-09-06_14h49.40.751,mdp,2024.2.1,Win32,144.5086705,66d7945b1baad48e845df3ce,,,,,,,,,,,,,,,,,,,,,132.768,132.768,132.768,136.008,1,0,right,2.727,,136.008,136.009,,1,,136.01,136.01,,0,,1,136.01,136.01,136.011,137.51,0,11,11,11,1,0.6,0.4,0.4,0.6,1,0,,,,,,,,,,,,,,,,,,,,,,,,,,,,,,,,,,,,
,,66a63fd5eae42f430895d7bf,66dafa53e232ed557fef725a,2024-09-06_14h49.40.751,mdp,2024.2.1,Win32,144.5086705,66d7945b1baad48e845df3ce,,,,,,,,,,,,,,,,,,,,,137.51,137.51,137.511,138.327,1,0,right,0.307,,138.328,138.328,,0,,138.329,138.33,,1,,1,138.33,138.33,138.331,139.83,0,12,12,12,1,0.6,0.4,0.4,0.6,1,0,,,,,,,,,,,,,,,,,,,,,,,,,,,,,,,,,,,,
,,66a63fd5eae42f430895d7bf,66dafa53e232ed557fef725a,2024-09-06_14h49.40.751,mdp,2024.2.1,Win32,144.5086705,66d7945b1baad48e845df3ce,,,,,,,,,,,,,,,,,,,,,139.83,139.83,139.831,140.688,1,0,right,0.353,,140.689,140.69,,0,,140.691,140.691,,1,,1,140.691,140.691,140.692,142.191,0,13,13,13,1,0.8,0.2,0.8,0.2,1,0,,,,,,,,,,,,,,,,,,,,,,,,,,,,,,,,,,,,
,,66a63fd5eae42f430895d7bf,66dafa53e232ed557fef725a,2024-09-06_14h49.40.751,mdp,2024.2.1,Win32,144.5086705,66d7945b1baad48e845df3ce,,,,,,,,,,,,,,,,,,,,,142.191,142.191,142.192,142.786,1,0,right,0.083,,142.787,142.788,,1,,142.789,142.79,,1,,1,142.79,142.79,142.79,144.289,0,14,14,14,1,0.2,0.8,0.6,0.4,1,0,,,,,,,,,,,,,,,,,,,,,,,,,,,,,,,,,,,,
,,66a63fd5eae42f430895d7bf,66dafa53e232ed557fef725a,2024-09-06_14h49.40.751,mdp,2024.2.1,Win32,144.5086705,66d7945b1baad48e845df3ce,,,,,,,,,,,,,,,,,,,,,144.289,144.289,144.29,145.113,1,0,right,0.311,,145.113,145.114,,0,,145.115,145.115,,0,,1,145.115,145.115,145.116,146.616,0,15,15,15,1,0.2,0.8,0.6,0.4,1,0,,,,,,,,,,,,,,,,,,,,,,,,,,,,,,,,,,,,
,,66a63fd5eae42f430895d7bf,66dafa53e232ed557fef725a,2024-09-06_14h49.40.751,mdp,2024.2.1,Win32,144.5086705,66d7945b1baad48e845df3ce,,,,,,,,,,,,,,,,,,,,,146.616,146.616,146.617,147.509,1,0,right,0.381,,147.509,147.51,,1,,147.51,147.511,,0,,1,147.511,147.511,147.512,149.011,0,16,16,16,1,0.2,0.8,0.6,0.4,1,0,,,,,,,,,,,,,,,,,,,,,,,,,,,,,,,,,,,,
,,66a63fd5eae42f430895d7bf,66dafa53e232ed557fef725a,2024-09-06_14h49.40.751,mdp,2024.2.1,Win32,144.5086705,66d7945b1baad48e845df3ce,,,,,,,,,,,,,,,,,,,,,149.011,149.011,149.012,149.787,1,0,right,0.263,,149.787,149.789,,0,,149.79,149.79,,0,,1,149.79,149.79,149.79,151.289,0,17,17,17,1,0.2,0.8,0.6,0.4,1,0,,,,,,,,,,,,,,,,,,,,,,,,,,,,,,,,,,,,
,,66a63fd5eae42f430895d7bf,66dafa53e232ed557fef725a,2024-09-06_14h49.40.751,mdp,2024.2.1,Win32,144.5086705,66d7945b1baad48e845df3ce,,,,,,,,,,,,,,,,,,,,,151.29,151.29,151.291,161.178,1,0,right,9.377,,161.182,161.184,,0,,161.185,161.185,,0,,1,161.185,161.185,161.186,162.681,0,18,18,18,1,0.2,0.8,0.6,0.4,1,0,,,,,,,,,,,,,,,,,,,,,,,,,,,,,,,,,,,,
,,66a63fd5eae42f430895d7bf,66dafa53e232ed557fef725a,2024-09-06_14h49.40.751,mdp,2024.2.1,Win32,144.5086705,66d7945b1baad48e845df3ce,,,,,,,,,,,,,,,,,,,,,162.682,162.682,162.683,163.449,1,0,right,0.257,,163.449,163.45,,0,,163.451,163.452,,1,,1,163.452,163.452,163.453,164.952,0,19,19,19,1,0.2,0.8,0.6,0.4,1,0,,,,,,,,,,,,,,,,,,,,,,,,,,,,,,,,,,,,
,,66a63fd5eae42f430895d7bf,66dafa53e232ed557fef725a,2024-09-06_14h49.40.751,mdp,2024.2.1,Win32,144.5086705,66d7945b1baad48e845df3ce,,,,,,,,,,,,,,,,,,,,,164.952,164.952,164.953,168.097,1,0,right,2.633,,168.099,168.1,,1,,168.101,168.102,,0,,1,168.102,168.102,168.102,169.609,0,20,20,20,1,0.2,0.8,0.6,0.4,1,0,,,,,,,,,,,,,,,,,,,,,,,,,,,,,,,,,,,,
,,66a63fd5eae42f430895d7bf,66dafa53e232ed557fef725a,2024-09-06_14h49.40.751,mdp,2024.2.1,Win32,144.5086705,66d7945b1baad48e845df3ce,,,,,,,,,,,,,,,,,,,,,169.61,169.61,169.611,171.501,1,0,right,1.378,,171.502,171.504,,0,,171.504,171.506,,0,,1,171.506,171.506,171.506,173.004,0,21,21,21,1,0.2,0.8,0.6,0.4,1,0,,,,,,,,,,,,,,,,,,,,,,,,,,,,,,,,,,,,
,,66a63fd5eae42f430895d7bf,66dafa53e232ed557fef725a,2024-09-06_14h49.40.751,mdp,2024.2.1,Win32,144.5086705,66d7945b1baad48e845df3ce,,,,,,,,,,,,,,,,,,,,,173.005,173.005,173.006,175.22,1,0,right,1.7,,175.221,175.223,,0,,175.224,175.224,,1,,1,175.224,175.224,175.225,176.724,0,22,22,22,1,0.2,0.8,0.6,0.4,1,0,,,,,,,,,,,,,,,,,,,,,,,,,,,,,,,,,,,,
,,66a63fd5eae42f430895d7bf,66dafa53e232ed557fef725a,2024-09-06_14h49.40.751,mdp,2024.2.1,Win32,144.5086705,66d7945b1baad48e845df3ce,,,,,,,,,,,,,,,,,,,,,176.725,176.725,176.726,177.69,1,1,right,0.448,,177.691,177.692,,1,,177.693,177.694,,0,,0,177.695,177.695,177.695,179.196,0,23,23,23,1,0.2,0.8,0.6,0.4,1,0,,,,,,,,,,,,,,,,,,,,,,,,,,,,,,,,,,,,
,,66a63fd5eae42f430895d7bf,66dafa53e232ed557fef725a,2024-09-06_14h49.40.751,mdp,2024.2.1,Win32,144.5086705,66d7945b1baad48e845df3ce,,,,,,,,,,,,,,,,,,,,,179.197,179.197,179.198,180.441,1,1,right,0.732,,180.441,180.443,,0,,180.444,180.444,,1,,0,180.445,180.445,180.445,181.943,0,24,24,24,1,0.6,0.4,0.2,0.8,1,0,,,,,,,,,,,,,,,,,,,,,,,,,,,,,,,,,,,,
,,66a63fd5eae42f430895d7bf,66dafa53e232ed557fef725a,2024-09-06_14h49.40.751,mdp,2024.2.1,Win32,144.5086705,66d7945b1baad48e845df3ce,,,,,,,,,,,,,,,,,,,,,181.944,181.944,181.945,182.658,1,1,right,0.201,,182.658,182.659,,0,,182.66,182.662,,1,,0,182.662,182.662,182.662,184.158,0,25,25,25,1,0.8,0.2,0.4,0.6,1,0,,,,,,,,,,,,,,,,,,,,,,,,,,,,,,,,,,,,
,,66a63fd5eae42f430895d7bf,66dafa53e232ed557fef725a,2024-09-06_14h49.40.751,mdp,2024.2.1,Win32,144.5086705,66d7945b1baad48e845df3ce,,,,,,,,,,,,,,,,,,,,,184.159,184.159,184.159,184.915,1,1,right,0.241,,184.916,184.916,,1,,184.916,184.917,,1,,0,184.917,184.917,184.919,186.415,0,26,26,26,1,0.8,0.2,0.4,0.6,1,0,,,,,,,,,,,,,,,,,,,,,,,,,,,,,,,,,,,,
,,66a63fd5eae42f430895d7bf,66dafa53e232ed557fef725a,2024-09-06_14h49.40.751,mdp,2024.2.1,Win32,144.5086705,66d7945b1baad48e845df3ce,,,,,,,,,,,,,,,,,,,,,186.417,186.417,186.419,187.129,0,0,left,0.201,,187.13,187.132,,0,,187.133,187.134,,0,,1,187.134,187.134,187.134,188.632,0,27,27,27,1,0.8,0.2,0.4,0.6,1,0,,,,,,,,,,,,,,,,,,,,,,,,,,,,,,,,,,,,
,,66a63fd5eae42f430895d7bf,66dafa53e232ed557fef725a,2024-09-06_14h49.40.751,mdp,2024.2.1,Win32,144.5086705,66d7945b1baad48e845df3ce,,,,,,,,,,,,,,,,,,,,,188.633,188.633,188.633,189.428,0,0,left,0.284,,189.429,189.43,,1,,189.431,189.433,,0,,1,189.433,189.433,189.434,190.931,0,28,28,28,1,0.8,0.2,0.4,0.6,1,0,,,,,,,,,,,,,,,,,,,,,,,,,,,,,,,,,,,,
,,66a63fd5eae42f430895d7bf,66dafa53e232ed557fef725a,2024-09-06_14h49.40.751,mdp,2024.2.1,Win32,144.5086705,66d7945b1baad48e845df3ce,,,,,,,,,,,,,,,,,,,,,190.933,190.933,190.934,191.694,0,1,left,0.248,,191.694,191.696,,1,,191.697,191.699,,1,,0,191.699,191.699,191.699,193.195,0,29,29,29,1,0.2,0.8,0.6,0.4,1,0,,,,,,,,,,,,,,,,,,,,,,,,,,,,,,,,,,,,
,,66a63fd5eae42f430895d7bf,66dafa53e232ed557fef725a,2024-09-06_14h49.40.751,mdp,2024.2.1,Win32,144.5086705,66d7945b1baad48e845df3ce,,,,,,,,,,,,,,,,,,,,,193.196,193.196,193.197,193.949,0,1,left,0.239,,193.951,193.952,,1,,193.953,193.954,,1,,0,193.954,193.954,193.954,195.453,0,30,30,30,1,0.2,0.8,0.6,0.4,1,0,,,,,,,,,,,,,,,,,,,,,,,,,,,,,,,,,,,,
,,66a63fd5eae42f430895d7bf,66dafa53e232ed557fef725a,2024-09-06_14h49.40.751,mdp,2024.2.1,Win32,144.5086705,66d7945b1baad48e845df3ce,,,,,,,,,,,,,,,,,,,,,195.453,195.453,195.454,196.2,0,1,left,0.236,,196.201,196.202,,1,,196.203,196.203,,0,,0,196.203,196.203,196.204,197.698,0,31,31,31,1,0.2,0.8,0.6,0.4,1,0,,,,,,,,,,,,,,,,,,,,,,,,,,,,,,,,,,,,
,,66a63fd5eae42f430895d7bf,66dafa53e232ed557fef725a,2024-09-06_14h49.40.751,mdp,2024.2.1,Win32,144.5086705,66d7945b1baad48e845df3ce,,,,,,,,,,,,,,,,,,,,,197.698,197.698,197.699,198.369,1,0,right,0.159,,198.37,198.371,,1,,198.372,198.372,,0,,1,198.372,198.372,198.373,199.871,0,32,32,32,1,0.2,0.8,0.6,0.4,1,0,,,,,,,,,,,,,,,,,,,,,,,,,,,,,,,,,,,,
,,66a63fd5eae42f430895d7bf,66dafa53e232ed557fef725a,2024-09-06_14h49.40.751,mdp,2024.2.1,Win32,144.5086705,66d7945b1baad48e845df3ce,,,,,,,,,,,,,,,,,,,,,199.873,199.873,199.874,200.611,1,0,right,0.23,,200.611,200.613,,0,,200.614,200.615,,0,,1,200.615,200.615,200.615,202.113,0,33,33,33,1,0.2,0.8,0.6,0.4,1,0,,,,,,,,,,,,,,,,,,,,,,,,,,,,,,,,,,,,
,,66a63fd5eae42f430895d7bf,66dafa53e232ed557fef725a,2024-09-06_14h49.40.751,mdp,2024.2.1,Win32,144.5086705,66d7945b1baad48e845df3ce,,,,,,,,,,,,,,,,,,,,,202.113,202.113,202.114,203.139,1,0,right,0.52,,203.139,203.14,,0,,203.142,203.142,,0,,1,203.142,203.142,203.143,204.643,0,34,34,34,1,0.2,0.8,0.6,0.4,1,0,,,,,,,,,,,,,,,,,,,,,,,,,,,,,,,,,,,,
,,66a63fd5eae42f430895d7bf,66dafa53e232ed557fef725a,2024-09-06_14h49.40.751,mdp,2024.2.1,Win32,144.5086705,66d7945b1baad48e845df3ce,,,,,,,,,,,,,,,,,,,,,204.643,204.643,204.644,205.859,1,0,right,0.705,,205.86,205.86,,1,,205.861,205.861,,0,,1,205.861,205.861,205.863,207.361,0,35,35,35,1,0.2,0.8,0.6,0.4,1,0,,,,,,,,,,,,,,,,,,,,,,,,,,,,,,,,,,,,
,,66a63fd5eae42f430895d7bf,66dafa53e232ed557fef725a,2024-09-06_14h49.40.751,mdp,2024.2.1,Win32,144.5086705,66d7945b1baad48e845df3ce,,,,,,,,,,,,,,,,,,,,,207.362,207.362,207.362,208.345,1,1,right,0.471,,208.346,208.348,,0,,208.348,208.349,,1,,0,208.35,208.35,208.351,209.85,0,36,36,36,1,0.8,0.2,0.4,0.6,1,0,,,,,,,,,,,,,,,,,,,,,,,,,,,,,,,,,,,,
,,66a63fd5eae42f430895d7bf,66dafa53e232ed557fef725a,2024-09-06_14h49.40.751,mdp,2024.2.1,Win32,144.5086705,66d7945b1baad48e845df3ce,,,,,,,,,,,,,,,,,,,,,209.85,209.85,209.851,210.401,1,1,right,0.041,,210.402,210.403,,1,,210.404,210.404,,1,,0,210.404,210.404,210.405,211.902,0,37,37,37,1,0.8,0.2,0.4,0.6,1,0,,,,,,,,,,,,,,,,,,,,,,,,,,,,,,,,,,,,
,,66a63fd5eae42f430895d7bf,66dafa53e232ed557fef725a,2024-09-06_14h49.40.751,mdp,2024.2.1,Win32,144.5086705,66d7945b1baad48e845df3ce,,,,,,,,,,,,,,,,,,,,,211.903,211.903,211.904,212.465,0,0,left,0.057,,212.466,212.466,,1,,212.467,212.468,,0,,1,212.468,212.468,212.469,213.967,0,38,38,38,1,0.8,0.2,0.4,0.6,1,0,,,,,,,,,,,,,,,,,,,,,,,,,,,,,,,,,,,,
,,66a63fd5eae42f430895d7bf,66dafa53e232ed557fef725a,2024-09-06_14h49.40.751,mdp,2024.2.1,Win32,144.5086705,66d7945b1baad48e845df3ce,,,,,,,,,,,,,,,,,,,,,213.968,213.968,213.969,214.71,0,0,left,0.232,,214.71,214.711,,1,,214.712,214.712,,0,,1,214.712,214.712,214.713,216.211,0,39,39,39,1,0.8,0.2,0.4,0.6,1,0,,,,,,,,,,,,,,,,,,,,,,,,,,,,,,,,,,,,
,,66a63fd5eae42f430895d7bf,66dafa53e232ed557fef725a,2024-09-06_14h49.40.751,mdp,2024.2.1,Win32,144.5086705,66d7945b1baad48e845df3ce,,,,,,,,,,,,,,,,,,,,,216.212,216.212,216.212,216.815,0,0,left,0.091,,216.815,216.816,,0,,216.817,216.818,,0,,1,216.818,216.818,216.819,218.317,0,40,40,40,1,0.8,0.2,0.4,0.6,1,0,,,,,,,,,,,,,,,,,,,,,,,,,,,,,,,,,,,,
,,66a63fd5eae42f430895d7bf,66dafa53e232ed557fef725a,2024-09-06_14h49.40.751,mdp,2024.2.1,Win32,144.5086705,66d7945b1baad48e845df3ce,,,,,,,,,,,,,,,,,,,,,218.318,218.318,218.321,219.211,0,0,left,0.381,,219.212,219.214,,1,,219.215,219.216,,0,,1,219.216,219.217,219.217,220.712,0,41,41,41,1,0.8,0.2,0.4,0.6,1,0,,,,,,,,,,,,,,,,,,,,,,,,,,,,,,,,,,,,
,,66a63fd5eae42f430895d7bf,66dafa53e232ed557fef725a,2024-09-06_14h49.40.751,mdp,2024.2.1,Win32,144.5086705,66d7945b1baad48e845df3ce,,,,,,,,,,,,,,,,,,,,,220.712,220.712,220.712,221.578,0,1,left,0.351,,221.579,221.58,,0,,221.582,221.583,,1,,0,221.583,221.583,221.584,223.08,0,42,42,42,1,0.6,0.4,0.6,0.4,1,0,,,,,,,,,,,,,,,,,,,,,,,,,,,,,,,,,,,,
,,66a63fd5eae42f430895d7bf,66dafa53e232ed557fef725a,2024-09-06_14h49.40.751,mdp,2024.2.1,Win32,144.5086705,66d7945b1baad48e845df3ce,,,,,,,,,,,,,,,,,,,,,223.081,223.081,223.082,223.663,1,1,right,0.071,,223.663,223.665,,0,,223.666,223.668,,1,,0,223.668,223.668,223.669,225.166,0,43,43,43,1,0.8,0.2,0.2,0.8,1,0,,,,,,,,,,,,,,,,,,,,,,,,,,,,,,,,,,,,
,,66a63fd5eae42f430895d7bf,66dafa53e232ed557fef725a,2024-09-06_14h49.40.751,mdp,2024.2.1,Win32,144.5086705,66d7945b1baad48e845df3ce,,,,,,,,,,,,,,,,,,,,,225.166,225.166,225.167,225.718,1,1,right,0.043,,225.719,225.72,,1,,225.721,225.722,,1,,0,225.722,225.722,225.722,227.221,0,44,44,44,1,0.8,0.2,0.2,0.8,1,0,,,,,,,,,,,,,,,,,,,,,,,,,,,,,,,,,,,,
,,66a63fd5eae42f430895d7bf,66dafa53e232ed557fef725a,2024-09-06_14h49.40.751,mdp,2024.2.1,Win32,144.5086705,66d7945b1baad48e845df3ce,,,,,,,,,,,,,,,,,,,,,227.221,227.221,227.222,227.782,0,0,left,0.048,,227.783,227.783,,1,,227.784,227.785,,1,,1,227.785,227.786,227.786,229.285,0,45,45,45,1,0.8,0.2,0.2,0.8,1,0,,,,,,,,,,,,,,,,,,,,,,,,,,,,,,,,,,,,
,,66a63fd5eae42f430895d7bf,66dafa53e232ed557fef725a,2024-09-06_14h49.40.751,mdp,2024.2.1,Win32,144.5086705,66d7945b1baad48e845df3ce,,,,,,,,,,,,,,,,,,,,,229.285,229.285,229.286,229.942,0,1,left,0.147,,229.942,229.943,,0,,229.944,229.945,,0,,0,229.945,229.945,229.946,231.444,0,46,46,46,1,0.8,0.2,0.2,0.8,1,0,,,,,,,,,,,,,,,,,,,,,,,,,,,,,,,,,,,,
,,66a63fd5eae42f430895d7bf,66dafa53e232ed557fef725a,2024-09-06_14h49.40.751,mdp,2024.2.1,Win32,144.5086705,66d7945b1baad48e845df3ce,,,,,,,,,,,,,,,,,,,,,231.445,231.445,231.446,233.273,1,0,right,1.315,,233.274,233.275,,0,,233.276,233.277,,1,,1,233.277,233.277,233.278,234.775,0,47,47,47,1,0.8,0.2,0.2,0.8,1,0,,,,,,,,,,,,,,,,,,,,,,,,,,,,,,,,,,,,
,,66a63fd5eae42f430895d7bf,66dafa53e232ed557fef725a,2024-09-06_14h49.40.751,mdp,2024.2.1,Win32,144.5086705,66d7945b1baad48e845df3ce,,,,,,,,,,,,,,,,,,,,,234.775,234.775,234.776,236.153,1,1,right,0.869,,236.154,236.154,,0,,236.155,236.155,,0,,0,236.155,236.155,236.157,237.651,0,48,48,48,1,0.8,0.2,0.2,0.8,1,0,,,,,,,,,,,,,,,,,,,,,,,,,,,,,,,,,,,,
,,66a63fd5eae42f430895d7bf,66dafa53e232ed557fef725a,2024-09-06_14h49.40.751,mdp,2024.2.1,Win32,144.5086705,66d7945b1baad48e845df3ce,,,,,,,,,,,,,,,,,,,,,237.651,237.651,237.652,238.424,0,0,left,0.264,,238.425,238.426,,0,,238.427,238.428,,0,,1,238.428,238.428,238.429,239.927,0,49,49,49,1,0.8,0.2,0.2,0.8,1,0,,,,,,,,,,,,,,,,,,,,,,,,,,,,,,,,,,,,
,,66a63fd5eae42f430895d7bf,66dafa53e232ed557fef725a,2024-09-06_14h49.40.751,mdp,2024.2.1,Win32,144.5086705,66d7945b1baad48e845df3ce,,,,,,,,,,,,,,,,,,,,,,,,,,,,,,,,,,,,,,,,,,,,,,,,,,,,,,,,239.927,298.43,0,0,0,8,1,imgs/lion.png,imgs/dog.png,imgs/elephant.png,imgs/giraffe.png,imgs/kangaroo.png,,,,,,,,,,,,,,,,,,,,,,,,
,,66a63fd5eae42f430895d7bf,66dafa53e232ed557fef725a,2024-09-06_14h49.40.751,mdp,2024.2.1,Win32,144.5086705,66d7945b1baad48e845df3ce,,,,,,,,,,,,,,2,seqs/st2seq21.csv,298.434,301.145,space,2.203,,301.15,301.15,301.151,302.557,0,0,left,0.891,,302.557,304.703,1,1,right,304.703,304.704,,1,,0,304.704,304.704,304.705,306.205,0,0,0,0,1,0.8,0.2,0.4,0.6,,,,,,,,,,,,,,,1.627,,0.8,0.2,0.4,0.6,0.4,0.6,0.4,0.6,1,0,,,,,,,,,,,,
,,66a63fd5eae42f430895d7bf,66dafa53e232ed557fef725a,2024-09-06_14h49.40.751,mdp,2024.2.1,Win32,144.5086705,66d7945b1baad48e845df3ce,,,,,,,,,,,,,,,,,,,,,306.206,306.206,306.207,307.21,0,0,left,0.493,,307.211,308.11,0,0,left,308.11,308.111,,0,,1,308.111,308.111,308.112,309.612,0,1,1,1,1,0.2,0.8,0.8,0.2,,,,,,,,,,,,,,,0.39,,0.8,0.2,0.4,0.6,0.4,0.6,0.4,0.6,1,0,,,,,,,,,,,,
,,66a63fd5eae42f430895d7bf,66dafa53e232ed557fef725a,2024-09-06_14h49.40.751,mdp,2024.2.1,Win32,144.5086705,66d7945b1baad48e845df3ce,,,,,,,,,,,,,,,,,,,,,309.613,309.613,309.613,310.693,1,1,right,0.566,,310.696,311.572,0,1,left,311.573,311.574,,0,,0,311.574,311.574,311.575,313.075,0,2,2,2,1,0.2,0.8,0.8,0.2,,,,,,,,,,,,,,,0.367,,0.8,0.2,0.4,0.6,0.4,0.6,0.4,0.6,1,0,,,,,,,,,,,,
,,66a63fd5eae42f430895d7bf,66dafa53e232ed557fef725a,2024-09-06_14h49.40.751,mdp,2024.2.1,Win32,144.5086705,66d7945b1baad48e845df3ce,,,,,,,,,,,,,,,,,,,,,313.075,313.075,313.076,314.341,1,0,right,0.753,,314.343,315.264,1,1,right,315.265,315.266,,0,,0,315.266,315.266,315.267,316.765,0,3,3,3,1,0.2,0.8,0.8,0.2,,,,,,,,,,,,,,,0.414,,0.2,0.8,0.6,0.4,0.4,0.6,0.4,0.6,1,0,,,,,,,,,,,,
,,66a63fd5eae42f430895d7bf,66dafa53e232ed557fef725a,2024-09-06_14h49.40.751,mdp,2024.2.1,Win32,144.5086705,66d7945b1baad48e845df3ce,,,,,,,,,,,,,,,,,,,,,316.765,316.765,316.766,317.782,1,0,right,0.507,,317.783,318.683,0,1,left,318.683,318.684,,1,,0,318.684,318.684,318.684,320.185,0,4,4,4,1,0.8,0.2,0.4,0.6,,,,,,,,,,,,,,,0.387,,0.2,0.8,0.6,0.4,0.4,0.6,0.4,0.6,1,0,,,,,,,,,,,,
,,66a63fd5eae42f430895d7bf,66dafa53e232ed557fef725a,2024-09-06_14h49.40.751,mdp,2024.2.1,Win32,144.5086705,66d7945b1baad48e845df3ce,,,,,,,,,,,,,,,,,,,,,320.186,320.186,320.188,320.968,0,0,left,0.27,,320.968,321.903,0,1,left,321.904,321.905,,1,,0,321.905,321.905,321.906,323.405,0,5,5,5,1,0.8,0.2,0.4,0.6,,,,,,,,,,,,,,,0.427,,0.2,0.8,0.6,0.4,0.4,0.6,0.4,0.6,1,0,,,,,,,,,,,,
,,66a63fd5eae42f430895d7bf,66dafa53e232ed557fef725a,2024-09-06_14h49.40.751,mdp,2024.2.1,Win32,144.5086705,66d7945b1baad48e845df3ce,,,,,,,,,,,,,,,,,,,,,323.406,323.406,323.406,324.52,0,1,left,0.603,,324.521,325.434,1,1,right,325.435,325.436,,1,,0,325.436,325.436,325.437,326.936,0,6,6,6,1,0.6,0.4,0.6,0.4,,,,,,,,,,,,,,,0.399,,0.2,0.8,0.6,0.4,0.4,0.6,0.4,0.6,1,0,,,,,,,,,,,,
,,66a63fd5eae42f430895d7bf,66dafa53e232ed557fef725a,2024-09-06_14h49.40.751,mdp,2024.2.1,Win32,144.5086705,66d7945b1baad48e845df3ce,,,,,,,,,,,,,,,,,,,,,326.937,326.937,326.938,328.204,1,1,right,0.753,,328.205,329.471,0,1,left,329.471,329.472,,0,,0,329.472,329.472,329.473,330.973,0,7,7,7,1,0.6,0.4,0.6,0.4,,,,,,,,,,,,,,,0.754,,0.2,0.8,0.6,0.4,0.4,0.6,0.4,0.6,1,0,,,,,,,,,,,,
,,66a63fd5eae42f430895d7bf,66dafa53e232ed557fef725a,2024-09-06_14h49.40.751,mdp,2024.2.1,Win32,144.5086705,66d7945b1baad48e845df3ce,,,,,,,,,,,,,,,,,,,,,330.974,330.974,330.974,332.663,0,0,left,1.179,,332.665,333.448,1,0,right,333.449,333.449,,1,,1,333.449,333.449,333.449,334.948,0,8,8,8,1,0.6,0.4,0.6,0.4,,,,,,,,,,,,,,,0.271,,0.2,0.8,0.6,0.4,0.4,0.6,0.4,0.6,1,0,,,,,,,,,,,,
,,66a63fd5eae42f430895d7bf,66dafa53e232ed557fef725a,2024-09-06_14h49.40.751,mdp,2024.2.1,Win32,144.5086705,66d7945b1baad48e845df3ce,,,,,,,,,,,,,,,,,,,,,334.949,334.949,334.95,336.479,0,0,left,1.019,,336.48,337.511,1,0,right,337.512,337.512,,1,,1,337.512,337.512,337.513,339.014,0,9,9,9,1,0.6,0.4,0.6,0.4,,,,,,,,,,,,,,,0.519,,0.2,0.8,0.6,0.4,0.4,0.6,0.4,0.6,1,0,,,,,,,,,,,,
,,66a63fd5eae42f430895d7bf,66dafa53e232ed557fef725a,2024-09-06_14h49.40.751,mdp,2024.2.1,Win32,144.5086705,66d7945b1baad48e845df3ce,,,,,,,,,,,,,,,,,,,,,339.015,339.015,339.016,340.155,0,0,left,0.629,,340.156,341.131,1,0,right,341.132,341.133,,0,,1,341.133,341.133,341.133,342.629,0,10,10,10,1,0.6,0.4,0.6,0.4,,,,,,,,,,,,,,,0.465,,0.2,0.8,0.6,0.4,0.4,0.6,0.4,0.6,1,0,,,,,,,,,,,,
,,66a63fd5eae42f430895d7bf,66dafa53e232ed557fef725a,2024-09-06_14h49.40.751,mdp,2024.2.1,Win32,144.5086705,66d7945b1baad48e845df3ce,,,,,,,,,,,,,,,,,,,,,342.63,342.63,342.633,343.516,0,0,left,0.374,,343.516,344.49,1,0,right,344.49,344.491,,0,,1,344.491,344.491,344.493,345.992,0,11,11,11,1,0.6,0.4,0.6,0.4,,,,,,,,,,,,,,,0.467,,0.2,0.8,0.6,0.4,0.4,0.6,0.4,0.6,1,0,,,,,,,,,,,,
,,66a63fd5eae42f430895d7bf,66dafa53e232ed557fef725a,2024-09-06_14h49.40.751,mdp,2024.2.1,Win32,144.5086705,66d7945b1baad48e845df3ce,,,,,,,,,,,,,,,,,,,,,345.992,345.992,345.993,347.446,0,1,left,0.94,,347.447,348.27,1,0,right,348.272,348.273,,1,,1,348.273,348.273,348.273,349.772,0,12,12,12,1,0.6,0.4,0.6,0.4,,,,,,,,,,,,,,,0.31,,0.2,0.8,0.6,0.4,0.4,0.6,0.4,0.6,1,0,,,,,,,,,,,,
,,66a63fd5eae42f430895d7bf,66dafa53e232ed557fef725a,2024-09-06_14h49.40.751,mdp,2024.2.1,Win32,144.5086705,66d7945b1baad48e845df3ce,,,,,,,,,,,,,,,,,,,,,349.773,349.773,349.774,351.365,0,1,left,1.083,,351.366,352.184,1,1,right,352.185,352.186,,0,,0,352.186,352.186,352.187,353.685,0,13,13,13,1,0.6,0.4,0.6,0.4,,,,,,,,,,,,,,,0.304,,0.2,0.8,0.6,0.4,0.4,0.6,0.4,0.6,1,0,,,,,,,,,,,,
,,66a63fd5eae42f430895d7bf,66dafa53e232ed557fef725a,2024-09-06_14h49.40.751,mdp,2024.2.1,Win32,144.5086705,66d7945b1baad48e845df3ce,,,,,,,,,,,,,,,,,,,,,353.685,353.685,353.686,354.564,0,1,left,0.365,,354.565,355.43,0,1,left,355.431,355.431,,1,,0,355.432,355.432,355.433,356.932,0,14,14,14,1,0.6,0.4,0.6,0.4,,,,,,,,,,,,,,,0.354,,0.2,0.8,0.6,0.4,0.4,0.6,0.4,0.6,1,0,,,,,,,,,,,,
,,66a63fd5eae42f430895d7bf,66dafa53e232ed557fef725a,2024-09-06_14h49.40.751,mdp,2024.2.1,Win32,144.5086705,66d7945b1baad48e845df3ce,,,,,,,,,,,,,,,,,,,,,356.933,356.933,356.933,361.925,1,0,right,4.482,,361.926,362.727,1,0,right,362.729,362.73,,1,,1,362.73,362.73,362.731,364.231,0,15,15,15,1,0.6,0.4,0.6,0.4,,,,,,,,,,,,,,,0.288,,0.2,0.8,0.6,0.4,0.4,0.6,0.4,0.6,1,0,,,,,,,,,,,,
,,66a63fd5eae42f430895d7bf,66dafa53e232ed557fef725a,2024-09-06_14h49.40.751,mdp,2024.2.1,Win32,144.5086705,66d7945b1baad48e845df3ce,,,,,,,,,,,,,,,,,,,,,364.231,364.231,364.232,365.186,1,0,right,0.442,,365.186,366.169,1,0,right,366.17,366.171,,1,,1,366.171,366.171,366.171,367.672,0,16,16,16,1,0.6,0.4,0.6,0.4,,,,,,,,,,,,,,,0.473,,0.2,0.8,0.6,0.4,0.6,0.4,0.6,0.4,1,0,,,,,,,,,,,,
,,66a63fd5eae42f430895d7bf,66dafa53e232ed557fef725a,2024-09-06_14h49.40.751,mdp,2024.2.1,Win32,144.5086705,66d7945b1baad48e845df3ce,,,,,,,,,,,,,,,,,,,,,367.672,367.672,367.673,370.85,1,0,right,2.666,,370.851,371.847,1,0,right,371.848,371.849,,1,,1,371.849,371.849,371.849,373.35,0,17,17,17,1,0.6,0.4,0.6,0.4,,,,,,,,,,,,,,,0.485,,0.2,0.8,0.6,0.4,0.6,0.4,0.6,0.4,1,0,,,,,,,,,,,,
,,66a63fd5eae42f430895d7bf,66dafa53e232ed557fef725a,2024-09-06_14h49.40.751,mdp,2024.2.1,Win32,144.5086705,66d7945b1baad48e845df3ce,,,,,,,,,,,,,,,,,,,,,373.35,373.35,373.35,374.18,1,1,right,0.318,,374.181,375.565,1,0,right,375.568,375.571,,1,,1,375.571,375.571,375.572,377.068,0,18,18,18,1,0.6,0.4,0.6,0.4,,,,,,,,,,,,,,,0.869,,0.2,0.8,0.6,0.4,0.6,0.4,0.6,0.4,1,0,,,,,,,,,,,,
,,66a63fd5eae42f430895d7bf,66dafa53e232ed557fef725a,2024-09-06_14h49.40.751,mdp,2024.2.1,Win32,144.5086705,66d7945b1baad48e845df3ce,,,,,,,,,,,,,,,,,,,,,377.069,377.069,377.07,377.816,1,0,right,0.237,,377.817,378.612,1,1,right,378.613,378.614,,0,,0,378.614,378.614,378.615,380.117,0,19,19,19,1,0.6,0.4,0.6,0.4,,,,,,,,,,,,,,,0.281,,0.2,0.8,0.6,0.4,0.6,0.4,0.6,0.4,1,0,,,,,,,,,,,,
,,66a63fd5eae42f430895d7bf,66dafa53e232ed557fef725a,2024-09-06_14h49.40.751,mdp,2024.2.1,Win32,144.5086705,66d7945b1baad48e845df3ce,,,,,,,,,,,,,,,,,,,,,380.117,380.117,380.118,380.89,1,1,right,0.263,,380.891,381.978,1,0,right,381.979,381.979,,0,,1,381.979,381.979,381.979,383.48,0,20,20,20,1,0.8,0.2,0.2,0.8,,,,,,,,,,,,,,,0.574,,0.2,0.8,0.6,0.4,0.6,0.4,0.6,0.4,1,0,,,,,,,,,,,,
,,66a63fd5eae42f430895d7bf,66dafa53e232ed557fef725a,2024-09-06_14h49.40.751,mdp,2024.2.1,Win32,144.5086705,66d7945b1baad48e845df3ce,,,,,,,,,,,,,,,,,,,,,383.481,383.481,383.481,384.43,1,1,right,0.437,,384.431,385.557,1,0,right,385.558,385.559,,0,,1,385.559,385.559,385.56,387.06,0,21,21,21,1,0.8,0.2,0.2,0.8,,,,,,,,,,,,,,,0.618,,0.2,0.8,0.6,0.4,0.6,0.4,0.6,0.4,1,0,,,,,,,,,,,,
,,66a63fd5eae42f430895d7bf,66dafa53e232ed557fef725a,2024-09-06_14h49.40.751,mdp,2024.2.1,Win32,144.5086705,66d7945b1baad48e845df3ce,,,,,,,,,,,,,,,,,,,,,387.06,387.06,387.06,387.891,1,0,right,0.316,,387.892,388.867,0,1,left,388.868,388.869,,1,,0,388.869,388.869,388.87,390.369,0,22,22,22,1,0.8,0.2,0.2,0.8,,,,,,,,,,,,,,,0.465,,0.2,0.8,0.6,0.4,0.6,0.4,0.6,0.4,1,0,,,,,,,,,,,,
,,66a63fd5eae42f430895d7bf,66dafa53e232ed557fef725a,2024-09-06_14h49.40.751,mdp,2024.2.1,Win32,144.5086705,66d7945b1baad48e845df3ce,,,,,,,,,,,,,,,,,,,,,390.369,390.369,390.37,391.242,1,1,right,0.359,,391.243,392.197,1,0,right,392.197,392.199,,0,,1,392.199,392.199,392.2,393.7,0,23,23,23,1,0.8,0.2,0.2,0.8,,,,,,,,,,,,,,,0.441,,0.2,0.8,0.6,0.4,0.4,0.6,0.8,0.2,1,0,,,,,,,,,,,,
,,66a63fd5eae42f430895d7bf,66dafa53e232ed557fef725a,2024-09-06_14h49.40.751,mdp,2024.2.1,Win32,144.5086705,66d7945b1baad48e845df3ce,,,,,,,,,,,,,,,,,,,,,393.701,393.701,393.702,394.781,1,1,right,0.57,,394.782,395.535,1,1,right,395.535,395.536,,0,,0,395.536,395.536,395.537,397.031,0,24,24,24,1,0.8,0.2,0.2,0.8,,,,,,,,,,,,,,,0.243,,0.2,0.8,0.6,0.4,0.4,0.6,0.8,0.2,1,0,,,,,,,,,,,,
,,66a63fd5eae42f430895d7bf,66dafa53e232ed557fef725a,2024-09-06_14h49.40.751,mdp,2024.2.1,Win32,144.5086705,66d7945b1baad48e845df3ce,,,,,,,,,,,,,,,,,,,,,397.031,397.031,397.032,397.904,1,1,right,0.361,,397.904,398.844,1,0,right,398.845,398.846,,0,,1,398.846,398.846,398.847,400.347,0,25,25,25,1,0.8,0.2,0.2,0.8,,,,,,,,,,,,,,,0.43,,0.2,0.8,0.6,0.4,0.4,0.6,0.8,0.2,1,0,,,,,,,,,,,,
,,66a63fd5eae42f430895d7bf,66dafa53e232ed557fef725a,2024-09-06_14h49.40.751,mdp,2024.2.1,Win32,144.5086705,66d7945b1baad48e845df3ce,,,,,,,,,,,,,,,,,,,,,400.347,400.347,400.348,401.351,1,1,right,0.489,,401.352,402.314,1,0,right,402.315,402.316,,0,,1,402.316,402.316,402.316,403.817,0,26,26,26,1,0.8,0.2,0.2,0.8,,,,,,,,,,,,,,,0.449,,0.2,0.8,0.6,0.4,0.4,0.6,0.8,0.2,1,0,,,,,,,,,,,,
,,66a63fd5eae42f430895d7bf,66dafa53e232ed557fef725a,2024-09-06_14h49.40.751,mdp,2024.2.1,Win32,144.5086705,66d7945b1baad48e845df3ce,,,,,,,,,,,,,,,,,,,,,403.817,403.817,403.818,404.551,1,0,right,0.221,,404.552,405.618,0,1,left,405.62,405.62,,0,,0,405.62,405.62,405.621,407.119,0,27,27,27,1,0.8,0.2,0.2,0.8,,,,,,,,,,,,,,,0.55,,0.2,0.8,0.6,0.4,0.4,0.6,0.8,0.2,1,0,,,,,,,,,,,,
,,66a63fd5eae42f430895d7bf,66dafa53e232ed557fef725a,2024-09-06_14h49.40.751,mdp,2024.2.1,Win32,144.5086705,66d7945b1baad48e845df3ce,,,,,,,,,,,,,,,,,,,,,407.121,407.121,407.123,410.18,1,1,right,2.549,,410.181,410.949,0,1,left,410.95,410.95,,1,,0,410.95,410.95,410.951,412.451,0,28,28,28,1,0.8,0.2,0.2,0.8,,,,,,,,,,,,,,,0.257,,0.2,0.8,0.6,0.4,0.4,0.6,0.8,0.2,1,0,,,,,,,,,,,,
,,66a63fd5eae42f430895d7bf,66dafa53e232ed557fef725a,2024-09-06_14h49.40.751,mdp,2024.2.1,Win32,144.5086705,66d7945b1baad48e845df3ce,,,,,,,,,,,,,,,,,,,,,412.452,412.452,412.452,417.934,1,1,right,4.971,,417.935,419.085,1,0,right,419.085,419.086,,0,,1,419.086,419.086,419.088,420.587,0,29,29,29,1,0.8,0.2,0.2,0.8,,,,,,,,,,,,,,,0.635,,0.2,0.8,0.6,0.4,0.4,0.6,0.8,0.2,1,0,,,,,,,,,,,,
,,66a63fd5eae42f430895d7bf,66dafa53e232ed557fef725a,2024-09-06_14h49.40.751,mdp,2024.2.1,Win32,144.5086705,66d7945b1baad48e845df3ce,,,,,,,,,,,,,,,,,,,,,420.588,420.588,420.588,423.294,1,1,right,2.198,,423.295,424.224,1,0,right,424.225,424.226,,0,,1,424.226,424.226,424.227,425.725,0,30,30,30,1,0.8,0.2,0.2,0.8,,,,,,,,,,,,,,,0.415,,0.2,0.8,0.6,0.4,0.4,0.6,0.8,0.2,1,0,,,,,,,,,,,,
,,66a63fd5eae42f430895d7bf,66dafa53e232ed557fef725a,2024-09-06_14h49.40.751,mdp,2024.2.1,Win32,144.5086705,66d7945b1baad48e845df3ce,,,,,,,,,,,,,,,,,,,,,425.725,425.725,425.726,426.828,1,1,right,0.591,,426.828,427.746,1,0,right,427.747,427.748,,0,,1,427.748,427.748,427.749,429.244,0,31,31,31,1,0.8,0.2,0.2,0.8,,,,,,,,,,,,,,,0.409,,0.2,0.8,0.6,0.4,0.4,0.6,0.8,0.2,1,0,,,,,,,,,,,,
,,66a63fd5eae42f430895d7bf,66dafa53e232ed557fef725a,2024-09-06_14h49.40.751,mdp,2024.2.1,Win32,144.5086705,66d7945b1baad48e845df3ce,,,,,,,,,,,,,,,,,,,,,429.244,429.244,429.245,478.522,1,1,right,48.769,,478.526,481.396,1,1,right,481.397,481.398,,0,,0,481.398,481.398,481.399,482.898,0,32,32,32,1,0.8,0.2,0.2,0.8,,,,,,,,,,,,,,,2.36,,0.6,0.4,0.4,0.6,0.4,0.6,0.8,0.2,1,0,,,,,,,,,,,,
,,66a63fd5eae42f430895d7bf,66dafa53e232ed557fef725a,2024-09-06_14h49.40.751,mdp,2024.2.1,Win32,144.5086705,66d7945b1baad48e845df3ce,,,,,,,,,,,,,,,,,,,,,482.899,482.899,482.9,611.268,1,1,right,127.856,,611.271,612.32,1,1,right,612.32,612.321,,1,,0,612.321,612.321,612.322,613.822,0,33,33,33,1,0.4,0.6,0.6,0.4,,,,,,,,,,,,,,,0.539,,0.6,0.4,0.4,0.6,0.4,0.6,0.8,0.2,1,0,,,,,,,,,,,,
,,66a63fd5eae42f430895d7bf,66dafa53e232ed557fef725a,2024-09-06_14h49.40.751,mdp,2024.2.1,Win32,144.5086705,66d7945b1baad48e845df3ce,,,,,,,,,,,,,,,,,,,,,613.822,613.822,613.823,615.477,1,0,right,1.142,,615.477,616.252,1,1,right,616.253,616.254,,0,,0,616.254,616.254,616.254,617.754,0,34,34,34,1,0.4,0.6,0.6,0.4,,,,,,,,,,,,,,,0.261,,0.6,0.4,0.4,0.6,0.4,0.6,0.8,0.2,1,0,,,,,,,,,,,,
,,66a63fd5eae42f430895d7bf,66dafa53e232ed557fef725a,2024-09-06_14h49.40.751,mdp,2024.2.1,Win32,144.5086705,66d7945b1baad48e845df3ce,,,,,,,,,,,,,,,,,,,,,617.755,617.755,617.756,621.98,1,1,right,3.711,,621.981,623.01,1,0,right,623.011,623.011,,0,,1,623.011,623.011,623.012,624.506,0,35,35,35,1,0.4,0.6,0.6,0.4,,,,,,,,,,,,,,,0.518,,0.6,0.4,0.4,0.6,0.4,0.6,0.8,0.2,1,0,,,,,,,,,,,,
,,66a63fd5eae42f430895d7bf,66dafa53e232ed557fef725a,2024-09-06_14h49.40.751,mdp,2024.2.1,Win32,144.5086705,66d7945b1baad48e845df3ce,,,,,,,,,,,,,,,,,,,,,624.506,624.506,624.507,625.981,1,0,right,0.962,,625.982,627.076,0,0,left,627.077,627.077,,0,,1,627.077,627.077,627.078,628.577,0,36,36,36,1,0.4,0.6,0.6,0.4,,,,,,,,,,,,,,,0.58,,0.6,0.4,0.4,0.6,0.4,0.6,0.8,0.2,1,0,,,,,,,,,,,,
,,66a63fd5eae42f430895d7bf,66dafa53e232ed557fef725a,2024-09-06_14h49.40.751,mdp,2024.2.1,Win32,144.5086705,66d7945b1baad48e845df3ce,,,,,,,,,,,,,,,,,,,,,628.578,628.578,628.579,663.573,1,1,right,34.483,,663.577,664.486,1,1,right,664.487,664.489,,0,,0,664.489,664.489,664.49,665.989,0,37,37,37,1,0.4,0.6,0.6,0.4,,,,,,,,,,,,,,,0.4,,0.6,0.4,0.4,0.6,0.4,0.6,0.8,0.2,1,0,,,,,,,,,,,,
,,66a63fd5eae42f430895d7bf,66dafa53e232ed557fef725a,2024-09-06_14h49.40.751,mdp,2024.2.1,Win32,144.5086705,66d7945b1baad48e845df3ce,,,,,,,,,,,,,,,,,,,,,665.991,665.991,665.991,666.972,1,0,right,0.471,,666.973,668.122,1,0,right,668.125,668.127,,1,,1,668.127,668.127,668.128,669.624,0,38,38,38,1,0.4,0.6,0.6,0.4,,,,,,,,,,,,,,,0.633,,0.6,0.4,0.4,0.6,0.4,0.6,0.8,0.2,1,0,,,,,,,,,,,,
,,66a63fd5eae42f430895d7bf,66dafa53e232ed557fef725a,2024-09-06_14h49.40.751,mdp,2024.2.1,Win32,144.5086705,66d7945b1baad48e845df3ce,,,,,,,,,,,,,,,,,,,,,669.625,669.625,669.625,670.462,1,0,right,0.327,,670.463,671.362,0,0,left,671.363,671.363,,0,,1,671.363,671.363,671.364,672.865,0,39,39,39,1,0.4,0.6,0.6,0.4,,,,,,,,,,,,,,,0.386,,0.6,0.4,0.4,0.6,0.4,0.6,0.8,0.2,1,0,,,,,,,,,,,,
,,66a63fd5eae42f430895d7bf,66dafa53e232ed557fef725a,2024-09-06_14h49.40.751,mdp,2024.2.1,Win32,144.5086705,66d7945b1baad48e845df3ce,,,,,,,,,,,,,,,,,,,,,672.866,672.866,672.867,674.167,1,1,right,0.789,,674.168,675.061,1,0,right,675.062,675.063,,0,,1,675.063,675.063,675.064,676.558,0,40,40,40,1,0.4,0.6,0.6,0.4,,,,,,,,,,,,,,,0.378,,0.6,0.4,0.4,0.6,0.4,0.6,0.8,0.2,1,0,,,,,,,,,,,,
,,66a63fd5eae42f430895d7bf,66dafa53e232ed557fef725a,2024-09-06_14h49.40.751,mdp,2024.2.1,Win32,144.5086705,66d7945b1baad48e845df3ce,,,,,,,,,,,,,,,,,,,,,676.558,676.558,676.558,677.594,1,0,right,0.528,,677.595,678.495,0,0,left,678.495,678.496,,0,,1,678.496,678.496,678.496,679.997,0,41,41,41,1,0.4,0.6,0.6,0.4,,,,,,,,,,,,,,,0.389,,0.6,0.4,0.4,0.6,0.4,0.6,0.8,0.2,1,0,,,,,,,,,,,,
,,66a63fd5eae42f430895d7bf,66dafa53e232ed557fef725a,2024-09-06_14h49.40.751,mdp,2024.2.1,Win32,144.5086705,66d7945b1baad48e845df3ce,,,,,,,,,,,,,,,,,,,,,679.997,679.997,679.998,680.898,1,0,right,0.388,,680.899,681.929,0,0,left,681.93,681.931,,1,,1,681.931,681.931,681.932,683.427,0,42,42,42,1,0.4,0.6,0.6,0.4,,,,,,,,,,,,,,,0.52,,0.6,0.4,0.4,0.6,0.4,0.6,0.8,0.2,1,0,,,,,,,,,,,,
,,66a63fd5eae42f430895d7bf,66dafa53e232ed557fef725a,2024-09-06_14h49.40.751,mdp,2024.2.1,Win32,144.5086705,66d7945b1baad48e845df3ce,,,,,,,,,,,,,,,,,,,,,683.428,683.428,683.428,684.67,1,0,right,0.733,,684.671,685.746,0,0,left,685.747,685.748,,0,,1,685.748,685.748,685.749,687.246,0,43,43,43,1,0.4,0.6,0.6,0.4,,,,,,,,,,,,,,,0.559,,0.6,0.4,0.4,0.6,0.2,0.8,0.4,0.6,1,0,,,,,,,,,,,,
,,66a63fd5eae42f430895d7bf,66dafa53e232ed557fef725a,2024-09-06_14h49.40.751,mdp,2024.2.1,Win32,144.5086705,66d7945b1baad48e845df3ce,,,,,,,,,,,,,,,,,,,,,687.247,687.248,687.249,694.122,1,1,right,6.365,,694.124,695.043,1,0,right,695.044,695.045,,1,,1,695.045,695.045,695.045,696.546,0,44,44,44,1,0.8,0.2,0.4,0.6,,,,,,,,,,,,,,,0.408,,0.6,0.4,0.4,0.6,0.2,0.8,0.4,0.6,1,0,,,,,,,,,,,,
,,66a63fd5eae42f430895d7bf,66dafa53e232ed557fef725a,2024-09-06_14h49.40.751,mdp,2024.2.1,Win32,144.5086705,66d7945b1baad48e845df3ce,,,,,,,,,,,,,,,,,,,,,696.546,696.546,696.546,697.49,1,1,right,0.429,,697.491,701.144,1,1,right,701.147,701.15,,1,,0,701.15,701.15,701.151,702.646,0,45,45,45,1,0.8,0.2,0.4,0.6,,,,,,,,,,,,,,,3.144,,0.6,0.4,0.4,0.6,0.2,0.8,0.4,0.6,1,0,,,,,,,,,,,,
,,66a63fd5eae42f430895d7bf,66dafa53e232ed557fef725a,2024-09-06_14h49.40.751,mdp,2024.2.1,Win32,144.5086705,66d7945b1baad48e845df3ce,,,,,,,,,,,,,,,,,,,,,702.647,702.647,702.647,704.904,1,0,right,1.742,,704.905,705.848,0,0,left,705.849,705.851,,0,,1,705.851,705.851,705.851,707.348,0,46,46,46,1,0.8,0.2,0.4,0.6,,,,,,,,,,,,,,,0.427,,0.8,0.2,0.2,0.8,0.2,0.8,0.4,0.6,1,0,,,,,,,,,,,,
,,66a63fd5eae42f430895d7bf,66dafa53e232ed557fef725a,2024-09-06_14h49.40.751,mdp,2024.2.1,Win32,144.5086705,66d7945b1baad48e845df3ce,,,,,,,,,,,,,,,,,,,,,707.349,707.349,707.349,708.241,1,1,right,0.382,,708.241,709.177,1,1,right,709.178,709.179,,0,,0,709.179,709.179,709.18,710.678,0,47,47,47,1,0.8,0.2,0.4,0.6,,,,,,,,,,,,,,,0.421,,0.8,0.2,0.2,0.8,0.2,0.8,0.4,0.6,1,0,,,,,,,,,,,,
,,66a63fd5eae42f430895d7bf,66dafa53e232ed557fef725a,2024-09-06_14h49.40.751,mdp,2024.2.1,Win32,144.5086705,66d7945b1baad48e845df3ce,,,,,,,,,,,,,,,,,,,,,710.678,710.678,710.68,711.523,1,1,right,0.334,,711.523,713.837,1,0,right,713.838,713.839,,1,,1,713.84,713.84,713.84,715.338,0,48,48,48,1,0.2,0.8,0.6,0.4,,,,,,,,,,,,,,,1.804,,0.8,0.2,0.2,0.8,0.2,0.8,0.4,0.6,1,0,,,,,,,,,,,,
,,66a63fd5eae42f430895d7bf,66dafa53e232ed557fef725a,2024-09-06_14h49.40.751,mdp,2024.2.1,Win32,144.5086705,66d7945b1baad48e845df3ce,,,,,,,,,,,,,,,,,,,,,715.339,715.339,715.34,719.881,1,1,right,4.03,,719.881,720.802,1,0,right,720.802,720.803,,1,,1,720.804,720.804,720.805,722.304,0,49,49,49,1,0.2,0.8,0.6,0.4,,,,,,,,,,,,,,,0.408,,0.8,0.2,0.2,0.8,0.2,0.8,0.4,0.6,1,0,,,,,,,,,,,,
,,66a63fd5eae42f430895d7bf,66dafa53e232ed557fef725a,2024-09-06_14h49.40.751,mdp,2024.2.1,Win32,144.5086705,66d7945b1baad48e845df3ce,,,,,,,,,,,,,,,,,,,,,,,,,,,,,,,,,,,,,,,,,,,,,,,,,,,,,,,,722.304,780.807,0,1,1,0,1,imgs/rabbit.png,imgs/cat.png,imgs/bear.png,imgs/goat.png,imgs/dog.png,,,,,,,,,,,,,,,,,,,,,,,,
,,66a63fd5eae42f430895d7bf,66dafa53e232ed557fef725a,2024-09-06_14h49.40.751,mdp,2024.2.1,Win32,144.5086705,66d7945b1baad48e845df3ce,,,,,,,,,,,,,,3,seqs/st3seq5.csv,780.812,788.867,space,7.551,,788.872,788.872,788.872,790.085,0,0,left,0.701,,790.086,791.957,0,1,left,791.958,792.938,0,1,left,0,792.938,792.938,792.94,794.438,0,0,0,0,1,0.6,0.4,0.2,0.8,,,,,,,,,,,,,,,1.349,,0.8,0.2,0.4,0.6,0.8,0.2,0.8,0.2,,,0.467,,0.2,0.8,0.4,0.6,0.6,0.4,0.8,0.2,1,0
,,66a63fd5eae42f430895d7bf,66dafa53e232ed557fef725a,2024-09-06_14h49.40.751,mdp,2024.2.1,Win32,144.5086705,66d7945b1baad48e845df3ce,,,,,,,,,,,,,,,,,,,,,794.44,794.441,794.444,795.397,0,1,left,0.448,,795.397,797.176,0,0,left,797.177,798.187,1,1,right,0,798.187,798.187,798.188,799.684,0,1,1,1,1,0.6,0.4,0.2,0.8,,,,,,,,,,,,,,,1.262,,0.8,0.2,0.4,0.6,0.8,0.2,0.8,0.2,,,0.493,,0.2,0.8,0.4,0.6,0.6,0.4,0.8,0.2,1,0
,,66a63fd5eae42f430895d7bf,66dafa53e232ed557fef725a,2024-09-06_14h49.40.751,mdp,2024.2.1,Win32,144.5086705,66d7945b1baad48e845df3ce,,,,,,,,,,,,,,,,,,,,,799.684,799.684,799.685,800.771,0,0,left,0.576,,800.772,802.431,0,0,left,802.432,803.34,1,1,right,0,803.34,803.341,803.342,804.841,0,2,2,2,1,0.6,0.4,0.2,0.8,,,,,,,,,,,,,,,1.149,,0.8,0.2,0.4,0.6,0.8,0.2,0.8,0.2,,,0.396,,0.2,0.8,0.4,0.6,0.6,0.4,0.8,0.2,1,0
,,66a63fd5eae42f430895d7bf,66dafa53e232ed557fef725a,2024-09-06_14h49.40.751,mdp,2024.2.1,Win32,144.5086705,66d7945b1baad48e845df3ce,,,,,,,,,,,,,,,,,,,,,804.842,804.842,804.843,805.409,1,1,right,0.057,,805.409,806.308,1,1,right,806.309,807.267,1,0,right,1,807.267,807.267,807.269,808.767,0,3,3,3,1,0.6,0.4,0.2,0.8,,,,,,,,,,,,,,,0.386,,0.8,0.2,0.4,0.6,0.8,0.2,0.8,0.2,,,0.442,,0.2,0.8,0.4,0.6,0.6,0.4,0.8,0.2,1,0
,,66a63fd5eae42f430895d7bf,66dafa53e232ed557fef725a,2024-09-06_14h49.40.751,mdp,2024.2.1,Win32,144.5086705,66d7945b1baad48e845df3ce,,,,,,,,,,,,,,,,,,,,,808.767,808.767,808.768,809.611,1,1,right,0.334,,809.613,810.692,1,0,right,810.693,811.903,1,0,right,1,811.904,811.904,811.905,813.4,0,4,4,4,1,0.6,0.4,0.2,0.8,,,,,,,,,,,,,,,0.567,,0.8,0.2,0.4,0.6,0.8,0.2,0.8,0.2,,,0.699,,0.2,0.8,0.4,0.6,0.6,0.4,0.8,0.2,1,0
,,66a63fd5eae42f430895d7bf,66dafa53e232ed557fef725a,2024-09-06_14h49.40.751,mdp,2024.2.1,Win32,144.5086705,66d7945b1baad48e845df3ce,,,,,,,,,,,,,,,,,,,,,813.4,813.4,813.4,814.162,1,0,right,0.25,,814.163,815.082,1,1,right,815.083,816.245,0,1,left,0,816.245,816.245,816.246,817.741,0,5,5,5,1,0.6,0.4,0.2,0.8,,,,,,,,,,,,,,,0.408,,0.8,0.2,0.4,0.6,0.8,0.2,0.8,0.2,,,0.647,,0.2,0.8,0.4,0.6,0.6,0.4,0.8,0.2,1,0
,,66a63fd5eae42f430895d7bf,66dafa53e232ed557fef725a,2024-09-06_14h49.40.751,mdp,2024.2.1,Win32,144.5086705,66d7945b1baad48e845df3ce,,,,,,,,,,,,,,,,,,,,,817.741,817.741,817.742,818.572,1,0,right,0.321,,818.573,819.389,1,0,right,819.39,820.295,1,1,right,0,820.295,820.295,820.296,821.793,0,6,6,6,1,0.6,0.4,0.2,0.8,,,,,,,,,,,,,,,0.307,,0.8,0.2,0.4,0.6,0.8,0.2,0.8,0.2,,,0.393,,0.2,0.8,0.4,0.6,0.6,0.4,0.8,0.2,1,0
,,66a63fd5eae42f430895d7bf,66dafa53e232ed557fef725a,2024-09-06_14h49.40.751,mdp,2024.2.1,Win32,144.5086705,66d7945b1baad48e845df3ce,,,,,,,,,,,,,,,,,,,,,821.793,821.793,821.794,823.322,1,0,right,1.019,,823.322,824.357,1,1,right,824.358,825.099,0,0,left,1,825.099,825.099,825.101,826.603,0,7,7,7,1,0.6,0.4,0.2,0.8,,,,,,,,,,,,,,,0.518,,0.8,0.2,0.4,0.6,0.8,0.2,0.8,0.2,,,0.229,,0.2,0.8,0.4,0.6,0.6,0.4,0.8,0.2,1,0
,,66a63fd5eae42f430895d7bf,66dafa53e232ed557fef725a,2024-09-06_14h49.40.751,mdp,2024.2.1,Win32,144.5086705,66d7945b1baad48e845df3ce,,,,,,,,,,,,,,,,,,,,,826.604,826.604,826.606,827.58,1,0,right,0.463,,827.582,828.418,0,0,left,828.42,829.207,0,1,left,0,829.207,829.207,829.208,830.704,0,8,8,8,1,0.6,0.4,0.2,0.8,,,,,,,,,,,,,,,0.326,,0.8,0.2,0.4,0.6,0.8,0.2,0.8,0.2,,,0.274,,0.2,0.8,0.4,0.6,0.6,0.4,0.8,0.2,1,0
,,66a63fd5eae42f430895d7bf,66dafa53e232ed557fef725a,2024-09-06_14h49.40.751,mdp,2024.2.1,Win32,144.5086705,66d7945b1baad48e845df3ce,,,,,,,,,,,,,,,,,,,,,830.705,830.705,830.706,831.244,1,1,right,0.03,,831.245,831.88,1,0,right,831.881,832.51,1,0,right,1,832.511,832.511,832.511,834.006,0,9,9,9,1,0.6,0.4,0.2,0.8,,,,,,,,,,,,,,,0.124,,0.8,0.2,0.4,0.6,0.8,0.2,0.8,0.2,,,0.12,,0.2,0.8,0.4,0.6,0.6,0.4,0.8,0.2,1,0
,,66a63fd5eae42f430895d7bf,66dafa53e232ed557fef725a,2024-09-06_14h49.40.751,mdp,2024.2.1,Win32,144.5086705,66d7945b1baad48e845df3ce,,,,,,,,,,,,,,,,,,,,,834.006,834.006,834.008,834.864,1,1,right,0.346,,834.865,835.98,1,1,right,835.98,836.873,1,0,right,1,836.873,836.873,836.874,838.37,0,10,10,10,1,0.6,0.4,0.2,0.8,,,,,,,,,,,,,,,0.602,,0.8,0.2,0.4,0.6,0.8,0.2,0.8,0.2,,,0.38,,0.2,0.8,0.4,0.6,0.6,0.4,0.8,0.2,1,0
,,66a63fd5eae42f430895d7bf,66dafa53e232ed557fef725a,2024-09-06_14h49.40.751,mdp,2024.2.1,Win32,144.5086705,66d7945b1baad48e845df3ce,,,,,,,,,,,,,,,,,,,,,838.371,838.371,838.371,839.151,1,0,right,0.271,,839.152,839.905,1,1,right,839.906,840.694,1,1,right,0,840.694,840.694,840.695,842.19,0,11,11,11,1,0.6,0.4,0.2,0.8,,,,,,,,,,,,,,,0.241,,0.8,0.2,0.4,0.6,0.8,0.2,0.8,0.2,,,0.278,,0.2,0.8,0.4,0.6,0.6,0.4,0.8,0.2,1,0
,,66a63fd5eae42f430895d7bf,66dafa53e232ed557fef725a,2024-09-06_14h49.40.751,mdp,2024.2.1,Win32,144.5086705,66d7945b1baad48e845df3ce,,,,,,,,,,,,,,,,,,,,,842.191,842.191,842.191,843.021,1,0,right,0.318,,843.022,843.797,1,0,right,843.798,844.565,0,1,left,0,844.565,844.565,844.566,846.061,0,12,12,12,1,0.6,0.4,0.2,0.8,,,,,,,,,,,,,,,0.263,,0.8,0.2,0.4,0.6,0.8,0.2,0.8,0.2,,,0.255,,0.2,0.8,0.4,0.6,0.6,0.4,0.8,0.2,1,0
,,66a63fd5eae42f430895d7bf,66dafa53e232ed557fef725a,2024-09-06_14h49.40.751,mdp,2024.2.1,Win32,144.5086705,66d7945b1baad48e845df3ce,,,,,,,,,,,,,,,,,,,,,846.062,846.062,846.063,847.19,0,0,left,0.617,,847.19,847.979,0,0,left,847.98,848.838,0,1,left,0,848.838,848.838,848.839,850.333,0,13,13,13,1,0.6,0.4,0.2,0.8,,,,,,,,,,,,,,,0.276,,0.8,0.2,0.4,0.6,0.8,0.2,0.8,0.2,,,0.347,,0.2,0.8,0.4,0.6,0.6,0.4,0.8,0.2,1,0
,,66a63fd5eae42f430895d7bf,66dafa53e232ed557fef725a,2024-09-06_14h49.40.751,mdp,2024.2.1,Win32,144.5086705,66d7945b1baad48e845df3ce,,,,,,,,,,,,,,,,,,,,,850.333,850.333,850.334,853.767,1,0,right,2.922,,853.768,854.912,1,0,right,854.914,855.761,0,1,left,0,855.761,855.761,855.762,857.257,0,14,14,14,1,0.2,0.8,0.8,0.2,,,,,,,,,,,,,,,0.63,,0.8,0.2,0.4,0.6,0.8,0.2,0.8,0.2,,,0.338,,0.2,0.8,0.4,0.6,0.6,0.4,0.8,0.2,1,0
,,66a63fd5eae42f430895d7bf,66dafa53e232ed557fef725a,2024-09-06_14h49.40.751,mdp,2024.2.1,Win32,144.5086705,66d7945b1baad48e845df3ce,,,,,,,,,,,,,,,,,,,,,857.257,857.257,857.258,858.081,1,0,right,0.311,,858.087,858.837,1,0,right,858.838,859.522,1,1,right,0,859.522,859.522,859.523,861.017,0,15,15,15,1,0.2,0.8,0.8,0.2,,,,,,,,,,,,,,,0.243,,0.8,0.2,0.4,0.6,0.8,0.2,0.8,0.2,,,0.173,,0.2,0.8,0.4,0.6,0.6,0.4,0.8,0.2,1,0
,,66a63fd5eae42f430895d7bf,66dafa53e232ed557fef725a,2024-09-06_14h49.40.751,mdp,2024.2.1,Win32,144.5086705,66d7945b1baad48e845df3ce,,,,,,,,,,,,,,,,,,,,,861.018,861.018,861.018,864.203,1,0,right,2.674,,864.204,864.888,1,0,right,864.888,865.477,1,1,right,0,865.477,865.477,865.478,866.972,0,16,16,16,1,0.2,0.8,0.8,0.2,,,,,,,,,,,,,,,0.175,,0.8,0.2,0.4,0.6,0.8,0.2,0.8,0.2,,,0.077,,0.2,0.8,0.4,0.6,0.6,0.4,0.8,0.2,1,0
,,66a63fd5eae42f430895d7bf,66dafa53e232ed557fef725a,2024-09-06_14h49.40.751,mdp,2024.2.1,Win32,144.5086705,66d7945b1baad48e845df3ce,,,,,,,,,,,,,,,,,,,,,866.973,866.973,866.974,868.918,1,0,right,1.435,,868.918,869.728,0,0,left,869.729,871.058,0,0,left,1,871.058,871.058,871.06,872.56,0,17,17,17,1,0.2,0.8,0.8,0.2,,,,,,,,,,,,,,,0.296,,0.8,0.2,0.4,0.6,0.8,0.2,0.8,0.2,,,0.818,,0.6,0.4,0.2,0.8,0.6,0.4,0.8,0.2,1,0
,,66a63fd5eae42f430895d7bf,66dafa53e232ed557fef725a,2024-09-06_14h49.40.751,mdp,2024.2.1,Win32,144.5086705,66d7945b1baad48e845df3ce,,,,,,,,,,,,,,,,,,,,,872.56,872.56,872.561,875.198,0,1,left,2.125,,875.199,875.947,0,1,left,875.948,876.854,0,0,left,1,876.854,876.854,876.854,878.356,0,18,18,18,1,0.2,0.8,0.8,0.2,,,,,,,,,,,,,,,0.235,,0.8,0.2,0.4,0.6,0.8,0.2,0.8,0.2,,,0.395,,0.4,0.6,0.8,0.2,0.6,0.4,0.8,0.2,1,0
,,66a63fd5eae42f430895d7bf,66dafa53e232ed557fef725a,2024-09-06_14h49.40.751,mdp,2024.2.1,Win32,144.5086705,66d7945b1baad48e845df3ce,,,,,,,,,,,,,,,,,,,,,878.356,878.356,878.357,879.145,0,1,left,0.284,,879.146,879.941,0,0,left,879.942,880.821,0,0,left,1,880.821,880.821,880.822,882.316,0,19,19,19,1,0.6,0.4,0.2,0.8,,,,,,,,,,,,,,,0.282,,0.8,0.2,0.4,0.6,0.8,0.2,0.8,0.2,,,0.37,,0.4,0.6,0.8,0.2,0.6,0.4,0.8,0.2,1,0
,,66a63fd5eae42f430895d7bf,66dafa53e232ed557fef725a,2024-09-06_14h49.40.751,mdp,2024.2.1,Win32,144.5086705,66d7945b1baad48e845df3ce,,,,,,,,,,,,,,,,,,,,,882.317,882.317,882.318,887.218,0,1,left,4.389,,887.219,888.209,0,0,left,888.21,889.061,0,1,left,0,889.061,889.061,889.065,890.556,0,20,20,20,1,0.6,0.4,0.2,0.8,,,,,,,,,,,,,,,0.477,,0.2,0.8,0.6,0.4,0.8,0.2,0.8,0.2,,,0.337,,0.4,0.6,0.8,0.2,0.6,0.4,0.8,0.2,1,0
,,66a63fd5eae42f430895d7bf,66dafa53e232ed557fef725a,2024-09-06_14h49.40.751,mdp,2024.2.1,Win32,144.5086705,66d7945b1baad48e845df3ce,,,,,,,,,,,,,,,,,,,,,890.557,890.557,890.557,891.131,0,0,left,0.062,,891.133,891.933,0,1,left,891.934,892.675,1,0,right,1,892.676,892.676,892.676,894.178,0,21,21,21,1,0.6,0.4,0.2,0.8,,,,,,,,,,,,,,,0.291,,0.2,0.8,0.6,0.4,0.8,0.2,0.8,0.2,,,0.227,,0.2,0.8,0.6,0.4,0.6,0.4,0.8,0.2,1,0
,,66a63fd5eae42f430895d7bf,66dafa53e232ed557fef725a,2024-09-06_14h49.40.751,mdp,2024.2.1,Win32,144.5086705,66d7945b1baad48e845df3ce,,,,,,,,,,,,,,,,,,,,,894.178,894.178,894.179,894.822,0,1,left,0.131,,894.823,895.703,0,0,left,895.704,896.423,1,1,right,0,896.423,896.423,896.425,897.924,0,22,22,22,1,0.6,0.4,0.2,0.8,,,,,,,,,,,,,,,0.361,,0.2,0.8,0.6,0.4,0.8,0.2,0.8,0.2,,,0.206,,0.2,0.8,0.6,0.4,0.6,0.4,0.8,0.2,1,0
,,66a63fd5eae42f430895d7bf,66dafa53e232ed557fef725a,2024-09-06_14h49.40.751,mdp,2024.2.1,Win32,144.5086705,66d7945b1baad48e845df3ce,,,,,,,,,,,,,,,,,,,,,897.925,897.925,897.926,898.81,1,1,right,0.374,,898.811,900.167,0,0,left,900.167,901.573,1,0,right,1,901.573,901.573,901.573,903.068,0,23,23,23,1,0.6,0.4,0.2,0.8,,,,,,,,,,,,,,,0.848,,0.2,0.8,0.6,0.4,0.8,0.2,0.8,0.2,,,0.892,,0.2,0.8,0.6,0.4,0.4,0.6,0.6,0.4,1,0
,,66a63fd5eae42f430895d7bf,66dafa53e232ed557fef725a,2024-09-06_14h49.40.751,mdp,2024.2.1,Win32,144.5086705,66d7945b1baad48e845df3ce,,,,,,,,,,,,,,,,,,,,,903.068,903.068,903.069,904.896,1,1,right,1.315,,904.898,905.859,0,0,left,905.859,907.015,0,1,left,0,907.015,907.015,907.015,908.51,0,24,24,24,1,0.6,0.4,0.2,0.8,,,,,,,,,,,,,,,0.45,,0.2,0.8,0.6,0.4,0.8,0.2,0.8,0.2,,,0.646,,0.2,0.8,0.6,0.4,0.4,0.6,0.6,0.4,1,0
,,66a63fd5eae42f430895d7bf,66dafa53e232ed557fef725a,2024-09-06_14h49.40.751,mdp,2024.2.1,Win32,144.5086705,66d7945b1baad48e845df3ce,,,,,,,,,,,,,,,,,,,,,908.51,908.51,908.511,909.417,0,0,left,0.4,,909.418,910.242,0,1,left,910.242,910.962,0,1,left,0,910.962,910.962,910.962,912.457,0,25,25,25,1,0.6,0.4,0.2,0.8,,,,,,,,,,,,,,,0.319,,0.4,0.6,0.8,0.2,0.8,0.2,0.8,0.2,,,0.205,,0.2,0.8,0.6,0.4,0.4,0.6,0.6,0.4,1,0
,,66a63fd5eae42f430895d7bf,66dafa53e232ed557fef725a,2024-09-06_14h49.40.751,mdp,2024.2.1,Win32,144.5086705,66d7945b1baad48e845df3ce,,,,,,,,,,,,,,,,,,,,,912.458,912.458,912.459,916.69,1,1,right,3.717,,916.691,917.561,1,0,right,917.561,918.606,1,1,right,0,918.606,918.606,918.607,920.104,0,26,26,26,1,0.6,0.4,0.2,0.8,,,,,,,,,,,,,,,0.358,,0.4,0.6,0.8,0.2,0.8,0.2,0.8,0.2,,,0.533,,0.2,0.8,0.6,0.4,0.4,0.6,0.6,0.4,1,0
,,66a63fd5eae42f430895d7bf,66dafa53e232ed557fef725a,2024-09-06_14h49.40.751,mdp,2024.2.1,Win32,144.5086705,66d7945b1baad48e845df3ce,,,,,,,,,,,,,,,,,,,,,920.104,920.104,920.104,922.042,0,1,left,1.429,,922.046,922.908,0,1,left,922.909,923.704,0,1,left,0,923.704,923.704,923.705,925.205,0,27,27,27,1,0.6,0.4,0.2,0.8,,,,,,,,,,,,,,,0.355,,0.4,0.6,0.8,0.2,0.8,0.2,0.8,0.2,,,0.283,,0.2,0.8,0.6,0.4,0.2,0.8,0.8,0.2,1,0
,,66a63fd5eae42f430895d7bf,66dafa53e232ed557fef725a,2024-09-06_14h49.40.751,mdp,2024.2.1,Win32,144.5086705,66d7945b1baad48e845df3ce,,,,,,,,,,,,,,,,,,,,,925.206,925.206,925.207,927.449,0,0,left,1.73,,927.45,928.611,0,0,left,928.612,929.452,0,1,left,0,929.452,929.452,929.452,930.947,0,28,28,28,1,0.6,0.4,0.2,0.8,,,,,,,,,,,,,,,0.651,,0.4,0.6,0.8,0.2,0.8,0.2,0.8,0.2,,,0.325,,0.2,0.8,0.6,0.4,0.2,0.8,0.8,0.2,1,0
,,66a63fd5eae42f430895d7bf,66dafa53e232ed557fef725a,2024-09-06_14h49.40.751,mdp,2024.2.1,Win32,144.5086705,66d7945b1baad48e845df3ce,,,,,,,,,,,,,,,,,,,,,930.947,930.947,930.948,931.866,1,1,right,0.41,,931.868,932.732,1,0,right,932.733,933.542,1,0,right,1,933.542,933.542,933.543,935.038,0,29,29,29,1,0.6,0.4,0.2,0.8,,,,,,,,,,,,,,,0.354,,0.4,0.6,0.8,0.2,0.8,0.2,0.8,0.2,,,0.299,,0.2,0.8,0.6,0.4,0.2,0.8,0.8,0.2,1,0
,,66a63fd5eae42f430895d7bf,66dafa53e232ed557fef725a,2024-09-06_14h49.40.751,mdp,2024.2.1,Win32,144.5086705,66d7945b1baad48e845df3ce,,,,,,,,,,,,,,,,,,,,,935.039,935.039,935.04,935.619,1,1,right,0.071,,935.62,936.498,1,0,right,936.499,937.309,1,1,right,0,937.309,937.309,937.31,938.804,0,30,30,30,1,0.6,0.4,0.2,0.8,,,,,,,,,,,,,,,0.366,,0.4,0.6,0.8,0.2,0.8,0.2,0.8,0.2,,,0.304,,0.2,0.8,0.6,0.4,0.2,0.8,0.8,0.2,1,0
,,66a63fd5eae42f430895d7bf,66dafa53e232ed557fef725a,2024-09-06_14h49.40.751,mdp,2024.2.1,Win32,144.5086705,66d7945b1baad48e845df3ce,,,,,,,,,,,,,,,,,,,,,938.805,938.805,938.807,939.863,1,1,right,0.547,,939.865,940.667,0,0,left,940.668,944.766,1,0,right,1,944.766,944.766,944.767,946.262,0,31,31,31,1,0.6,0.4,0.2,0.8,,,,,,,,,,,,,,,0.289,,0.4,0.6,0.8,0.2,0.8,0.2,0.8,0.2,,,3.587,,0.2,0.8,0.6,0.4,0.2,0.8,0.8,0.2,1,0
,,66a63fd5eae42f430895d7bf,66dafa53e232ed557fef725a,2024-09-06_14h49.40.751,mdp,2024.2.1,Win32,144.5086705,66d7945b1baad48e845df3ce,,,,,,,,,,,,,,,,,,,,,946.262,946.262,946.262,946.908,0,0,left,0.13,,946.909,948.201,0,1,left,948.202,949.17,1,0,right,1,949.17,949.17,949.17,950.666,0,32,32,32,1,0.6,0.4,0.2,0.8,,,,,,,,,,,,,,,0.782,,0.8,0.2,0.4,0.6,0.8,0.2,0.8,0.2,,,0.459,,0.2,0.8,0.6,0.4,0.2,0.8,0.8,0.2,1,0
,,66a63fd5eae42f430895d7bf,66dafa53e232ed557fef725a,2024-09-06_14h49.40.751,mdp,2024.2.1,Win32,144.5086705,66d7945b1baad48e845df3ce,,,,,,,,,,,,,,,,,,,,,950.666,950.666,950.667,951.268,0,0,left,0.092,,951.269,952.058,0,0,left,952.061,952.689,1,0,right,1,952.69,952.69,952.692,954.192,0,33,33,33,1,0.6,0.4,0.2,0.8,,,,,,,,,,,,,,,0.276,,0.8,0.2,0.4,0.6,0.8,0.2,0.8,0.2,,,0.114,,0.2,0.8,0.6,0.4,0.2,0.8,0.8,0.2,1,0
,,66a63fd5eae42f430895d7bf,66dafa53e232ed557fef725a,2024-09-06_14h49.40.751,mdp,2024.2.1,Win32,144.5086705,66d7945b1baad48e845df3ce,,,,,,,,,,,,,,,,,,,,,954.193,954.193,954.194,955.037,0,0,left,0.333,,955.038,955.721,0,0,left,955.722,956.254,1,0,right,1,956.254,956.254,956.255,957.75,0,34,34,34,1,0.6,0.4,0.2,0.8,,,,,,,,,,,,,,,0.173,,0.8,0.2,0.4,0.6,0.8,0.2,0.8,0.2,,,0.023,,0.2,0.8,0.6,0.4,0.2,0.8,0.8,0.2,1,0
,,66a63fd5eae42f430895d7bf,66dafa53e232ed557fef725a,2024-09-06_14h49.40.751,mdp,2024.2.1,Win32,144.5086705,66d7945b1baad48e845df3ce,,,,,,,,,,,,,,,,,,,,,957.75,957.75,957.751,958.594,0,1,left,0.333,,958.595,959.349,0,0,left,959.349,959.896,1,0,right,1,959.896,959.896,959.897,961.392,0,35,35,35,1,0.6,0.4,0.2,0.8,,,,,,,,,,,,,,,0.24,,0.2,0.8,0.8,0.2,0.8,0.2,0.8,0.2,,,0.038,,0.2,0.8,0.6,0.4,0.2,0.8,0.8,0.2,1,0
,,66a63fd5eae42f430895d7bf,66dafa53e232ed557fef725a,2024-09-06_14h49.40.751,mdp,2024.2.1,Win32,144.5086705,66d7945b1baad48e845df3ce,,,,,,,,,,,,,,,,,,,,,961.392,961.392,961.393,962.245,0,0,left,0.344,,962.246,963.033,0,1,left,963.033,963.814,1,0,right,1,963.814,963.814,963.815,965.314,0,36,36,36,1,0.6,0.4,0.2,0.8,,,,,,,,,,,,,,,0.275,,0.2,0.8,0.8,0.2,0.8,0.2,0.8,0.2,,,0.27,,0.2,0.8,0.6,0.4,0.2,0.8,0.8,0.2,1,0
,,66a63fd5eae42f430895d7bf,66dafa53e232ed557fef725a,2024-09-06_14h49.40.751,mdp,2024.2.1,Win32,144.5086705,66d7945b1baad48e845df3ce,,,,,,,,,,,,,,,,,,,,,965.315,965.315,965.316,966.523,0,1,left,0.698,,966.523,967.471,0,0,left,967.471,968.218,1,0,right,1,968.218,968.218,968.219,969.716,0,37,37,37,1,0.6,0.4,0.2,0.8,,,,,,,,,,,,,,,0.436,,0.2,0.8,0.8,0.2,0.8,0.2,0.8,0.2,,,0.231,,0.2,0.8,0.6,0.4,0.2,0.8,0.8,0.2,1,0
,,66a63fd5eae42f430895d7bf,66dafa53e232ed557fef725a,2024-09-06_14h49.40.751,mdp,2024.2.1,Win32,144.5086705,66d7945b1baad48e845df3ce,,,,,,,,,,,,,,,,,,,,,969.717,969.717,969.718,970.705,0,0,left,0.476,,970.705,971.48,0,1,left,971.481,972.215,1,0,right,1,972.215,972.215,972.216,973.716,0,38,38,38,1,0.6,0.4,0.2,0.8,,,,,,,,,,,,,,,0.264,,0.2,0.8,0.8,0.2,0.8,0.2,0.8,0.2,,,0.22,,0.2,0.8,0.6,0.4,0.2,0.8,0.8,0.2,1,0
,,66a63fd5eae42f430895d7bf,66dafa53e232ed557fef725a,2024-09-06_14h49.40.751,mdp,2024.2.1,Win32,144.5086705,66d7945b1baad48e845df3ce,,,,,,,,,,,,,,,,,,,,,973.717,973.717,973.718,974.679,0,1,left,0.451,,974.68,975.523,0,0,left,975.524,976.223,1,0,right,1,976.223,976.223,976.224,977.718,0,39,39,39,1,0.6,0.4,0.2,0.8,,,,,,,,,,,,,,,0.336,,0.2,0.8,0.8,0.2,0.8,0.2,0.8,0.2,,,0.186,,0.6,0.4,0.8,0.2,0.2,0.8,0.8,0.2,1,0
,,66a63fd5eae42f430895d7bf,66dafa53e232ed557fef725a,2024-09-06_14h49.40.751,mdp,2024.2.1,Win32,144.5086705,66d7945b1baad48e845df3ce,,,,,,,,,,,,,,,,,,,,,977.719,977.719,977.72,978.905,0,0,left,0.672,,978.906,979.618,0,0,left,979.619,980.302,1,0,right,1,980.302,980.302,980.303,981.804,0,40,40,40,1,0.6,0.4,0.2,0.8,,,,,,,,,,,,,,,0.2,,0.2,0.8,0.8,0.2,0.8,0.2,0.8,0.2,,,0.176,,0.6,0.4,0.8,0.2,0.2,0.8,0.8,0.2,1,0
,,66a63fd5eae42f430895d7bf,66dafa53e232ed557fef725a,2024-09-06_14h49.40.751,mdp,2024.2.1,Win32,144.5086705,66d7945b1baad48e845df3ce,,,,,,,,,,,,,,,,,,,,,981.804,981.804,981.805,982.58,0,0,left,0.263,,982.581,983.175,1,0,right,983.176,983.999,1,0,right,1,983.999,983.999,984.002,985.495,0,41,41,41,1,0.6,0.4,0.2,0.8,,,,,,,,,,,,,,,0.084,,0.2,0.8,0.8,0.2,0.8,0.2,0.8,0.2,,,0.312,,0.6,0.4,0.8,0.2,0.2,0.8,0.8,0.2,1,0
,,66a63fd5eae42f430895d7bf,66dafa53e232ed557fef725a,2024-09-06_14h49.40.751,mdp,2024.2.1,Win32,144.5086705,66d7945b1baad48e845df3ce,,,,,,,,,,,,,,,,,,,,,985.495,985.495,985.496,986.505,0,0,left,0.497,,986.506,987.296,0,0,left,987.296,987.934,1,1,right,0,987.934,987.934,987.935,989.434,0,42,42,42,1,0.6,0.4,0.2,0.8,,,,,,,,,,,,,,,0.278,,0.2,0.8,0.8,0.2,0.8,0.2,0.8,0.2,,,0.129,,0.8,0.2,0.4,0.6,0.2,0.8,0.8,0.2,1,0
,,66a63fd5eae42f430895d7bf,66dafa53e232ed557fef725a,2024-09-06_14h49.40.751,mdp,2024.2.1,Win32,144.5086705,66d7945b1baad48e845df3ce,,,,,,,,,,,,,,,,,,,,,989.434,989.434,989.435,990.21,0,0,left,0.265,,990.211,990.909,0,0,left,990.91,991.823,0,1,left,0,991.823,991.823,991.824,993.319,0,43,43,43,1,0.8,0.2,0.8,0.2,,,,,,,,,,,,,,,0.188,,0.2,0.8,0.8,0.2,0.8,0.2,0.8,0.2,,,0.402,,0.8,0.2,0.4,0.6,0.2,0.8,0.8,0.2,1,0
,,66a63fd5eae42f430895d7bf,66dafa53e232ed557fef725a,2024-09-06_14h49.40.751,mdp,2024.2.1,Win32,144.5086705,66d7945b1baad48e845df3ce,,,,,,,,,,,,,,,,,,,,,993.32,993.32,993.321,997.3,0,1,left,3.472,,997.301,998.172,0,0,left,998.173,999.025,1,0,right,1,999.025,999.025,999.026,1000.52,0,44,44,44,1,0.8,0.2,0.8,0.2,,,,,,,,,,,,,,,0.356,,0.2,0.8,0.8,0.2,0.8,0.2,0.8,0.2,,,0.341,,0.8,0.2,0.4,0.6,0.2,0.8,0.8,0.2,1,0
,,66a63fd5eae42f430895d7bf,66dafa53e232ed557fef725a,2024-09-06_14h49.40.751,mdp,2024.2.1,Win32,144.5086705,66d7945b1baad48e845df3ce,,,,,,,,,,,,,,,,,,,,,1000.52,1000.52,1000.521,1006.426,0,0,left,5.395,,1006.427,1007.396,0,1,left,1007.396,1008.269,1,0,right,1,1008.269,1008.269,1008.269,1009.764,0,45,45,45,1,0.8,0.2,0.8,0.2,,,,,,,,,,,,,,,0.456,,0.2,0.8,0.8,0.2,0.8,0.2,0.8,0.2,,,0.359,,0.8,0.2,0.4,0.6,0.2,0.8,0.8,0.2,1,0
,,66a63fd5eae42f430895d7bf,66dafa53e232ed557fef725a,2024-09-06_14h49.40.751,mdp,2024.2.1,Win32,144.5086705,66d7945b1baad48e845df3ce,,,,,,,,,,,,,,,,,,,,,1009.765,1009.765,1009.765,1011.619,0,1,left,1.345,,1011.62,1012.485,0,0,left,1012.486,1013.164,1,1,right,0,1013.164,1013.164,1013.164,1014.659,0,46,46,46,1,0.8,0.2,0.8,0.2,,,,,,,,,,,,,,,0.353,,0.2,0.8,0.8,0.2,0.8,0.2,0.8,0.2,,,0.167,,0.8,0.2,0.4,0.6,0.2,0.8,0.8,0.2,1,0
,,66a63fd5eae42f430895d7bf,66dafa53e232ed557fef725a,2024-09-06_14h49.40.751,mdp,2024.2.1,Win32,144.5086705,66d7945b1baad48e845df3ce,,,,,,,,,,,,,,,,,,,,,1014.66,1014.66,1014.661,1019.133,0,0,left,3.962,,1019.137,1019.915,0,1,left,1019.916,1020.649,1,0,right,1,1020.649,1020.649,1020.649,1022.144,0,47,47,47,1,0.6,0.4,0.4,0.6,,,,,,,,,,,,,,,0.265,,0.2,0.8,0.8,0.2,0.8,0.2,0.8,0.2,,,0.219,,0.8,0.2,0.4,0.6,0.2,0.8,0.8,0.2,1,0
,,66a63fd5eae42f430895d7bf,66dafa53e232ed557fef725a,2024-09-06_14h49.40.751,mdp,2024.2.1,Win32,144.5086705,66d7945b1baad48e845df3ce,,,,,,,,,,,,,,,,,,,,,1022.145,1022.145,1022.146,1025.177,0,0,left,2.52,,1025.178,1026.216,0,1,left,1026.217,1027.054,1,0,right,1,1027.054,1027.054,1027.055,1028.55,0,48,48,48,1,0.6,0.4,0.4,0.6,,,,,,,,,,,,,,,0.526,,0.2,0.8,0.8,0.2,0.8,0.2,0.8,0.2,,,0.328,,0.8,0.2,0.4,0.6,0.2,0.8,0.8,0.2,1,0
,,66a63fd5eae42f430895d7bf,66dafa53e232ed557fef725a,2024-09-06_14h49.40.751,mdp,2024.2.1,Win32,144.5086705,66d7945b1baad48e845df3ce,,,,,,,,,,,,,,,,,,,,,1028.55,1028.55,1028.553,1030.232,0,0,left,1.169,,1030.233,1031.036,0,1,left,1031.037,1031.72,1,0,right,1,1031.72,1031.72,1031.721,1033.217,0,49,49,49,1,0.6,0.4,0.4,0.6,,,,,,,,,,,,,,,0.291,,0.2,0.8,0.8,0.2,0.8,0.2,0.8,0.2,,,0.176,,0.8,0.2,0.4,0.6,0.2,0.8,0.8,0.2,1,0
,,66a63fd5eae42f430895d7bf,66dafa53e232ed557fef725a,2024-09-06_14h49.40.751,mdp,2024.2.1,Win32,144.5086705,66d7945b1baad48e845df3ce,,,,,,,,,,,,,,,,,,,,,,,,,,,,,,,,,,,,,,,,,,,,,,,,,,,,,,,,1033.217,1091.727,0,2,2,5,1,imgs/dog.png,imgs/pig.png,imgs/cat.png,imgs/squirrel.png,imgs/goat.png,,,,,,,,,,,,,,,,,,,,,,,,
,,66a63fd5eae42f430895d7bf,66dafa53e232ed557fef725a,2024-09-06_14h49.40.751,mdp,2024.2.1,Win32,144.5086705,66d7945b1baad48e845df3ce,,,,,,,,,,,,,,3,seqs/st3seq15.csv,1091.729,1093.548,space,1.31,,1093.553,1093.553,1093.557,1094.884,0,1,left,0.821,,1094.885,1095.756,0,1,left,1095.758,1096.615,0,0,left,1,1096.615,1096.615,1096.616,1098.111,0,0,0,0,1,0.2,0.8,0.6,0.4,,,,,,,,,,,,,,,0.352,,0.2,0.8,0.8,0.2,0.2,0.8,0.8,0.2,,,0.341,,0.8,0.2,0.2,0.8,0.8,0.2,0.2,0.8,1,0
,,66a63fd5eae42f430895d7bf,66dafa53e232ed557fef725a,2024-09-06_14h49.40.751,mdp,2024.2.1,Win32,144.5086705,66d7945b1baad48e845df3ce,,,,,,,,,,,,,,,,,,,,,1098.111,1098.111,1098.111,1102.285,0,0,left,3.663,,1102.287,1104.259,0,1,left,1104.259,1105.312,0,0,left,1,1105.312,1105.312,1105.314,1106.81,0,1,1,1,1,0.2,0.8,0.6,0.4,,,,,,,,,,,,,,,1.463,,0.2,0.8,0.8,0.2,0.2,0.8,0.8,0.2,,,0.538,,0.8,0.2,0.2,0.8,0.8,0.2,0.2,0.8,1,0
,,66a63fd5eae42f430895d7bf,66dafa53e232ed557fef725a,2024-09-06_14h49.40.751,mdp,2024.2.1,Win32,144.5086705,66d7945b1baad48e845df3ce,,,,,,,,,,,,,,,,,,,,,1106.81,1106.81,1106.811,1109.84,0,1,left,2.52,,1109.845,1110.693,0,1,left,1110.695,1111.448,0,0,left,1,1111.448,1111.448,1111.449,1112.949,0,2,2,2,1,0.2,0.8,0.6,0.4,,,,,,,,,,,,,,,0.338,,0.2,0.8,0.8,0.2,0.2,0.8,0.8,0.2,,,0.241,,0.8,0.2,0.2,0.8,0.8,0.2,0.2,0.8,1,0
,,66a63fd5eae42f430895d7bf,66dafa53e232ed557fef725a,2024-09-06_14h49.40.751,mdp,2024.2.1,Win32,144.5086705,66d7945b1baad48e845df3ce,,,,,,,,,,,,,,,,,,,,,1112.949,1112.95,1112.952,1113.788,0,1,left,0.326,,1113.789,1114.495,0,0,left,1114.495,1115.248,0,0,left,1,1115.248,1115.248,1115.249,1116.743,0,3,3,3,1,0.2,0.8,0.6,0.4,,,,,,,,,,,,,,,0.195,,0.2,0.8,0.8,0.2,0.8,0.2,0.6,0.4,,,0.238,,0.8,0.2,0.2,0.8,0.8,0.2,0.2,0.8,1,0
,,66a63fd5eae42f430895d7bf,66dafa53e232ed557fef725a,2024-09-06_14h49.40.751,mdp,2024.2.1,Win32,144.5086705,66d7945b1baad48e845df3ce,,,,,,,,,,,,,,,,,,,,,1116.744,1116.744,1116.745,1117.665,0,1,left,0.411,,1117.666,1118.42,0,0,left,1118.421,1119.146,0,0,left,1,1119.147,1119.147,1119.147,1120.643,0,4,4,4,1,0.2,0.8,0.6,0.4,,,,,,,,,,,,,,,0.242,,0.2,0.8,0.8,0.2,0.8,0.2,0.6,0.4,,,0.215,,0.8,0.2,0.2,0.8,0.8,0.2,0.2,0.8,1,0
,,66a63fd5eae42f430895d7bf,66dafa53e232ed557fef725a,2024-09-06_14h49.40.751,mdp,2024.2.1,Win32,144.5086705,66d7945b1baad48e845df3ce,,,,,,,,,,,,,,,,,,,,,1120.644,1120.644,1120.644,1121.149,0,0,left,0.003,,1121.149,1121.909,0,1,left,1121.91,1122.86,0,0,left,1,1122.86,1122.86,1122.86,1124.36,0,5,5,5,1,0.2,0.8,0.6,0.4,,,,,,,,,,,,,,,0.247,,0.2,0.8,0.8,0.2,0.8,0.2,0.6,0.4,,,0.437,,0.8,0.2,0.2,0.8,0.2,0.8,0.8,0.2,1,0
,,66a63fd5eae42f430895d7bf,66dafa53e232ed557fef725a,2024-09-06_14h49.40.751,mdp,2024.2.1,Win32,144.5086705,66d7945b1baad48e845df3ce,,,,,,,,,,,,,,,,,,,,,1124.361,1124.361,1124.362,1126.41,0,1,left,1.543,,1126.411,1127.192,0,0,left,1127.193,1128.002,0,0,left,1,1128.002,1128.002,1128.003,1129.504,0,6,6,6,1,0.8,0.2,0.2,0.8,,,,,,,,,,,,,,,0.27,,0.2,0.8,0.8,0.2,0.8,0.2,0.6,0.4,,,0.296,,0.8,0.2,0.2,0.8,0.2,0.8,0.8,0.2,1,0
,,66a63fd5eae42f430895d7bf,66dafa53e232ed557fef725a,2024-09-06_14h49.40.751,mdp,2024.2.1,Win32,144.5086705,66d7945b1baad48e845df3ce,,,,,,,,,,,,,,,,,,,,,1129.505,1129.505,1129.506,1130.28,0,0,left,0.264,,1130.281,1131.056,0,1,left,1131.057,1131.79,0,1,left,0,1131.79,1131.79,1131.791,1133.286,0,7,7,7,1,0.8,0.2,0.2,0.8,,,,,,,,,,,,,,,0.262,,0.2,0.8,0.8,0.2,0.8,0.2,0.6,0.4,,,0.22,,0.8,0.2,0.2,0.8,0.2,0.8,0.8,0.2,1,0
,,66a63fd5eae42f430895d7bf,66dafa53e232ed557fef725a,2024-09-06_14h49.40.751,mdp,2024.2.1,Win32,144.5086705,66d7945b1baad48e845df3ce,,,,,,,,,,,,,,,,,,,,,1133.286,1133.286,1133.287,1134.199,0,1,left,0.403,,1134.2,1134.954,0,1,left,1134.955,1135.806,0,1,left,0,1135.806,1135.806,1135.807,1137.304,0,8,8,8,1,0.4,0.6,0.6,0.4,,,,,,,,,,,,,,,0.239,,0.2,0.8,0.8,0.2,0.8,0.2,0.6,0.4,,,0.344,,0.8,0.2,0.2,0.8,0.2,0.8,0.8,0.2,1,0
,,66a63fd5eae42f430895d7bf,66dafa53e232ed557fef725a,2024-09-06_14h49.40.751,mdp,2024.2.1,Win32,144.5086705,66d7945b1baad48e845df3ce,,,,,,,,,,,,,,,,,,,,,1137.305,1137.305,1137.306,1138.727,0,1,left,0.913,,1138.728,1139.449,0,0,left,1139.453,1140.112,0,1,left,0,1140.113,1140.113,1140.114,1141.609,0,9,9,9,1,0.4,0.6,0.6,0.4,,,,,,,,,,,,,,,0.214,,0.2,0.8,0.8,0.2,0.8,0.2,0.6,0.4,,,0.15,,0.8,0.2,0.2,0.8,0.2,0.8,0.8,0.2,1,0
,,66a63fd5eae42f430895d7bf,66dafa53e232ed557fef725a,2024-09-06_14h49.40.751,mdp,2024.2.1,Win32,144.5086705,66d7945b1baad48e845df3ce,,,,,,,,,,,,,,,,,,,,,1141.609,1141.609,1141.61,1142.468,0,0,left,0.344,,1142.469,1143.242,0,1,left,1143.243,1143.949,1,0,right,1,1143.949,1143.949,1143.95,1145.445,0,10,10,10,1,0.4,0.6,0.6,0.4,,,,,,,,,,,,,,,0.262,,0.2,0.8,0.8,0.2,0.8,0.2,0.6,0.4,,,0.193,,0.8,0.2,0.2,0.8,0.2,0.8,0.8,0.2,1,0
,,66a63fd5eae42f430895d7bf,66dafa53e232ed557fef725a,2024-09-06_14h49.40.751,mdp,2024.2.1,Win32,144.5086705,66d7945b1baad48e845df3ce,,,,,,,,,,,,,,,,,,,,,1145.445,1145.445,1145.445,1146.382,0,0,left,0.422,,1146.383,1147.466,0,1,left,1147.467,1148.38,1,0,right,1,1148.38,1148.38,1148.381,1149.876,0,11,11,11,1,0.4,0.6,0.6,0.4,,,,,,,,,,,,,,,0.576,,0.2,0.8,0.8,0.2,0.8,0.2,0.6,0.4,,,0.408,,0.8,0.2,0.2,0.8,0.2,0.8,0.8,0.2,1,0
,,66a63fd5eae42f430895d7bf,66dafa53e232ed557fef725a,2024-09-06_14h49.40.751,mdp,2024.2.1,Win32,144.5086705,66d7945b1baad48e845df3ce,,,,,,,,,,,,,,,,,,,,,1149.876,1149.876,1149.877,1150.659,0,1,left,0.272,,1150.66,1151.448,0,0,left,1151.449,1152.23,1,0,right,1,1152.23,1152.23,1152.231,1153.727,0,12,12,12,1,0.4,0.6,0.6,0.4,,,,,,,,,,,,,,,0.277,,0.2,0.8,0.8,0.2,0.8,0.2,0.6,0.4,,,0.269,,0.8,0.2,0.2,0.8,0.2,0.8,0.8,0.2,1,0
,,66a63fd5eae42f430895d7bf,66dafa53e232ed557fef725a,2024-09-06_14h49.40.751,mdp,2024.2.1,Win32,144.5086705,66d7945b1baad48e845df3ce,,,,,,,,,,,,,,,,,,,,,1153.727,1153.727,1153.728,1154.536,0,1,left,0.3,,1154.537,1155.466,0,0,left,1155.467,1156.396,1,1,right,0,1156.396,1156.396,1156.396,1157.894,0,13,13,13,1,0.4,0.6,0.6,0.4,,,,,,,,,,,,,,,0.416,,0.2,0.8,0.8,0.2,0.8,0.2,0.6,0.4,,,0.419,,0.8,0.2,0.2,0.8,0.2,0.8,0.8,0.2,1,0
,,66a63fd5eae42f430895d7bf,66dafa53e232ed557fef725a,2024-09-06_14h49.40.751,mdp,2024.2.1,Win32,144.5086705,66d7945b1baad48e845df3ce,,,,,,,,,,,,,,,,,,,,,1157.894,1157.894,1157.895,1158.884,0,0,left,0.479,,1158.885,1159.777,0,0,left,1159.779,1160.726,1,1,right,0,1160.727,1160.727,1160.728,1162.222,0,14,14,14,1,0.4,0.6,0.6,0.4,,,,,,,,,,,,,,,0.382,,0.2,0.8,0.8,0.2,0.8,0.2,0.6,0.4,,,0.439,,0.8,0.2,0.2,0.8,0.2,0.8,0.8,0.2,1,0
,,66a63fd5eae42f430895d7bf,66dafa53e232ed557fef725a,2024-09-06_14h49.40.751,mdp,2024.2.1,Win32,144.5086705,66d7945b1baad48e845df3ce,,,,,,,,,,,,,,,,,,,,,1162.222,1162.222,1162.223,1163.663,0,1,left,0.929,,1163.664,1164.424,0,0,left,1164.425,1165.171,1,1,right,0,1165.172,1165.172,1165.172,1166.667,0,15,15,15,1,0.4,0.6,0.6,0.4,,,,,,,,,,,,,,,0.248,,0.2,0.8,0.8,0.2,0.6,0.4,0.4,0.6,,,0.237,,0.8,0.2,0.2,0.8,0.2,0.8,0.8,0.2,1,0
,,66a63fd5eae42f430895d7bf,66dafa53e232ed557fef725a,2024-09-06_14h49.40.751,mdp,2024.2.1,Win32,144.5086705,66d7945b1baad48e845df3ce,,,,,,,,,,,,,,,,,,,,,1166.668,1166.668,1166.669,1167.444,0,1,left,0.266,,1167.445,1168.254,1,1,right,1168.254,1169.083,0,0,left,1,1169.083,1169.083,1169.085,1170.579,0,16,16,16,1,0.4,0.6,0.6,0.4,,,,,,,,,,,,,,,0.302,,0.2,0.8,0.8,0.2,0.6,0.4,0.4,0.6,,,0.313,,0.8,0.2,0.2,0.8,0.2,0.8,0.8,0.2,1,0
,,66a63fd5eae42f430895d7bf,66dafa53e232ed557fef725a,2024-09-06_14h49.40.751,mdp,2024.2.1,Win32,144.5086705,66d7945b1baad48e845df3ce,,,,,,,,,,,,,,,,,,,,,1170.581,1170.581,1170.585,1171.418,0,1,left,0.325,,1171.419,1172.2,1,1,right,1172.201,1172.948,0,1,left,0,1172.948,1172.948,1172.949,1174.445,0,17,17,17,1,0.4,0.6,0.6,0.4,,,,,,,,,,,,,,,0.27,,0.2,0.8,0.8,0.2,0.6,0.4,0.4,0.6,,,0.236,,0.8,0.2,0.2,0.8,0.2,0.8,0.8,0.2,1,0
,,66a63fd5eae42f430895d7bf,66dafa53e232ed557fef725a,2024-09-06_14h49.40.751,mdp,2024.2.1,Win32,144.5086705,66d7945b1baad48e845df3ce,,,,,,,,,,,,,,,,,,,,,1174.445,1174.445,1174.447,1175.198,0,1,left,0.242,,1175.199,1175.932,1,1,right,1175.933,1176.776,1,0,right,1,1176.777,1176.777,1176.778,1178.272,0,18,18,18,1,0.4,0.6,0.6,0.4,,,,,,,,,,,,,,,0.224,,0.2,0.8,0.8,0.2,0.6,0.4,0.4,0.6,,,0.337,,0.8,0.2,0.2,0.8,0.2,0.8,0.8,0.2,1,0
,,66a63fd5eae42f430895d7bf,66dafa53e232ed557fef725a,2024-09-06_14h49.40.751,mdp,2024.2.1,Win32,144.5086705,66d7945b1baad48e845df3ce,,,,,,,,,,,,,,,,,,,,,1178.272,1178.272,1178.274,1179.124,0,1,left,0.345,,1179.126,1179.969,1,0,right,1179.971,1180.841,1,1,right,0,1180.842,1180.842,1180.842,1182.344,0,19,19,19,1,0.4,0.6,0.6,0.4,,,,,,,,,,,,,,,0.332,,0.2,0.8,0.8,0.2,0.6,0.4,0.4,0.6,,,0.357,,0.8,0.2,0.2,0.8,0.2,0.8,0.8,0.2,1,0
,,66a63fd5eae42f430895d7bf,66dafa53e232ed557fef725a,2024-09-06_14h49.40.751,mdp,2024.2.1,Win32,144.5086705,66d7945b1baad48e845df3ce,,,,,,,,,,,,,,,,,,,,,1182.344,1182.344,1182.345,1183.383,0,1,left,0.529,,1183.384,1184.199,0,0,left,1184.2,1185.127,0,0,left,1,1185.127,1185.128,1185.128,1186.631,0,20,20,20,1,0.4,0.6,0.6,0.4,,,,,,,,,,,,,,,0.308,,0.8,0.2,0.2,0.8,0.6,0.4,0.4,0.6,,,0.417,,0.8,0.2,0.2,0.8,0.2,0.8,0.8,0.2,1,0
,,66a63fd5eae42f430895d7bf,66dafa53e232ed557fef725a,2024-09-06_14h49.40.751,mdp,2024.2.1,Win32,144.5086705,66d7945b1baad48e845df3ce,,,,,,,,,,,,,,,,,,,,,1186.632,1186.632,1186.634,1187.481,0,0,left,0.341,,1187.482,1188.322,1,1,right,1188.323,1189.019,0,1,left,0,1189.019,1189.019,1189.02,1190.517,0,21,21,21,1,0.4,0.6,0.6,0.4,,,,,,,,,,,,,,,0.327,,0.8,0.2,0.2,0.8,0.6,0.4,0.4,0.6,,,0.187,,0.8,0.2,0.2,0.8,0.2,0.8,0.8,0.2,1,0
,,66a63fd5eae42f430895d7bf,66dafa53e232ed557fef725a,2024-09-06_14h49.40.751,mdp,2024.2.1,Win32,144.5086705,66d7945b1baad48e845df3ce,,,,,,,,,,,,,,,,,,,,,1190.517,1190.518,1190.519,1191.47,1,0,right,0.444,,1191.471,1192.33,1,1,right,1192.331,1192.994,0,1,left,0,1192.994,1192.994,1192.995,1194.489,0,22,22,22,1,0.4,0.6,0.6,0.4,,,,,,,,,,,,,,,0.349,,0.8,0.2,0.2,0.8,0.6,0.4,0.4,0.6,,,0.153,,0.8,0.2,0.2,0.8,0.2,0.8,0.8,0.2,1,0
,,66a63fd5eae42f430895d7bf,66dafa53e232ed557fef725a,2024-09-06_14h49.40.751,mdp,2024.2.1,Win32,144.5086705,66d7945b1baad48e845df3ce,,,,,,,,,,,,,,,,,,,,,1194.489,1194.489,1194.49,1195.306,1,0,right,0.305,,1195.307,1196.146,0,0,left,1196.149,1196.933,1,1,right,0,1196.933,1196.933,1196.934,1198.429,0,23,23,23,1,0.4,0.6,0.6,0.4,,,,,,,,,,,,,,,0.327,,0.8,0.2,0.2,0.8,0.6,0.4,0.4,0.6,,,0.277,,0.8,0.2,0.2,0.8,0.2,0.8,0.8,0.2,1,0
,,66a63fd5eae42f430895d7bf,66dafa53e232ed557fef725a,2024-09-06_14h49.40.751,mdp,2024.2.1,Win32,144.5086705,66d7945b1baad48e845df3ce,,,,,,,,,,,,,,,,,,,,,1198.43,1198.43,1198.431,1199.413,1,0,right,0.473,,1199.413,1200.194,1,1,right,1200.195,1200.937,0,1,left,0,1200.937,1200.937,1200.941,1202.44,0,24,24,24,1,0.4,0.6,0.6,0.4,,,,,,,,,,,,,,,0.27,,0.8,0.2,0.2,0.8,0.6,0.4,0.4,0.6,,,0.23,,0.8,0.2,0.2,0.8,0.2,0.8,0.8,0.2,1,0
,,66a63fd5eae42f430895d7bf,66dafa53e232ed557fef725a,2024-09-06_14h49.40.751,mdp,2024.2.1,Win32,144.5086705,66d7945b1baad48e845df3ce,,,,,,,,,,,,,,,,,,,,,1202.441,1202.441,1202.442,1204.406,1,0,right,1.456,,1204.406,1205.153,1,1,right,1205.154,1205.826,1,0,right,1,1205.826,1205.826,1205.827,1207.328,0,25,25,25,1,0.4,0.6,0.6,0.4,,,,,,,,,,,,,,,0.235,,0.8,0.2,0.2,0.8,0.6,0.4,0.4,0.6,,,0.16,,0.4,0.6,0.8,0.2,0.2,0.8,0.8,0.2,1,0
,,66a63fd5eae42f430895d7bf,66dafa53e232ed557fef725a,2024-09-06_14h49.40.751,mdp,2024.2.1,Win32,144.5086705,66d7945b1baad48e845df3ce,,,,,,,,,,,,,,,,,,,,,1207.329,1207.329,1207.33,1208.643,1,0,right,0.807,,1208.644,1209.475,1,1,right,1209.477,1210.228,1,0,right,1,1210.228,1210.228,1210.229,1211.723,0,26,26,26,1,0.4,0.6,0.6,0.4,,,,,,,,,,,,,,,0.324,,0.8,0.2,0.2,0.8,0.6,0.4,0.4,0.6,,,0.244,,0.4,0.6,0.8,0.2,0.2,0.8,0.8,0.2,1,0
,,66a63fd5eae42f430895d7bf,66dafa53e232ed557fef725a,2024-09-06_14h49.40.751,mdp,2024.2.1,Win32,144.5086705,66d7945b1baad48e845df3ce,,,,,,,,,,,,,,,,,,,,,1211.723,1211.723,1211.724,1213.154,1,1,right,0.921,,1213.155,1213.967,1,1,right,1213.968,1214.845,1,0,right,1,1214.846,1214.846,1214.846,1216.341,0,27,27,27,1,0.4,0.6,0.6,0.4,,,,,,,,,,,,,,,0.303,,0.8,0.2,0.2,0.8,0.6,0.4,0.4,0.6,,,0.369,,0.4,0.6,0.8,0.2,0.2,0.8,0.8,0.2,1,0
,,66a63fd5eae42f430895d7bf,66dafa53e232ed557fef725a,2024-09-06_14h49.40.751,mdp,2024.2.1,Win32,144.5086705,66d7945b1baad48e845df3ce,,,,,,,,,,,,,,,,,,,,,1216.342,1216.342,1216.343,1216.854,1,0,right,0,,1216.855,1217.775,1,1,right,1217.776,1218.58,1,0,right,1,1218.581,1218.581,1218.582,1220.081,0,28,28,28,1,0.4,0.6,0.6,0.4,,,,,,,,,,,,,,,0.411,,0.8,0.2,0.2,0.8,0.6,0.4,0.4,0.6,,,0.291,,0.4,0.6,0.8,0.2,0.2,0.8,0.8,0.2,1,0
,,66a63fd5eae42f430895d7bf,66dafa53e232ed557fef725a,2024-09-06_14h49.40.751,mdp,2024.2.1,Win32,144.5086705,66d7945b1baad48e845df3ce,,,,,,,,,,,,,,,,,,,,,1220.082,1220.082,1220.083,1221.715,1,0,right,1.124,,1221.716,1222.603,1,1,right,1222.604,1223.765,1,0,right,1,1223.765,1223.765,1223.766,1225.26,0,29,29,29,1,0.4,0.6,0.6,0.4,,,,,,,,,,,,,,,0.38,,0.8,0.2,0.2,0.8,0.6,0.4,0.4,0.6,,,0.652,,0.4,0.6,0.8,0.2,0.2,0.8,0.8,0.2,1,0
,,66a63fd5eae42f430895d7bf,66dafa53e232ed557fef725a,2024-09-06_14h49.40.751,mdp,2024.2.1,Win32,144.5086705,66d7945b1baad48e845df3ce,,,,,,,,,,,,,,,,,,,,,1225.26,1225.26,1225.261,1226.257,1,0,right,0.486,,1226.258,1227.275,1,1,right,1227.276,1228.21,1,0,right,1,1228.21,1228.21,1228.211,1229.705,0,30,30,30,1,0.4,0.6,0.6,0.4,,,,,,,,,,,,,,,0.507,,0.8,0.2,0.2,0.8,0.6,0.4,0.4,0.6,,,0.421,,0.4,0.6,0.8,0.2,0.2,0.8,0.8,0.2,1,0
,,66a63fd5eae42f430895d7bf,66dafa53e232ed557fef725a,2024-09-06_14h49.40.751,mdp,2024.2.1,Win32,144.5086705,66d7945b1baad48e845df3ce,,,,,,,,,,,,,,,,,,,,,1229.705,1229.705,1229.706,1233.757,1,1,right,3.537,,1233.761,1235.37,1,0,right,1235.371,1236.319,1,0,right,1,1236.319,1236.319,1236.319,1237.821,0,31,31,31,1,0.4,0.6,0.6,0.4,,,,,,,,,,,,,,,1.098,,0.8,0.2,0.2,0.8,0.2,0.8,0.8,0.2,,,0.443,,0.4,0.6,0.8,0.2,0.2,0.8,0.8,0.2,1,0
,,66a63fd5eae42f430895d7bf,66dafa53e232ed557fef725a,2024-09-06_14h49.40.751,mdp,2024.2.1,Win32,144.5086705,66d7945b1baad48e845df3ce,,,,,,,,,,,,,,,,,,,,,1237.822,1237.822,1237.823,1238.923,1,0,right,0.589,,1238.924,1240.057,1,1,right,1240.058,1241.117,1,1,right,0,1241.118,1241.118,1241.118,1242.619,0,32,32,32,1,0.4,0.6,0.6,0.4,,,,,,,,,,,,,,,0.622,,0.8,0.2,0.2,0.8,0.2,0.8,0.8,0.2,,,0.546,,0.4,0.6,0.8,0.2,0.2,0.8,0.8,0.2,1,0
,,66a63fd5eae42f430895d7bf,66dafa53e232ed557fef725a,2024-09-06_14h49.40.751,mdp,2024.2.1,Win32,144.5086705,66d7945b1baad48e845df3ce,,,,,,,,,,,,,,,,,,,,,1242.619,1242.619,1242.62,1244.779,1,1,right,1.648,,1244.781,1245.624,1,0,right,1245.625,1247.266,1,1,right,0,1247.266,1247.266,1247.267,1248.761,0,33,33,33,1,0.4,0.6,0.6,0.4,,,,,,,,,,,,,,,0.34,,0.8,0.2,0.2,0.8,0.2,0.8,0.8,0.2,,,1.127,,0.4,0.6,0.8,0.2,0.2,0.8,0.8,0.2,1,0
,,66a63fd5eae42f430895d7bf,66dafa53e232ed557fef725a,2024-09-06_14h49.40.751,mdp,2024.2.1,Win32,144.5086705,66d7945b1baad48e845df3ce,,,,,,,,,,,,,,,,,,,,,1248.761,1248.761,1248.762,1249.55,1,0,right,0.279,,1249.551,1250.401,1,0,right,1250.402,1251.212,0,1,left,0,1251.212,1251.212,1251.213,1252.708,0,34,34,34,1,0.4,0.6,0.6,0.4,,,,,,,,,,,,,,,0.343,,0.8,0.2,0.2,0.8,0.2,0.8,0.8,0.2,,,0.299,,0.4,0.6,0.8,0.2,0.2,0.8,0.8,0.2,1,0
,,66a63fd5eae42f430895d7bf,66dafa53e232ed557fef725a,2024-09-06_14h49.40.751,mdp,2024.2.1,Win32,144.5086705,66d7945b1baad48e845df3ce,,,,,,,,,,,,,,,,,,,,,1252.708,1252.708,1252.709,1253.532,0,1,left,0.321,,1253.532,1254.563,0,1,left,1254.565,1255.311,0,1,left,0,1255.312,1255.312,1255.312,1256.814,0,35,35,35,1,0.4,0.6,0.6,0.4,,,,,,,,,,,,,,,0.518,,0.8,0.2,0.2,0.8,0.2,0.8,0.8,0.2,,,0.235,,0.4,0.6,0.8,0.2,0.2,0.8,0.8,0.2,1,0
,,66a63fd5eae42f430895d7bf,66dafa53e232ed557fef725a,2024-09-06_14h49.40.751,mdp,2024.2.1,Win32,144.5086705,66d7945b1baad48e845df3ce,,,,,,,,,,,,,,,,,,,,,1256.814,1256.814,1256.815,1257.596,0,1,left,0.272,,1257.597,1258.427,0,1,left,1258.428,1259.198,1,0,right,1,1259.198,1259.198,1259.199,1260.7,0,36,36,36,1,0.4,0.6,0.6,0.4,,,,,,,,,,,,,,,0.326,,0.8,0.2,0.2,0.8,0.2,0.8,0.8,0.2,,,0.256,,0.4,0.6,0.8,0.2,0.2,0.8,0.8,0.2,1,0
,,66a63fd5eae42f430895d7bf,66dafa53e232ed557fef725a,2024-09-06_14h49.40.751,mdp,2024.2.1,Win32,144.5086705,66d7945b1baad48e845df3ce,,,,,,,,,,,,,,,,,,,,,1260.701,1260.701,1260.702,1263.338,0,1,left,2.128,,1263.343,1264.119,0,1,left,1264.119,1264.846,1,0,right,1,1264.846,1264.846,1264.848,1266.343,0,37,37,37,1,0.4,0.6,0.6,0.4,,,,,,,,,,,,,,,0.272,,0.8,0.2,0.2,0.8,0.2,0.8,0.8,0.2,,,0.215,,0.4,0.6,0.8,0.2,0.2,0.8,0.8,0.2,1,0
,,66a63fd5eae42f430895d7bf,66dafa53e232ed557fef725a,2024-09-06_14h49.40.751,mdp,2024.2.1,Win32,144.5086705,66d7945b1baad48e845df3ce,,,,,,,,,,,,,,,,,,,,,1266.344,1266.344,1266.344,1267.075,0,0,left,0.223,,1267.077,1267.809,0,0,left,1267.81,1268.509,1,0,right,1,1268.509,1268.509,1268.51,1270.004,0,38,38,38,1,0.4,0.6,0.6,0.4,,,,,,,,,,,,,,,0.22,,0.8,0.2,0.2,0.8,0.2,0.8,0.8,0.2,,,0.191,,0.4,0.6,0.8,0.2,0.2,0.8,0.8,0.2,1,0
,,66a63fd5eae42f430895d7bf,66dafa53e232ed557fef725a,2024-09-06_14h49.40.751,mdp,2024.2.1,Win32,144.5086705,66d7945b1baad48e845df3ce,,,,,,,,,,,,,,,,,,,,,1270.004,1270.004,1270.005,1270.621,0,1,left,0.106,,1270.622,1271.334,0,1,left,1271.335,1271.897,1,0,right,1,1271.897,1271.897,1271.899,1273.397,0,39,39,39,1,0.4,0.6,0.6,0.4,,,,,,,,,,,,,,,0.204,,0.8,0.2,0.2,0.8,0.2,0.8,0.8,0.2,,,0.047,,0.4,0.6,0.8,0.2,0.2,0.8,0.8,0.2,1,0
,,66a63fd5eae42f430895d7bf,66dafa53e232ed557fef725a,2024-09-06_14h49.40.751,mdp,2024.2.1,Win32,144.5086705,66d7945b1baad48e845df3ce,,,,,,,,,,,,,,,,,,,,,1273.399,1273.399,1273.399,1275.35,0,0,left,1.44,,1275.351,1276.237,0,0,left,1276.237,1277.146,1,0,right,1,1277.146,1277.146,1277.146,1278.646,0,40,40,40,1,0.4,0.6,0.6,0.4,,,,,,,,,,,,,,,0.372,,0.8,0.2,0.2,0.8,0.2,0.8,0.8,0.2,,,0.394,,0.4,0.6,0.8,0.2,0.2,0.8,0.8,0.2,1,0
,,66a63fd5eae42f430895d7bf,66dafa53e232ed557fef725a,2024-09-06_14h49.40.751,mdp,2024.2.1,Win32,144.5086705,66d7945b1baad48e845df3ce,,,,,,,,,,,,,,,,,,,,,1278.647,1278.647,1278.648,1280.017,0,1,left,0.86,,1280.018,1280.841,0,0,left,1280.841,1281.611,1,0,right,1,1281.611,1281.611,1281.612,1283.112,0,41,41,41,1,0.4,0.6,0.6,0.4,,,,,,,,,,,,,,,0.309,,0.8,0.2,0.2,0.8,0.2,0.8,0.8,0.2,,,0.259,,0.4,0.6,0.8,0.2,0.2,0.8,0.8,0.2,1,0
,,66a63fd5eae42f430895d7bf,66dafa53e232ed557fef725a,2024-09-06_14h49.40.751,mdp,2024.2.1,Win32,144.5086705,66d7945b1baad48e845df3ce,,,,,,,,,,,,,,,,,,,,,1283.112,1283.112,1283.113,1284.13,0,1,left,0.507,,1284.131,1285.356,0,1,left,1285.356,1286.138,1,0,right,1,1286.138,1286.138,1286.139,1287.635,0,42,42,42,1,0.4,0.6,0.6,0.4,,,,,,,,,,,,,,,0.712,,0.8,0.2,0.2,0.8,0.2,0.8,0.8,0.2,,,0.268,,0.4,0.6,0.8,0.2,0.4,0.6,0.2,0.8,1,0
,,66a63fd5eae42f430895d7bf,66dafa53e232ed557fef725a,2024-09-06_14h49.40.751,mdp,2024.2.1,Win32,144.5086705,66d7945b1baad48e845df3ce,,,,,,,,,,,,,,,,,,,,,1287.635,1287.635,1287.637,1290.604,0,1,left,2.46,,1290.605,1291.463,0,1,left,1291.463,1292.288,1,1,right,0,1292.288,1292.288,1292.289,1293.789,0,43,43,43,1,0.4,0.6,0.6,0.4,,,,,,,,,,,,,,,0.348,,0.8,0.2,0.2,0.8,0.2,0.8,0.8,0.2,,,0.313,,0.4,0.6,0.8,0.2,0.4,0.6,0.2,0.8,1,0
,,66a63fd5eae42f430895d7bf,66dafa53e232ed557fef725a,2024-09-06_14h49.40.751,mdp,2024.2.1,Win32,144.5086705,66d7945b1baad48e845df3ce,,,,,,,,,,,,,,,,,,,,,1293.79,1293.79,1293.791,1295.008,0,0,left,0.707,,1295.012,1295.832,0,0,left,1295.834,1296.621,1,0,right,1,1296.621,1296.621,1296.623,1298.117,0,44,44,44,1,0.4,0.6,0.6,0.4,,,,,,,,,,,,,,,0.31,,0.8,0.2,0.2,0.8,0.2,0.8,0.8,0.2,,,0.271,,0.4,0.6,0.8,0.2,0.4,0.6,0.2,0.8,1,0
,,66a63fd5eae42f430895d7bf,66dafa53e232ed557fef725a,2024-09-06_14h49.40.751,mdp,2024.2.1,Win32,144.5086705,66d7945b1baad48e845df3ce,,,,,,,,,,,,,,,,,,,,,1298.118,1298.118,1298.118,1299.864,0,1,left,1.232,,1299.865,1300.658,0,1,left,1300.659,1301.371,1,1,right,0,1301.372,1301.372,1301.372,1302.867,0,45,45,45,1,0.4,0.6,0.6,0.4,,,,,,,,,,,,,,,0.283,,0.8,0.2,0.2,0.8,0.2,0.8,0.8,0.2,,,0.202,,0.4,0.6,0.8,0.2,0.4,0.6,0.2,0.8,1,0
,,66a63fd5eae42f430895d7bf,66dafa53e232ed557fef725a,2024-09-06_14h49.40.751,mdp,2024.2.1,Win32,144.5086705,66d7945b1baad48e845df3ce,,,,,,,,,,,,,,,,,,,,,1302.867,1302.867,1302.868,1303.768,0,0,left,0.387,,1303.769,1304.563,0,0,left,1304.564,1305.173,1,0,right,1,1305.173,1305.173,1305.174,1306.668,0,46,46,46,1,0.4,0.6,0.6,0.4,,,,,,,,,,,,,,,0.284,,0.8,0.2,0.2,0.8,0.2,0.8,0.8,0.2,,,0.099,,0.4,0.6,0.8,0.2,0.4,0.6,0.2,0.8,1,0
,,66a63fd5eae42f430895d7bf,66dafa53e232ed557fef725a,2024-09-06_14h49.40.751,mdp,2024.2.1,Win32,144.5086705,66d7945b1baad48e845df3ce,,,,,,,,,,,,,,,,,,,,,1306.668,1306.668,1306.67,1307.687,0,0,left,0.504,,1307.688,1308.455,0,0,left,1308.456,1309.293,1,0,right,1,1309.293,1309.293,1309.293,1310.788,0,47,47,47,1,0.4,0.6,0.6,0.4,,,,,,,,,,,,,,,0.257,,0.8,0.2,0.2,0.8,0.2,0.8,0.8,0.2,,,0.327,,0.4,0.6,0.8,0.2,0.4,0.6,0.2,0.8,1,0
,,66a63fd5eae42f430895d7bf,66dafa53e232ed557fef725a,2024-09-06_14h49.40.751,mdp,2024.2.1,Win32,144.5086705,66d7945b1baad48e845df3ce,,,,,,,,,,,,,,,,,,,,,1310.789,1310.789,1310.79,1311.833,0,0,left,0.533,,1311.834,1312.611,0,0,left,1312.612,1313.433,1,1,right,0,1313.433,1313.433,1313.434,1314.93,0,48,48,48,1,0.4,0.6,0.6,0.4,,,,,,,,,,,,,,,0.264,,0.8,0.2,0.2,0.8,0.2,0.8,0.8,0.2,,,0.313,,0.4,0.6,0.8,0.2,0.8,0.2,0.6,0.4,1,0
,,66a63fd5eae42f430895d7bf,66dafa53e232ed557fef725a,2024-09-06_14h49.40.751,mdp,2024.2.1,Win32,144.5086705,66d7945b1baad48e845df3ce,,,,,,,,,,,,,,,,,,,,,1314.931,1314.931,1314.932,1316.431,0,1,left,0.989,,1316.432,1317.227,0,0,left,1317.227,1317.962,0,0,left,1,1317.962,1317.962,1317.963,1319.458,0,49,49,49,1,0.4,0.6,0.6,0.4,,,,,,,,,,,,,,,0.275,,0.8,0.2,0.2,0.8,0.2,0.8,0.8,0.2,,,0.221,,0.4,0.6,0.8,0.2,0.8,0.2,0.6,0.4,1,0
,,66a63fd5eae42f430895d7bf,66dafa53e232ed557fef725a,2024-09-06_14h49.40.751,mdp,2024.2.1,Win32,144.5086705,66d7945b1baad48e845df3ce,,,,,,,,,,,,,,,,,,,,,,,,,,,,,,,,,,,,,,,,,,,,,,,,,,,,,,,,1319.458,1377.968,0,3,3,6,1,imgs/giraffe.png,imgs/squirrel.png,imgs/rabbit.png,imgs/goat.png,imgs/lion.png,,,,,,,,,,,,,,,,,,,,,,,,
,,66a63fd5eae42f430895d7bf,66dafa53e232ed557fef725a,2024-09-06_14h49.40.751,mdp,2024.2.1,Win32,144.5086705,66d7945b1baad48e845df3ce,,,,,,,,,,,,,,1,seqs/st1seq10.csv,1377.974,1380.073,space,1.593,,1380.077,1380.077,1380.079,1381.021,1,0,right,0.43,,1381.022,1381.023,0,0,,1381.024,1381.025,0,0,,1,1381.025,1381.025,1381.026,1382.524,0,0,0,0,1,0.2,0.8,0.8,0.2,1,0,,,,,,,,,,,,,,,,,,,,,,,,,,,,,,,,,,,,
,,66a63fd5eae42f430895d7bf,66dafa53e232ed557fef725a,2024-09-06_14h49.40.751,mdp,2024.2.1,Win32,144.5086705,66d7945b1baad48e845df3ce,,,,,,,,,,,,,,,,,,,,,1382.524,1382.524,1382.525,1383.527,1,0,right,0.493,,1383.528,1383.53,0,0,,1383.53,1383.531,0,0,,1,1383.531,1383.531,1383.532,1385.03,0,1,1,1,1,0.2,0.8,0.8,0.2,1,0,,,,,,,,,,,,,,,,,,,,,,,,,,,,,,,,,,,,
,,66a63fd5eae42f430895d7bf,66dafa53e232ed557fef725a,2024-09-06_14h49.40.751,mdp,2024.2.1,Win32,144.5086705,66d7945b1baad48e845df3ce,,,,,,,,,,,,,,,,,,,,,1385.03,1385.03,1385.031,1385.826,1,0,right,0.286,,1385.827,1385.829,0,1,,1385.83,1385.831,0,0,,1,1385.831,1385.831,1385.832,1387.329,0,2,2,2,1,0.2,0.8,0.8,0.2,1,0,,,,,,,,,,,,,,,,,,,,,,,,,,,,,,,,,,,,
,,66a63fd5eae42f430895d7bf,66dafa53e232ed557fef725a,2024-09-06_14h49.40.751,mdp,2024.2.1,Win32,144.5086705,66d7945b1baad48e845df3ce,,,,,,,,,,,,,,,,,,,,,1387.33,1387.33,1387.33,1388.196,1,0,right,0.352,,1388.198,1388.199,0,0,,1388.199,1388.2,0,0,,1,1388.2,1388.2,1388.2,1389.699,0,3,3,3,1,0.2,0.8,0.8,0.2,1,0,,,,,,,,,,,,,,,,,,,,,,,,,,,,,,,,,,,,
,,66a63fd5eae42f430895d7bf,66dafa53e232ed557fef725a,2024-09-06_14h49.40.751,mdp,2024.2.1,Win32,144.5086705,66d7945b1baad48e845df3ce,,,,,,,,,,,,,,,,,,,,,1389.701,1389.701,1389.703,1390.217,1,0,right,0.007,,1390.218,1390.219,0,0,,1390.22,1390.221,0,0,,1,1390.221,1390.221,1390.222,1391.719,0,4,4,4,1,0.2,0.8,0.8,0.2,1,0,,,,,,,,,,,,,,,,,,,,,,,,,,,,,,,,,,,,
,,66a63fd5eae42f430895d7bf,66dafa53e232ed557fef725a,2024-09-06_14h49.40.751,mdp,2024.2.1,Win32,144.5086705,66d7945b1baad48e845df3ce,,,,,,,,,,,,,,,,,,,,,1391.719,1391.719,1391.72,1392.543,1,0,right,0.319,,1392.543,1392.545,0,1,,1392.545,1392.547,0,1,,1,1392.547,1392.547,1392.548,1394.046,0,5,5,5,1,0.2,0.8,0.8,0.2,1,0,,,,,,,,,,,,,,,,,,,,,,,,,,,,,,,,,,,,
,,66a63fd5eae42f430895d7bf,66dafa53e232ed557fef725a,2024-09-06_14h49.40.751,mdp,2024.2.1,Win32,144.5086705,66d7945b1baad48e845df3ce,,,,,,,,,,,,,,,,,,,,,1394.046,1394.046,1394.046,1394.913,1,0,right,0.355,,1394.915,1394.916,0,0,,1394.917,1394.917,0,1,,1,1394.917,1394.917,1394.919,1396.413,0,6,6,6,1,0.2,0.8,0.8,0.2,1,0,,,,,,,,,,,,,,,,,,,,,,,,,,,,,,,,,,,,
,,66a63fd5eae42f430895d7bf,66dafa53e232ed557fef725a,2024-09-06_14h49.40.751,mdp,2024.2.1,Win32,144.5086705,66d7945b1baad48e845df3ce,,,,,,,,,,,,,,,,,,,,,1396.414,1396.414,1396.414,1397.523,1,0,right,0.598,,1397.524,1397.525,0,0,,1397.526,1397.526,0,0,,1,1397.526,1397.526,1397.527,1399.024,0,7,7,7,1,0.2,0.8,0.8,0.2,1,0,,,,,,,,,,,,,,,,,,,,,,,,,,,,,,,,,,,,
,,66a63fd5eae42f430895d7bf,66dafa53e232ed557fef725a,2024-09-06_14h49.40.751,mdp,2024.2.1,Win32,144.5086705,66d7945b1baad48e845df3ce,,,,,,,,,,,,,,,,,,,,,1399.025,1399.025,1399.026,1399.807,1,0,right,0.268,,1399.808,1399.808,0,0,,1399.808,1399.81,0,0,,1,1399.81,1399.81,1399.81,1401.309,0,8,8,8,1,0.2,0.8,0.8,0.2,1,0,,,,,,,,,,,,,,,,,,,,,,,,,,,,,,,,,,,,
,,66a63fd5eae42f430895d7bf,66dafa53e232ed557fef725a,2024-09-06_14h49.40.751,mdp,2024.2.1,Win32,144.5086705,66d7945b1baad48e845df3ce,,,,,,,,,,,,,,,,,,,,,1401.309,1401.309,1401.31,1402.328,1,0,right,0.511,,1402.329,1402.33,0,0,,1402.332,1402.332,0,0,,1,1402.332,1402.332,1402.333,1403.829,0,9,9,9,1,0.2,0.8,0.8,0.2,1,0,,,,,,,,,,,,,,,,,,,,,,,,,,,,,,,,,,,,
,,66a63fd5eae42f430895d7bf,66dafa53e232ed557fef725a,2024-09-06_14h49.40.751,mdp,2024.2.1,Win32,144.5086705,66d7945b1baad48e845df3ce,,,,,,,,,,,,,,,,,,,,,1403.829,1403.829,1403.831,1404.979,1,1,right,0.638,,1404.98,1404.981,0,1,,1404.981,1404.981,0,0,,0,1404.981,1404.981,1404.983,1406.476,0,10,10,10,1,0.6,0.4,0.4,0.6,1,0,,,,,,,,,,,,,,,,,,,,,,,,,,,,,,,,,,,,
,,66a63fd5eae42f430895d7bf,66dafa53e232ed557fef725a,2024-09-06_14h49.40.751,mdp,2024.2.1,Win32,144.5086705,66d7945b1baad48e845df3ce,,,,,,,,,,,,,,,,,,,,,1406.476,1406.476,1406.477,1407.389,1,1,right,0.403,,1407.391,1407.392,0,0,,1407.393,1407.393,0,1,,0,1407.393,1407.393,1407.394,1408.891,0,11,11,11,1,0.6,0.4,0.4,0.6,1,0,,,,,,,,,,,,,,,,,,,,,,,,,,,,,,,,,,,,
,,66a63fd5eae42f430895d7bf,66dafa53e232ed557fef725a,2024-09-06_14h49.40.751,mdp,2024.2.1,Win32,144.5086705,66d7945b1baad48e845df3ce,,,,,,,,,,,,,,,,,,,,,1408.891,1408.891,1408.892,1409.86,1,1,right,0.457,,1409.861,1409.862,0,0,,1409.863,1409.863,0,1,,0,1409.863,1409.863,1409.864,1411.363,0,12,12,12,1,0.6,0.4,0.4,0.6,1,0,,,,,,,,,,,,,,,,,,,,,,,,,,,,,,,,,,,,
,,66a63fd5eae42f430895d7bf,66dafa53e232ed557fef725a,2024-09-06_14h49.40.751,mdp,2024.2.1,Win32,144.5086705,66d7945b1baad48e845df3ce,,,,,,,,,,,,,,,,,,,,,1411.363,1411.363,1411.364,1412.111,0,0,left,0.233,,1412.112,1412.113,0,1,,1412.113,1412.114,0,1,,1,1412.114,1412.114,1412.115,1413.613,0,13,13,13,1,0.6,0.4,0.4,0.6,1,0,,,,,,,,,,,,,,,,,,,,,,,,,,,,,,,,,,,,
,,66a63fd5eae42f430895d7bf,66dafa53e232ed557fef725a,2024-09-06_14h49.40.751,mdp,2024.2.1,Win32,144.5086705,66d7945b1baad48e845df3ce,,,,,,,,,,,,,,,,,,,,,1413.614,1413.614,1413.615,1414.33,0,0,left,0.206,,1414.331,1414.331,0,0,,1414.331,1414.331,0,0,,1,1414.332,1414.332,1414.333,1415.829,0,14,14,14,1,0.6,0.4,0.4,0.6,1,0,,,,,,,,,,,,,,,,,,,,,,,,,,,,,,,,,,,,
,,66a63fd5eae42f430895d7bf,66dafa53e232ed557fef725a,2024-09-06_14h49.40.751,mdp,2024.2.1,Win32,144.5086705,66d7945b1baad48e845df3ce,,,,,,,,,,,,,,,,,,,,,1415.83,1415.83,1415.831,1416.585,0,0,left,0.248,,1416.586,1416.587,0,1,,1416.588,1416.589,0,0,,1,1416.589,1416.589,1416.589,1418.086,0,15,15,15,1,0.6,0.4,0.4,0.6,1,0,,,,,,,,,,,,,,,,,,,,,,,,,,,,,,,,,,,,
,,66a63fd5eae42f430895d7bf,66dafa53e232ed557fef725a,2024-09-06_14h49.40.751,mdp,2024.2.1,Win32,144.5086705,66d7945b1baad48e845df3ce,,,,,,,,,,,,,,,,,,,,,1418.087,1418.087,1418.088,1419.055,0,1,left,0.456,,1419.056,1419.057,0,0,,1419.057,1419.058,0,1,,0,1419.058,1419.058,1419.058,1420.559,0,16,16,16,1,0.6,0.4,0.4,0.6,1,0,,,,,,,,,,,,,,,,,,,,,,,,,,,,,,,,,,,,
,,66a63fd5eae42f430895d7bf,66dafa53e232ed557fef725a,2024-09-06_14h49.40.751,mdp,2024.2.1,Win32,144.5086705,66d7945b1baad48e845df3ce,,,,,,,,,,,,,,,,,,,,,1420.561,1420.562,1420.564,1421.218,1,1,right,0.15,,1421.219,1421.22,0,0,,1421.222,1421.223,0,1,,0,1421.223,1421.223,1421.223,1422.719,0,17,17,17,1,0.6,0.4,0.4,0.6,1,0,,,,,,,,,,,,,,,,,,,,,,,,,,,,,,,,,,,,
,,66a63fd5eae42f430895d7bf,66dafa53e232ed557fef725a,2024-09-06_14h49.40.751,mdp,2024.2.1,Win32,144.5086705,66d7945b1baad48e845df3ce,,,,,,,,,,,,,,,,,,,,,1422.72,1422.72,1422.72,1423.632,1,1,right,0.4,,1423.633,1423.635,0,0,,1423.636,1423.637,0,0,,0,1423.637,1423.637,1423.637,1425.135,0,18,18,18,1,0.6,0.4,0.4,0.6,1,0,,,,,,,,,,,,,,,,,,,,,,,,,,,,,,,,,,,,
,,66a63fd5eae42f430895d7bf,66dafa53e232ed557fef725a,2024-09-06_14h49.40.751,mdp,2024.2.1,Win32,144.5086705,66d7945b1baad48e845df3ce,,,,,,,,,,,,,,,,,,,,,1425.136,1425.136,1425.137,1426.321,0,0,left,0.678,,1426.322,1426.323,0,0,,1426.324,1426.325,0,0,,1,1426.325,1426.325,1426.326,1427.822,0,19,19,19,1,0.6,0.4,0.4,0.6,1,0,,,,,,,,,,,,,,,,,,,,,,,,,,,,,,,,,,,,
,,66a63fd5eae42f430895d7bf,66dafa53e232ed557fef725a,2024-09-06_14h49.40.751,mdp,2024.2.1,Win32,144.5086705,66d7945b1baad48e845df3ce,,,,,,,,,,,,,,,,,,,,,1427.822,1427.822,1427.823,1428.681,0,0,left,0.348,,1428.682,1428.683,0,0,,1428.684,1428.684,0,0,,1,1428.684,1428.684,1428.685,1430.184,0,20,20,20,1,0.6,0.4,0.4,0.6,1,0,,,,,,,,,,,,,,,,,,,,,,,,,,,,,,,,,,,,
,,66a63fd5eae42f430895d7bf,66dafa53e232ed557fef725a,2024-09-06_14h49.40.751,mdp,2024.2.1,Win32,144.5086705,66d7945b1baad48e845df3ce,,,,,,,,,,,,,,,,,,,,,1430.184,1430.184,1430.184,1431.762,0,0,left,1.066,,1431.763,1431.763,0,1,,1431.764,1431.764,0,0,,1,1431.765,1431.765,1431.765,1433.264,0,21,21,21,1,0.6,0.4,0.4,0.6,1,0,,,,,,,,,,,,,,,,,,,,,,,,,,,,,,,,,,,,
,,66a63fd5eae42f430895d7bf,66dafa53e232ed557fef725a,2024-09-06_14h49.40.751,mdp,2024.2.1,Win32,144.5086705,66d7945b1baad48e845df3ce,,,,,,,,,,,,,,,,,,,,,1433.265,1433.265,1433.266,1435.44,0,0,left,1.664,,1435.44,1435.441,0,0,,1435.442,1435.443,0,0,,1,1435.443,1435.443,1435.444,1436.941,0,22,22,22,1,0.8,0.2,0.6,0.4,1,0,,,,,,,,,,,,,,,,,,,,,,,,,,,,,,,,,,,,
,,66a63fd5eae42f430895d7bf,66dafa53e232ed557fef725a,2024-09-06_14h49.40.751,mdp,2024.2.1,Win32,144.5086705,66d7945b1baad48e845df3ce,,,,,,,,,,,,,,,,,,,,,1436.941,1436.941,1436.942,1440.829,0,1,left,3.379,,1440.83,1440.831,0,1,,1440.832,1440.833,0,1,,0,1440.833,1440.833,1440.833,1442.328,0,23,23,23,1,0.4,0.6,0.8,0.2,1,0,,,,,,,,,,,,,,,,,,,,,,,,,,,,,,,,,,,,
,,66a63fd5eae42f430895d7bf,66dafa53e232ed557fef725a,2024-09-06_14h49.40.751,mdp,2024.2.1,Win32,144.5086705,66d7945b1baad48e845df3ce,,,,,,,,,,,,,,,,,,,,,1442.329,1442.329,1442.33,1443.173,1,0,right,0.339,,1443.174,1443.175,0,0,,1443.176,1443.177,0,0,,1,1443.177,1443.177,1443.177,1444.676,0,24,24,24,1,0.4,0.6,0.8,0.2,1,0,,,,,,,,,,,,,,,,,,,,,,,,,,,,,,,,,,,,
,,66a63fd5eae42f430895d7bf,66dafa53e232ed557fef725a,2024-09-06_14h49.40.751,mdp,2024.2.1,Win32,144.5086705,66d7945b1baad48e845df3ce,,,,,,,,,,,,,,,,,,,,,1444.676,1444.676,1444.677,1445.403,1,0,right,0.215,,1445.404,1445.404,0,1,,1445.405,1445.405,0,0,,1,1445.405,1445.405,1445.406,1446.9,0,25,25,25,1,0.4,0.6,0.8,0.2,1,0,,,,,,,,,,,,,,,,,,,,,,,,,,,,,,,,,,,,
,,66a63fd5eae42f430895d7bf,66dafa53e232ed557fef725a,2024-09-06_14h49.40.751,mdp,2024.2.1,Win32,144.5086705,66d7945b1baad48e845df3ce,,,,,,,,,,,,,,,,,,,,,1446.901,1446.901,1446.902,1455.111,1,1,right,7.7,,1455.116,1455.119,0,0,,1455.12,1455.121,0,0,,0,1455.121,1455.121,1455.123,1456.62,0,26,26,26,1,0.4,0.6,0.8,0.2,1,0,,,,,,,,,,,,,,,,,,,,,,,,,,,,,,,,,,,,
,,66a63fd5eae42f430895d7bf,66dafa53e232ed557fef725a,2024-09-06_14h49.40.751,mdp,2024.2.1,Win32,144.5086705,66d7945b1baad48e845df3ce,,,,,,,,,,,,,,,,,,,,,1456.62,1456.62,1456.621,1458.748,0,0,left,1.611,,1458.749,1458.751,0,0,,1458.751,1458.752,0,1,,1,1458.752,1458.752,1458.753,1460.249,0,27,27,27,1,0.4,0.6,0.8,0.2,1,0,,,,,,,,,,,,,,,,,,,,,,,,,,,,,,,,,,,,
,,66a63fd5eae42f430895d7bf,66dafa53e232ed557fef725a,2024-09-06_14h49.40.751,mdp,2024.2.1,Win32,144.5086705,66d7945b1baad48e845df3ce,,,,,,,,,,,,,,,,,,,,,1460.25,1460.25,1460.251,1461.047,0,1,left,0.284,,1461.049,1461.051,0,1,,1461.052,1461.053,0,1,,0,1461.053,1461.053,1461.054,1462.556,0,28,28,28,1,0.4,0.6,0.8,0.2,1,0,,,,,,,,,,,,,,,,,,,,,,,,,,,,,,,,,,,,
,,66a63fd5eae42f430895d7bf,66dafa53e232ed557fef725a,2024-09-06_14h49.40.751,mdp,2024.2.1,Win32,144.5086705,66d7945b1baad48e845df3ce,,,,,,,,,,,,,,,,,,,,,1462.557,1462.557,1462.558,1465.206,1,1,right,2.139,,1465.207,1465.208,0,0,,1465.21,1465.211,0,0,,0,1465.211,1465.211,1465.212,1466.71,0,29,29,29,1,0.4,0.6,0.8,0.2,1,0,,,,,,,,,,,,,,,,,,,,,,,,,,,,,,,,,,,,
,,66a63fd5eae42f430895d7bf,66dafa53e232ed557fef725a,2024-09-06_14h49.40.751,mdp,2024.2.1,Win32,144.5086705,66d7945b1baad48e845df3ce,,,,,,,,,,,,,,,,,,,,,1466.71,1466.71,1466.711,1467.291,1,0,right,0.07,,1467.291,1467.292,0,0,,1467.292,1467.293,0,0,,1,1467.293,1467.293,1467.294,1468.793,0,30,30,30,1,0.4,0.6,0.8,0.2,1,0,,,,,,,,,,,,,,,,,,,,,,,,,,,,,,,,,,,,
,,66a63fd5eae42f430895d7bf,66dafa53e232ed557fef725a,2024-09-06_14h49.40.751,mdp,2024.2.1,Win32,144.5086705,66d7945b1baad48e845df3ce,,,,,,,,,,,,,,,,,,,,,1468.793,1468.793,1468.795,1475.69,1,0,right,6.384,,1475.691,1475.693,0,0,,1475.693,1475.695,0,0,,1,1475.695,1475.695,1475.696,1477.192,0,31,31,31,1,0.4,0.6,0.8,0.2,1,0,,,,,,,,,,,,,,,,,,,,,,,,,,,,,,,,,,,,
,,66a63fd5eae42f430895d7bf,66dafa53e232ed557fef725a,2024-09-06_14h49.40.751,mdp,2024.2.1,Win32,144.5086705,66d7945b1baad48e845df3ce,,,,,,,,,,,,,,,,,,,,,1477.192,1477.192,1477.193,1487.358,1,0,right,9.652,,1487.362,1487.365,0,0,,1487.366,1487.366,0,0,,1,1487.366,1487.366,1487.367,1488.866,0,32,32,32,1,0.4,0.6,0.8,0.2,1,0,,,,,,,,,,,,,,,,,,,,,,,,,,,,,,,,,,,,
,,66a63fd5eae42f430895d7bf,66dafa53e232ed557fef725a,2024-09-06_14h49.40.751,mdp,2024.2.1,Win32,144.5086705,66d7945b1baad48e845df3ce,,,,,,,,,,,,,,,,,,,,,1488.866,1488.866,1488.868,1490.182,1,0,right,0.809,,1490.183,1490.185,0,0,,1490.186,1490.187,0,1,,1,1490.187,1490.187,1490.188,1491.684,0,33,33,33,1,0.4,0.6,0.8,0.2,1,0,,,,,,,,,,,,,,,,,,,,,,,,,,,,,,,,,,,,
,,66a63fd5eae42f430895d7bf,66dafa53e232ed557fef725a,2024-09-06_14h49.40.751,mdp,2024.2.1,Win32,144.5086705,66d7945b1baad48e845df3ce,,,,,,,,,,,,,,,,,,,,,1491.685,1491.685,1491.686,1494.648,1,0,right,2.451,,1494.649,1494.65,0,0,,1494.651,1494.651,0,0,,1,1494.652,1494.652,1494.653,1496.15,0,34,34,34,1,0.4,0.6,0.8,0.2,1,0,,,,,,,,,,,,,,,,,,,,,,,,,,,,,,,,,,,,
,,66a63fd5eae42f430895d7bf,66dafa53e232ed557fef725a,2024-09-06_14h49.40.751,mdp,2024.2.1,Win32,144.5086705,66d7945b1baad48e845df3ce,,,,,,,,,,,,,,,,,,,,,1496.15,1496.15,1496.151,1498.491,1,0,right,1.826,,1498.491,1498.492,0,0,,1498.492,1498.493,0,1,,1,1498.493,1498.493,1498.493,1499.994,0,35,35,35,1,0.4,0.6,0.8,0.2,1,0,,,,,,,,,,,,,,,,,,,,,,,,,,,,,,,,,,,,
,,66a63fd5eae42f430895d7bf,66dafa53e232ed557fef725a,2024-09-06_14h49.40.751,mdp,2024.2.1,Win32,144.5086705,66d7945b1baad48e845df3ce,,,,,,,,,,,,,,,,,,,,,1499.994,1499.994,1499.995,1500.861,1,1,right,0.354,,1500.861,1500.862,0,0,,1500.863,1500.865,0,0,,0,1500.865,1500.865,1500.865,1502.362,0,36,36,36,1,0.4,0.6,0.8,0.2,1,0,,,,,,,,,,,,,,,,,,,,,,,,,,,,,,,,,,,,
,,66a63fd5eae42f430895d7bf,66dafa53e232ed557fef725a,2024-09-06_14h49.40.751,mdp,2024.2.1,Win32,144.5086705,66d7945b1baad48e845df3ce,,,,,,,,,,,,,,,,,,,,,1502.362,1502.362,1502.362,1503.054,0,0,left,0.182,,1503.055,1503.056,0,1,,1503.056,1503.057,0,1,,1,1503.057,1503.057,1503.058,1504.556,0,37,37,37,1,0.4,0.6,0.8,0.2,1,0,,,,,,,,,,,,,,,,,,,,,,,,,,,,,,,,,,,,
,,66a63fd5eae42f430895d7bf,66dafa53e232ed557fef725a,2024-09-06_14h49.40.751,mdp,2024.2.1,Win32,144.5086705,66d7945b1baad48e845df3ce,,,,,,,,,,,,,,,,,,,,,1504.556,1504.556,1504.558,1505.63,0,0,left,0.565,,1505.63,1505.631,0,0,,1505.631,1505.632,0,1,,1,1505.632,1505.632,1505.632,1507.132,0,38,38,38,1,0.4,0.6,0.8,0.2,1,0,,,,,,,,,,,,,,,,,,,,,,,,,,,,,,,,,,,,
,,66a63fd5eae42f430895d7bf,66dafa53e232ed557fef725a,2024-09-06_14h49.40.751,mdp,2024.2.1,Win32,144.5086705,66d7945b1baad48e845df3ce,,,,,,,,,,,,,,,,,,,,,1507.133,1507.133,1507.134,1508.122,0,0,left,0.479,,1508.123,1508.124,0,0,,1508.124,1508.124,0,1,,1,1508.124,1508.124,1508.125,1509.624,0,39,39,39,1,0.4,0.6,0.8,0.2,1,0,,,,,,,,,,,,,,,,,,,,,,,,,,,,,,,,,,,,
,,66a63fd5eae42f430895d7bf,66dafa53e232ed557fef725a,2024-09-06_14h49.40.751,mdp,2024.2.1,Win32,144.5086705,66d7945b1baad48e845df3ce,,,,,,,,,,,,,,,,,,,,,1509.625,1509.625,1509.625,1517.687,0,1,left,7.547,,1517.691,1517.695,0,1,,1517.695,1517.696,0,1,,0,1517.697,1517.697,1517.697,1519.194,0,40,40,40,1,0.4,0.6,0.8,0.2,1,0,,,,,,,,,,,,,,,,,,,,,,,,,,,,,,,,,,,,
,,66a63fd5eae42f430895d7bf,66dafa53e232ed557fef725a,2024-09-06_14h49.40.751,mdp,2024.2.1,Win32,144.5086705,66d7945b1baad48e845df3ce,,,,,,,,,,,,,,,,,,,,,1519.195,1519.195,1519.195,1519.79,1,0,right,0.085,,1519.791,1519.793,0,0,,1519.794,1519.795,0,0,,1,1519.795,1519.795,1519.795,1521.292,0,41,41,41,1,0.4,0.6,0.8,0.2,1,0,,,,,,,,,,,,,,,,,,,,,,,,,,,,,,,,,,,,
,,66a63fd5eae42f430895d7bf,66dafa53e232ed557fef725a,2024-09-06_14h49.40.751,mdp,2024.2.1,Win32,144.5086705,66d7945b1baad48e845df3ce,,,,,,,,,,,,,,,,,,,,,1521.292,1521.292,1521.293,1522.79,1,0,right,0.989,,1522.79,1522.792,0,0,,1522.792,1522.794,0,0,,1,1522.794,1522.794,1522.795,1524.292,0,42,42,42,1,0.4,0.6,0.8,0.2,1,0,,,,,,,,,,,,,,,,,,,,,,,,,,,,,,,,,,,,
,,66a63fd5eae42f430895d7bf,66dafa53e232ed557fef725a,2024-09-06_14h49.40.751,mdp,2024.2.1,Win32,144.5086705,66d7945b1baad48e845df3ce,,,,,,,,,,,,,,,,,,,,,1524.292,1524.292,1524.293,1526.118,1,0,right,1.311,,1526.119,1526.12,0,0,,1526.121,1526.122,0,0,,1,1526.122,1526.122,1526.122,1527.623,0,43,43,43,1,0.4,0.6,0.8,0.2,1,0,,,,,,,,,,,,,,,,,,,,,,,,,,,,,,,,,,,,
,,66a63fd5eae42f430895d7bf,66dafa53e232ed557fef725a,2024-09-06_14h49.40.751,mdp,2024.2.1,Win32,144.5086705,66d7945b1baad48e845df3ce,,,,,,,,,,,,,,,,,,,,,1527.624,1527.624,1527.624,1529.622,1,0,right,1.487,,1529.623,1529.624,0,0,,1529.624,1529.625,0,0,,1,1529.625,1529.625,1529.626,1531.125,0,44,44,44,1,0.4,0.6,0.8,0.2,1,0,,,,,,,,,,,,,,,,,,,,,,,,,,,,,,,,,,,,
,,66a63fd5eae42f430895d7bf,66dafa53e232ed557fef725a,2024-09-06_14h49.40.751,mdp,2024.2.1,Win32,144.5086705,66d7945b1baad48e845df3ce,,,,,,,,,,,,,,,,,,,,,1531.125,1531.125,1531.126,1532.11,1,1,right,0.473,,1532.112,1532.112,0,1,,1532.114,1532.115,0,0,,0,1532.115,1532.115,1532.115,1533.611,0,45,45,45,1,0.2,0.8,0.6,0.4,1,0,,,,,,,,,,,,,,,,,,,,,,,,,,,,,,,,,,,,
,,66a63fd5eae42f430895d7bf,66dafa53e232ed557fef725a,2024-09-06_14h49.40.751,mdp,2024.2.1,Win32,144.5086705,66d7945b1baad48e845df3ce,,,,,,,,,,,,,,,,,,,,,1533.611,1533.611,1533.612,1536.588,1,1,right,2.467,,1536.589,1536.59,0,1,,1536.59,1536.591,0,0,,0,1536.591,1536.591,1536.591,1538.09,0,46,46,46,1,0.2,0.8,0.6,0.4,1,0,,,,,,,,,,,,,,,,,,,,,,,,,,,,,,,,,,,,
,,66a63fd5eae42f430895d7bf,66dafa53e232ed557fef725a,2024-09-06_14h49.40.751,mdp,2024.2.1,Win32,144.5086705,66d7945b1baad48e845df3ce,,,,,,,,,,,,,,,,,,,,,1538.091,1538.091,1538.093,1539.108,1,0,right,0.512,,1539.109,1539.109,0,0,,1539.11,1539.11,0,1,,1,1539.11,1539.11,1539.111,1540.613,0,47,47,47,1,0.2,0.8,0.6,0.4,1,0,,,,,,,,,,,,,,,,,,,,,,,,,,,,,,,,,,,,
,,66a63fd5eae42f430895d7bf,66dafa53e232ed557fef725a,2024-09-06_14h49.40.751,mdp,2024.2.1,Win32,144.5086705,66d7945b1baad48e845df3ce,,,,,,,,,,,,,,,,,,,,,1540.613,1540.613,1540.614,1541.395,1,1,right,0.27,,1541.396,1541.398,0,1,,1541.398,1541.399,0,1,,0,1541.399,1541.399,1541.4,1542.896,0,48,48,48,1,0.8,0.2,0.4,0.6,1,0,,,,,,,,,,,,,,,,,,,,,,,,,,,,,,,,,,,,
,,66a63fd5eae42f430895d7bf,66dafa53e232ed557fef725a,2024-09-06_14h49.40.751,mdp,2024.2.1,Win32,144.5086705,66d7945b1baad48e845df3ce,,,,,,,,,,,,,,,,,,,,,1542.898,1542.898,1542.901,1544.613,1,0,right,1.206,,1544.614,1544.615,0,1,,1544.616,1544.617,0,0,,1,1544.617,1544.617,1544.618,1546.118,0,49,49,49,1,0.8,0.2,0.4,0.6,1,0,,,,,,,,,,,,,,,,,,,,,,,,,,,,,,,,,,,,
