init_exp.started,init_exp.stopped,participant,session,date,expName,psychopyVersion,OS,frameRate,study_id,disp_instruction.started,disp_instruction.stopped,instruction.thisRepN,instruction.thisTrialN,instruction.thisN,instruction.thisIndex,instruction.ran,instimg_path,consent.started,consent.stopped,key_resp_3.keys,key_resp_3.rt,key_resp_3.duration,n_steps,sequence_path,init_block.started,init_block.stopped,key_resp.keys,key_resp.rt,key_resp.duration,init_trials.started,init_trials.stopped,step0.started,step0.stopped,act0,s1,res0.keys,res0.rt,res0.duration,step1.started,step1.stopped,act1,s2,res1.keys,step2.started,step2.stopped,act2,s3,res2.keys,rew,reward_comp.started,reward_comp.stopped,reward_disp.started,reward_disp.stopped,trials.thisRepN,trials.thisTrialN,trials.thisN,trials.thisIndex,trials.ran,s00a0s10,s00a0s11,s00a1s10,s00a1s11,rew10,rew11,break_block.started,break_block.stopped,block.thisRepN,block.thisTrialN,block.thisN,block.thisIndex,block.ran,s00path,s10path,s11path,s20path,s21path,res1.rt,res1.duration,s10a0s20,s10a0s21,s10a1s20,s10a1s21,s11a0s20,s11a0s21,s11a1s20,s11a1s21,rew20,rew21,res2.rt,res2.duration,s20a0s30,s20a0s31,s20a1s30,s20a1s31,s21a0s30,s21a0s31,s21a1s30,s21a1s31,rew30,rew31
0.0004,0.0016,66a8e7a8b988a204c34be465,66daf7c4e70478d2ba52f9c3,2024-09-06_14h59.08.486,mdp,2024.2.1,Win32,59.88023952,66d7945b1baad48e845df3ce,,,,,,,,,,,,,,,,,,,,,,,,,,,,,,,,,,,,,,,,,,,,,,,,,,,,,,,,,,,,,,,,,,,,,,,,,,,,,,,,,,,,,,,,,,,
,,66a8e7a8b988a204c34be465,66daf7c4e70478d2ba52f9c3,2024-09-06_14h59.08.486,mdp,2024.2.1,Win32,59.88023952,66d7945b1baad48e845df3ce,0.0051,31.4463,0,0,0,0,1,rlnn_exp/rlnn_exp.001.png,,,,,,,,,,,,,,,,,,,,,,,,,,,,,,,,,,,,,,,,,,,,,,,,,,,,,,,,,,,,,,,,,,,,,,,,,,,,,,,,,,,
,,66a8e7a8b988a204c34be465,66daf7c4e70478d2ba52f9c3,2024-09-06_14h59.08.486,mdp,2024.2.1,Win32,59.88023952,66d7945b1baad48e845df3ce,31.4468,58.0667,0,1,1,1,1,rlnn_exp/rlnn_exp.002.png,,,,,,,,,,,,,,,,,,,,,,,,,,,,,,,,,,,,,,,,,,,,,,,,,,,,,,,,,,,,,,,,,,,,,,,,,,,,,,,,,,,
,,66a8e7a8b988a204c34be465,66daf7c4e70478d2ba52f9c3,2024-09-06_14h59.08.486,mdp,2024.2.1,Win32,59.88023952,66d7945b1baad48e845df3ce,58.0968,91.8495,0,2,2,2,1,rlnn_exp/rlnn_exp.003.png,,,,,,,,,,,,,,,,,,,,,,,,,,,,,,,,,,,,,,,,,,,,,,,,,,,,,,,,,,,,,,,,,,,,,,,,,,,,,,,,,,,
,,66a8e7a8b988a204c34be465,66daf7c4e70478d2ba52f9c3,2024-09-06_14h59.08.486,mdp,2024.2.1,Win32,59.88023952,66d7945b1baad48e845df3ce,91.8756,133.4627,0,3,3,3,1,rlnn_exp/rlnn_exp.004.png,,,,,,,,,,,,,,,,,,,,,,,,,,,,,,,,,,,,,,,,,,,,,,,,,,,,,,,,,,,,,,,,,,,,,,,,,,,,,,,,,,,
,,66a8e7a8b988a204c34be465,66daf7c4e70478d2ba52f9c3,2024-09-06_14h59.08.486,mdp,2024.2.1,Win32,59.88023952,66d7945b1baad48e845df3ce,,,,,,,,,133.4753,143.6322,y,0.1222,,,,,,,,,,,,,,,,,,,,,,,,,,,,,,,,,,,,,,,,,,,,,,,,,,,,,,,,,,,,,,,,,,,,,,,,,,,,,,,
,,66a8e7a8b988a204c34be465,66daf7c4e70478d2ba52f9c3,2024-09-06_14h59.08.486,mdp,2024.2.1,Win32,59.88023952,66d7945b1baad48e845df3ce,,,,,,,,,,,,,,1,seqs/st1seq44.csv,143.6565,147.0664,space,2.8948,,147.0723,147.0723,147.0733,221.3435,1,0,right,73.7383,,221.3713,221.3736,,0,,221.3744,221.3765,,0,,1,221.3767,221.3768,221.3773,222.8747,0,0,0,0,1,0.4,0.6,0.6,0.4,1,0,,,,,,,,,,,,,,,,,,,,,,,,,,,,,,,,,,,,
,,66a8e7a8b988a204c34be465,66daf7c4e70478d2ba52f9c3,2024-09-06_14h59.08.486,mdp,2024.2.1,Win32,59.88023952,66d7945b1baad48e845df3ce,,,,,,,,,,,,,,,,,,,,,222.8757,222.8757,222.8778,229.0583,1,0,right,5.6515,,229.0699,229.0707,,0,,229.0718,229.0738,,0,,1,229.0738,229.0738,229.0748,230.5745,0,1,1,1,1,0.4,0.6,0.6,0.4,1,0,,,,,,,,,,,,,,,,,,,,,,,,,,,,,,,,,,,,
,,66a8e7a8b988a204c34be465,66daf7c4e70478d2ba52f9c3,2024-09-06_14h59.08.486,mdp,2024.2.1,Win32,59.88023952,66d7945b1baad48e845df3ce,,,,,,,,,,,,,,,,,,,,,230.5751,230.5751,230.5774,235.5751,1,0,right,4.4751,,235.6047,235.6066,,1,,235.6083,235.6095,,0,,1,235.6097,235.6097,235.6105,237.1073,0,2,2,2,1,0.4,0.6,0.6,0.4,1,0,,,,,,,,,,,,,,,,,,,,,,,,,,,,,,,,,,,,
,,66a8e7a8b988a204c34be465,66daf7c4e70478d2ba52f9c3,2024-09-06_14h59.08.486,mdp,2024.2.1,Win32,59.88023952,66d7945b1baad48e845df3ce,,,,,,,,,,,,,,,,,,,,,237.1079,237.108,237.1102,238.357,1,0,right,0.7286,,238.3582,238.3591,,0,,238.3599,238.3605,,0,,1,238.3606,238.3606,238.3609,239.8571,0,3,3,3,1,0.4,0.6,0.6,0.4,1,0,,,,,,,,,,,,,,,,,,,,,,,,,,,,,,,,,,,,
,,66a8e7a8b988a204c34be465,66daf7c4e70478d2ba52f9c3,2024-09-06_14h59.08.486,mdp,2024.2.1,Win32,59.88023952,66d7945b1baad48e845df3ce,,,,,,,,,,,,,,,,,,,,,239.8576,239.8576,239.8589,241.1312,1,1,right,0.7499,,241.1328,241.1338,,1,,241.1346,241.1355,,0,,0,241.1357,241.1357,241.1363,242.6236,0,4,4,4,1,0.8,0.2,0.4,0.6,1,0,,,,,,,,,,,,,,,,,,,,,,,,,,,,,,,,,,,,
,,66a8e7a8b988a204c34be465,66daf7c4e70478d2ba52f9c3,2024-09-06_14h59.08.486,mdp,2024.2.1,Win32,59.88023952,66d7945b1baad48e845df3ce,,,,,,,,,,,,,,,,,,,,,242.624,242.624,242.6257,246.3237,1,0,right,3.1688,,246.3382,246.3406,,1,,246.3414,246.3421,,1,,1,246.3421,246.3421,246.3425,247.8399,0,5,5,5,1,0.8,0.2,0.4,0.6,1,0,,,,,,,,,,,,,,,,,,,,,,,,,,,,,,,,,,,,
,,66a8e7a8b988a204c34be465,66daf7c4e70478d2ba52f9c3,2024-09-06_14h59.08.486,mdp,2024.2.1,Win32,59.88023952,66d7945b1baad48e845df3ce,,,,,,,,,,,,,,,,,,,,,247.8403,247.8403,247.8426,248.7732,1,1,right,0.4033,,248.7743,248.7768,,0,,248.7776,248.7781,,0,,0,248.7781,248.7781,248.7786,250.2729,0,6,6,6,1,0.6,0.4,0.6,0.4,1,0,,,,,,,,,,,,,,,,,,,,,,,,,,,,,,,,,,,,
,,66a8e7a8b988a204c34be465,66daf7c4e70478d2ba52f9c3,2024-09-06_14h59.08.486,mdp,2024.2.1,Win32,59.88023952,66d7945b1baad48e845df3ce,,,,,,,,,,,,,,,,,,,,,250.2732,250.2732,250.2757,254.7561,1,0,right,3.9533,,254.7679,254.7686,,1,,254.7691,254.7695,,0,,1,254.7695,254.7695,254.7698,256.2724,0,7,7,7,1,0.6,0.4,0.6,0.4,1,0,,,,,,,,,,,,,,,,,,,,,,,,,,,,,,,,,,,,
,,66a8e7a8b988a204c34be465,66daf7c4e70478d2ba52f9c3,2024-09-06_14h59.08.486,mdp,2024.2.1,Win32,59.88023952,66d7945b1baad48e845df3ce,,,,,,,,,,,,,,,,,,,,,256.273,256.273,256.2762,257.5221,1,1,right,0.7232,,257.5232,257.5258,,0,,257.5263,257.5267,,0,,0,257.5268,257.5268,257.527,259.0224,0,8,8,8,1,0.6,0.4,0.6,0.4,1,0,,,,,,,,,,,,,,,,,,,,,,,,,,,,,,,,,,,,
,,66a8e7a8b988a204c34be465,66daf7c4e70478d2ba52f9c3,2024-09-06_14h59.08.486,mdp,2024.2.1,Win32,59.88023952,66d7945b1baad48e845df3ce,,,,,,,,,,,,,,,,,,,,,259.0229,259.0229,259.025,259.7558,1,1,right,0.2059,,259.7583,259.7609,,0,,259.7621,259.7634,,1,,0,259.7635,259.7636,259.7645,261.2571,0,9,9,9,1,0.6,0.4,0.6,0.4,1,0,,,,,,,,,,,,,,,,,,,,,,,,,,,,,,,,,,,,
,,66a8e7a8b988a204c34be465,66daf7c4e70478d2ba52f9c3,2024-09-06_14h59.08.486,mdp,2024.2.1,Win32,59.88023952,66d7945b1baad48e845df3ce,,,,,,,,,,,,,,,,,,,,,261.2578,261.2578,261.2593,263.2244,0,1,left,1.4378,,263.2263,263.2281,,0,,263.2295,263.2312,,0,,0,263.2313,263.2313,263.2322,264.7307,0,10,10,10,1,0.6,0.4,0.6,0.4,1,0,,,,,,,,,,,,,,,,,,,,,,,,,,,,,,,,,,,,
,,66a8e7a8b988a204c34be465,66daf7c4e70478d2ba52f9c3,2024-09-06_14h59.08.486,mdp,2024.2.1,Win32,59.88023952,66d7945b1baad48e845df3ce,,,,,,,,,,,,,,,,,,,,,264.7315,264.7315,264.7337,266.7418,0,0,left,1.4912,,266.7441,266.7458,,0,,266.747,266.748,,0,,1,266.7481,266.7481,266.749,268.2402,0,11,11,11,1,0.8,0.2,0.4,0.6,1,0,,,,,,,,,,,,,,,,,,,,,,,,,,,,,,,,,,,,
,,66a8e7a8b988a204c34be465,66daf7c4e70478d2ba52f9c3,2024-09-06_14h59.08.486,mdp,2024.2.1,Win32,59.88023952,66d7945b1baad48e845df3ce,,,,,,,,,,,,,,,,,,,,,268.2409,268.2409,268.2431,269.4315,1,1,right,0.6772,,269.4332,269.4348,,1,,269.4359,269.437,,1,,0,269.4371,269.4371,269.4397,270.94,0,12,12,12,1,0.8,0.2,0.4,0.6,1,0,,,,,,,,,,,,,,,,,,,,,,,,,,,,,,,,,,,,
,,66a8e7a8b988a204c34be465,66daf7c4e70478d2ba52f9c3,2024-09-06_14h59.08.486,mdp,2024.2.1,Win32,59.88023952,66d7945b1baad48e845df3ce,,,,,,,,,,,,,,,,,,,,,270.9408,270.9408,270.9422,272.1278,1,1,right,0.6473,,272.1307,272.1323,,0,,272.1337,272.1348,,1,,0,272.1349,272.135,272.1362,273.6301,0,13,13,13,1,0.8,0.2,0.4,0.6,1,0,,,,,,,,,,,,,,,,,,,,,,,,,,,,,,,,,,,,
,,66a8e7a8b988a204c34be465,66daf7c4e70478d2ba52f9c3,2024-09-06_14h59.08.486,mdp,2024.2.1,Win32,59.88023952,66d7945b1baad48e845df3ce,,,,,,,,,,,,,,,,,,,,,273.6307,273.6308,273.6329,275.4898,1,1,right,1.3357,,275.491,275.4918,,1,,275.4925,275.4931,,0,,0,275.4931,275.4931,275.4936,276.9885,0,14,14,14,1,0.8,0.2,0.4,0.6,1,0,,,,,,,,,,,,,,,,,,,,,,,,,,,,,,,,,,,,
,,66a8e7a8b988a204c34be465,66daf7c4e70478d2ba52f9c3,2024-09-06_14h59.08.486,mdp,2024.2.1,Win32,59.88023952,66d7945b1baad48e845df3ce,,,,,,,,,,,,,,,,,,,,,276.99,276.99,276.9912,278.9991,1,1,right,1.4686,,279.001,279.0026,,1,,279.004,279.0067,,1,,0,279.0068,279.0068,279.008,280.4976,0,15,15,15,1,0.8,0.2,0.4,0.6,1,0,,,,,,,,,,,,,,,,,,,,,,,,,,,,,,,,,,,,
,,66a8e7a8b988a204c34be465,66daf7c4e70478d2ba52f9c3,2024-09-06_14h59.08.486,mdp,2024.2.1,Win32,59.88023952,66d7945b1baad48e845df3ce,,,,,,,,,,,,,,,,,,,,,280.4982,280.4982,280.4998,281.3308,1,1,right,0.3158,,281.3326,281.3338,,1,,281.3348,281.3359,,1,,0,281.3359,281.3359,281.3369,282.8382,0,16,16,16,1,0.8,0.2,0.4,0.6,1,0,,,,,,,,,,,,,,,,,,,,,,,,,,,,,,,,,,,,
,,66a8e7a8b988a204c34be465,66daf7c4e70478d2ba52f9c3,2024-09-06_14h59.08.486,mdp,2024.2.1,Win32,59.88023952,66d7945b1baad48e845df3ce,,,,,,,,,,,,,,,,,,,,,282.8402,282.8402,282.8419,284.407,1,0,right,1.0527,,284.4084,284.4096,,1,,284.4104,284.4112,,1,,1,284.4113,284.4113,284.412,285.9044,0,17,17,17,1,0.8,0.2,0.4,0.6,1,0,,,,,,,,,,,,,,,,,,,,,,,,,,,,,,,,,,,,
,,66a8e7a8b988a204c34be465,66daf7c4e70478d2ba52f9c3,2024-09-06_14h59.08.486,mdp,2024.2.1,Win32,59.88023952,66d7945b1baad48e845df3ce,,,,,,,,,,,,,,,,,,,,,285.9059,285.9059,285.9079,287.5215,1,1,right,1.0877,,287.5252,287.5271,,0,,287.5288,287.5302,,0,,0,287.5303,287.5303,287.5312,289.0209,0,18,18,18,1,0.8,0.2,0.4,0.6,1,0,,,,,,,,,,,,,,,,,,,,,,,,,,,,,,,,,,,,
,,66a8e7a8b988a204c34be465,66daf7c4e70478d2ba52f9c3,2024-09-06_14h59.08.486,mdp,2024.2.1,Win32,59.88023952,66d7945b1baad48e845df3ce,,,,,,,,,,,,,,,,,,,,,289.0226,289.0226,289.0253,289.7714,1,0,right,0.2055,,289.7749,289.7785,,0,,289.7798,289.7808,,0,,1,289.7808,289.7809,289.7818,291.2707,0,19,19,19,1,0.6,0.4,0.6,0.4,1,0,,,,,,,,,,,,,,,,,,,,,,,,,,,,,,,,,,,,
,,66a8e7a8b988a204c34be465,66daf7c4e70478d2ba52f9c3,2024-09-06_14h59.08.486,mdp,2024.2.1,Win32,59.88023952,66d7945b1baad48e845df3ce,,,,,,,,,,,,,,,,,,,,,291.2721,291.2722,291.2746,293.4381,1,0,right,1.6347,,293.4413,293.4432,,1,,293.4444,293.4458,,0,,1,293.446,293.446,293.447,294.9376,0,20,20,20,1,0.6,0.4,0.6,0.4,1,0,,,,,,,,,,,,,,,,,,,,,,,,,,,,,,,,,,,,
,,66a8e7a8b988a204c34be465,66daf7c4e70478d2ba52f9c3,2024-09-06_14h59.08.486,mdp,2024.2.1,Win32,59.88023952,66d7945b1baad48e845df3ce,,,,,,,,,,,,,,,,,,,,,294.939,294.939,294.9413,295.4712,1,1,right,0.0012,,295.4745,295.4759,,0,,295.4771,295.4783,,0,,0,295.4783,295.4784,295.4795,296.9709,0,21,21,21,1,0.6,0.4,0.6,0.4,1,0,,,,,,,,,,,,,,,,,,,,,,,,,,,,,,,,,,,,
,,66a8e7a8b988a204c34be465,66daf7c4e70478d2ba52f9c3,2024-09-06_14h59.08.486,mdp,2024.2.1,Win32,59.88023952,66d7945b1baad48e845df3ce,,,,,,,,,,,,,,,,,,,,,296.9724,296.9724,296.9747,299.7953,1,0,right,2.2912,,299.81,299.8105,,1,,299.8109,299.8113,,0,,1,299.8113,299.8113,299.8115,301.3041,0,22,22,22,1,0.8,0.2,0.8,0.2,1,0,,,,,,,,,,,,,,,,,,,,,,,,,,,,,,,,,,,,
,,66a8e7a8b988a204c34be465,66daf7c4e70478d2ba52f9c3,2024-09-06_14h59.08.486,mdp,2024.2.1,Win32,59.88023952,66d7945b1baad48e845df3ce,,,,,,,,,,,,,,,,,,,,,301.3064,301.3064,301.309,303.2622,1,1,right,1.4315,,303.2641,303.2655,,1,,303.2667,303.2678,,0,,0,303.2678,303.2678,303.2686,304.7698,0,23,23,23,1,0.6,0.4,0.6,0.4,1,0,,,,,,,,,,,,,,,,,,,,,,,,,,,,,,,,,,,,
,,66a8e7a8b988a204c34be465,66daf7c4e70478d2ba52f9c3,2024-09-06_14h59.08.486,mdp,2024.2.1,Win32,59.88023952,66d7945b1baad48e845df3ce,,,,,,,,,,,,,,,,,,,,,304.7703,304.7703,304.7714,307.1138,1,1,right,1.8182,,307.1146,307.1154,,0,,307.1159,307.1162,,0,,0,307.1162,307.1162,307.1166,308.6124,0,24,24,24,1,0.6,0.4,0.6,0.4,1,0,,,,,,,,,,,,,,,,,,,,,,,,,,,,,,,,,,,,
,,66a8e7a8b988a204c34be465,66daf7c4e70478d2ba52f9c3,2024-09-06_14h59.08.486,mdp,2024.2.1,Win32,59.88023952,66d7945b1baad48e845df3ce,,,,,,,,,,,,,,,,,,,,,308.6129,308.6129,308.6143,309.8971,1,0,right,0.7517,,309.8982,309.8989,,0,,309.8995,309.8999,,0,,1,309.8999,309.9,309.9004,311.3967,0,25,25,25,1,0.6,0.4,0.6,0.4,1,0,,,,,,,,,,,,,,,,,,,,,,,,,,,,,,,,,,,,
,,66a8e7a8b988a204c34be465,66daf7c4e70478d2ba52f9c3,2024-09-06_14h59.08.486,mdp,2024.2.1,Win32,59.88023952,66d7945b1baad48e845df3ce,,,,,,,,,,,,,,,,,,,,,311.3971,311.3971,311.3977,312.596,1,1,right,0.6641,,312.5972,312.5979,,1,,312.5985,312.599,,1,,0,312.599,312.599,312.5995,314.0974,0,26,26,26,1,0.6,0.4,0.6,0.4,1,0,,,,,,,,,,,,,,,,,,,,,,,,,,,,,,,,,,,,
,,66a8e7a8b988a204c34be465,66daf7c4e70478d2ba52f9c3,2024-09-06_14h59.08.486,mdp,2024.2.1,Win32,59.88023952,66d7945b1baad48e845df3ce,,,,,,,,,,,,,,,,,,,,,314.0979,314.0979,314.099,315.1979,1,0,right,0.5692,,315.1991,315.1998,,0,,315.2004,315.2011,,0,,1,315.2012,315.2012,315.2017,316.7028,0,27,27,27,1,0.6,0.4,0.6,0.4,1,0,,,,,,,,,,,,,,,,,,,,,,,,,,,,,,,,,,,,
,,66a8e7a8b988a204c34be465,66daf7c4e70478d2ba52f9c3,2024-09-06_14h59.08.486,mdp,2024.2.1,Win32,59.88023952,66d7945b1baad48e845df3ce,,,,,,,,,,,,,,,,,,,,,316.7032,316.7032,316.7053,317.5199,1,1,right,0.2947,,317.524,317.5255,,1,,317.5273,317.5286,,0,,0,317.5286,317.5287,317.5297,319.0201,0,28,28,28,1,0.6,0.4,0.6,0.4,1,0,,,,,,,,,,,,,,,,,,,,,,,,,,,,,,,,,,,,
,,66a8e7a8b988a204c34be465,66daf7c4e70478d2ba52f9c3,2024-09-06_14h59.08.486,mdp,2024.2.1,Win32,59.88023952,66d7945b1baad48e845df3ce,,,,,,,,,,,,,,,,,,,,,319.0207,319.0207,319.0238,320.1364,1,1,right,0.5874,,320.1406,320.1421,,0,,320.1435,320.1447,,0,,0,320.1447,320.1448,320.1458,321.636,0,29,29,29,1,0.6,0.4,0.6,0.4,1,0,,,,,,,,,,,,,,,,,,,,,,,,,,,,,,,,,,,,
,,66a8e7a8b988a204c34be465,66daf7c4e70478d2ba52f9c3,2024-09-06_14h59.08.486,mdp,2024.2.1,Win32,59.88023952,66d7945b1baad48e845df3ce,,,,,,,,,,,,,,,,,,,,,321.6368,321.6369,321.6409,322.7862,1,1,right,0.6174,,322.7891,322.7912,,1,,322.7925,322.7936,,1,,0,322.7937,322.7937,322.7946,324.2856,0,30,30,30,1,0.6,0.4,0.6,0.4,1,0,,,,,,,,,,,,,,,,,,,,,,,,,,,,,,,,,,,,
,,66a8e7a8b988a204c34be465,66daf7c4e70478d2ba52f9c3,2024-09-06_14h59.08.486,mdp,2024.2.1,Win32,59.88023952,66d7945b1baad48e845df3ce,,,,,,,,,,,,,,,,,,,,,324.2862,324.2862,324.2873,325.4865,1,1,right,0.6613,,325.4903,325.4918,,1,,325.4931,325.4943,,1,,0,325.4944,325.4944,325.4954,326.9857,0,31,31,31,1,0.6,0.4,0.6,0.4,1,0,,,,,,,,,,,,,,,,,,,,,,,,,,,,,,,,,,,,
,,66a8e7a8b988a204c34be465,66daf7c4e70478d2ba52f9c3,2024-09-06_14h59.08.486,mdp,2024.2.1,Win32,59.88023952,66d7945b1baad48e845df3ce,,,,,,,,,,,,,,,,,,,,,326.9864,326.9864,326.9892,327.9024,1,0,right,0.388,,327.9046,327.9071,,0,,327.9081,327.909,,0,,1,327.9091,327.9091,327.9098,329.4024,0,32,32,32,1,0.6,0.4,0.6,0.4,1,0,,,,,,,,,,,,,,,,,,,,,,,,,,,,,,,,,,,,
,,66a8e7a8b988a204c34be465,66daf7c4e70478d2ba52f9c3,2024-09-06_14h59.08.486,mdp,2024.2.1,Win32,59.88023952,66d7945b1baad48e845df3ce,,,,,,,,,,,,,,,,,,,,,329.4032,329.4032,329.4068,330.2858,1,0,right,0.3509,,330.2879,330.2908,,0,,330.2921,330.2933,,0,,1,330.2934,330.2934,330.2944,331.7857,0,33,33,33,1,0.6,0.4,0.6,0.4,1,0,,,,,,,,,,,,,,,,,,,,,,,,,,,,,,,,,,,,
,,66a8e7a8b988a204c34be465,66daf7c4e70478d2ba52f9c3,2024-09-06_14h59.08.486,mdp,2024.2.1,Win32,59.88023952,66d7945b1baad48e845df3ce,,,,,,,,,,,,,,,,,,,,,331.7864,331.7866,331.7904,332.6693,1,1,right,0.3521,,332.6705,332.6724,,0,,332.6735,332.6741,,0,,0,332.6741,332.6741,332.6748,334.1685,0,34,34,34,1,0.8,0.2,0.4,0.6,1,0,,,,,,,,,,,,,,,,,,,,,,,,,,,,,,,,,,,,
,,66a8e7a8b988a204c34be465,66daf7c4e70478d2ba52f9c3,2024-09-06_14h59.08.486,mdp,2024.2.1,Win32,59.88023952,66d7945b1baad48e845df3ce,,,,,,,,,,,,,,,,,,,,,334.1693,334.1693,334.1712,334.9688,1,0,right,0.2697,,334.9711,334.9741,,0,,334.9755,334.9766,,1,,1,334.9767,334.9767,334.9777,336.4686,0,35,35,35,1,0.8,0.2,0.4,0.6,1,0,,,,,,,,,,,,,,,,,,,,,,,,,,,,,,,,,,,,
,,66a8e7a8b988a204c34be465,66daf7c4e70478d2ba52f9c3,2024-09-06_14h59.08.486,mdp,2024.2.1,Win32,59.88023952,66d7945b1baad48e845df3ce,,,,,,,,,,,,,,,,,,,,,336.4692,336.4692,336.4711,337.1791,1,0,right,0.1798,,337.1803,337.1813,,0,,337.182,337.1826,,1,,1,337.1826,337.1826,337.1831,338.6851,0,36,36,36,1,0.8,0.2,0.4,0.6,1,0,,,,,,,,,,,,,,,,,,,,,,,,,,,,,,,,,,,,
,,66a8e7a8b988a204c34be465,66daf7c4e70478d2ba52f9c3,2024-09-06_14h59.08.486,mdp,2024.2.1,Win32,59.88023952,66d7945b1baad48e845df3ce,,,,,,,,,,,,,,,,,,,,,338.6859,338.6859,338.6889,339.4219,1,1,right,0.2172,,339.4247,339.4254,,1,,339.426,339.4267,,0,,0,339.4267,339.4267,339.4271,340.918,0,37,37,37,1,0.8,0.2,0.4,0.6,1,0,,,,,,,,,,,,,,,,,,,,,,,,,,,,,,,,,,,,
,,66a8e7a8b988a204c34be465,66daf7c4e70478d2ba52f9c3,2024-09-06_14h59.08.486,mdp,2024.2.1,Win32,59.88023952,66d7945b1baad48e845df3ce,,,,,,,,,,,,,,,,,,,,,340.9183,340.9183,340.9196,341.5682,1,0,right,0.1188,,341.5694,341.5701,,0,,341.5707,341.5728,,0,,1,341.5731,341.5732,341.5739,343.0677,0,38,38,38,1,0.4,0.6,0.8,0.2,1,0,,,,,,,,,,,,,,,,,,,,,,,,,,,,,,,,,,,,
,,66a8e7a8b988a204c34be465,66daf7c4e70478d2ba52f9c3,2024-09-06_14h59.08.486,mdp,2024.2.1,Win32,59.88023952,66d7945b1baad48e845df3ce,,,,,,,,,,,,,,,,,,,,,343.068,343.068,343.069,344.1179,1,1,right,0.5203,,344.1191,344.1198,,0,,344.1204,344.1215,,0,,0,344.1217,344.1217,344.1233,345.6179,0,39,39,39,1,0.6,0.4,0.6,0.4,1,0,,,,,,,,,,,,,,,,,,,,,,,,,,,,,,,,,,,,
,,66a8e7a8b988a204c34be465,66daf7c4e70478d2ba52f9c3,2024-09-06_14h59.08.486,mdp,2024.2.1,Win32,59.88023952,66d7945b1baad48e845df3ce,,,,,,,,,,,,,,,,,,,,,345.6186,345.6187,345.62,346.4676,1,0,right,0.3231,,346.4688,346.4698,,1,,346.4705,346.4719,,0,,1,346.4719,346.4719,346.4728,347.9677,0,40,40,40,1,0.6,0.4,0.6,0.4,1,0,,,,,,,,,,,,,,,,,,,,,,,,,,,,,,,,,,,,
,,66a8e7a8b988a204c34be465,66daf7c4e70478d2ba52f9c3,2024-09-06_14h59.08.486,mdp,2024.2.1,Win32,59.88023952,66d7945b1baad48e845df3ce,,,,,,,,,,,,,,,,,,,,,347.968,347.968,347.9688,348.768,1,0,right,0.267,,348.7701,348.7725,,0,,348.7744,348.7759,,0,,1,348.7759,348.776,348.7769,350.2682,0,41,41,41,1,0.6,0.4,0.6,0.4,1,0,,,,,,,,,,,,,,,,,,,,,,,,,,,,,,,,,,,,
,,66a8e7a8b988a204c34be465,66daf7c4e70478d2ba52f9c3,2024-09-06_14h59.08.486,mdp,2024.2.1,Win32,59.88023952,66d7945b1baad48e845df3ce,,,,,,,,,,,,,,,,,,,,,350.2689,350.2689,350.2703,351.0015,1,0,right,0.2015,,351.0039,351.007,,0,,351.0092,351.0107,,0,,1,351.0108,351.0108,351.0118,352.5012,0,42,42,42,1,0.8,0.2,0.8,0.2,1,0,,,,,,,,,,,,,,,,,,,,,,,,,,,,,,,,,,,,
,,66a8e7a8b988a204c34be465,66daf7c4e70478d2ba52f9c3,2024-09-06_14h59.08.486,mdp,2024.2.1,Win32,59.88023952,66d7945b1baad48e845df3ce,,,,,,,,,,,,,,,,,,,,,352.5018,352.5018,352.5032,353.1511,1,0,right,0.1182,,353.1536,353.1564,,0,,353.1579,353.1592,,0,,1,353.1593,353.1593,353.1604,354.6511,0,43,43,43,1,0.8,0.2,0.8,0.2,1,0,,,,,,,,,,,,,,,,,,,,,,,,,,,,,,,,,,,,
,,66a8e7a8b988a204c34be465,66daf7c4e70478d2ba52f9c3,2024-09-06_14h59.08.486,mdp,2024.2.1,Win32,59.88023952,66d7945b1baad48e845df3ce,,,,,,,,,,,,,,,,,,,,,354.6518,354.6518,354.6534,355.4675,1,0,right,0.2893,,355.4694,355.4707,,0,,355.4732,355.4743,,0,,1,355.4744,355.4744,355.4751,356.9675,0,44,44,44,1,0.8,0.2,0.8,0.2,1,0,,,,,,,,,,,,,,,,,,,,,,,,,,,,,,,,,,,,
,,66a8e7a8b988a204c34be465,66daf7c4e70478d2ba52f9c3,2024-09-06_14h59.08.486,mdp,2024.2.1,Win32,59.88023952,66d7945b1baad48e845df3ce,,,,,,,,,,,,,,,,,,,,,356.9681,356.9681,356.9703,357.8176,1,0,right,0.3181,,357.8195,357.821,,0,,357.8238,357.8251,,0,,1,357.8252,357.8252,357.8261,359.317,0,45,45,45,1,0.8,0.2,0.8,0.2,1,0,,,,,,,,,,,,,,,,,,,,,,,,,,,,,,,,,,,,
,,66a8e7a8b988a204c34be465,66daf7c4e70478d2ba52f9c3,2024-09-06_14h59.08.486,mdp,2024.2.1,Win32,59.88023952,66d7945b1baad48e845df3ce,,,,,,,,,,,,,,,,,,,,,359.3177,359.3177,359.3191,360.1501,1,0,right,0.303,,360.1518,360.153,,0,,360.1539,360.1553,,0,,1,360.1554,360.1555,360.1567,361.6509,0,46,46,46,1,0.8,0.2,0.8,0.2,1,0,,,,,,,,,,,,,,,,,,,,,,,,,,,,,,,,,,,,
,,66a8e7a8b988a204c34be465,66daf7c4e70478d2ba52f9c3,2024-09-06_14h59.08.486,mdp,2024.2.1,Win32,59.88023952,66d7945b1baad48e845df3ce,,,,,,,,,,,,,,,,,,,,,361.6516,361.6516,361.6533,362.5508,1,0,right,0.3693,,362.5526,362.5543,,0,,362.5569,362.5581,,1,,1,362.5581,362.5581,362.559,364.0503,0,47,47,47,1,0.8,0.2,0.8,0.2,1,0,,,,,,,,,,,,,,,,,,,,,,,,,,,,,,,,,,,,
,,66a8e7a8b988a204c34be465,66daf7c4e70478d2ba52f9c3,2024-09-06_14h59.08.486,mdp,2024.2.1,Win32,59.88023952,66d7945b1baad48e845df3ce,,,,,,,,,,,,,,,,,,,,,364.0507,364.0507,364.052,365.1341,1,0,right,0.5555,,365.1351,365.1359,,1,,365.1366,365.1372,,0,,1,365.1372,365.1373,365.1379,366.6333,0,48,48,48,1,0.8,0.2,0.8,0.2,1,0,,,,,,,,,,,,,,,,,,,,,,,,,,,,,,,,,,,,
,,66a8e7a8b988a204c34be465,66daf7c4e70478d2ba52f9c3,2024-09-06_14h59.08.486,mdp,2024.2.1,Win32,59.88023952,66d7945b1baad48e845df3ce,,,,,,,,,,,,,,,,,,,,,366.634,366.634,366.6361,368.2003,1,0,right,1.0408,,368.2021,368.2035,,0,,368.205,368.2071,,0,,1,368.2072,368.2073,368.208,369.6998,0,49,49,49,1,0.8,0.2,0.8,0.2,1,0,,,,,,,,,,,,,,,,,,,,,,,,,,,,,,,,,,,,
,,66a8e7a8b988a204c34be465,66daf7c4e70478d2ba52f9c3,2024-09-06_14h59.08.486,mdp,2024.2.1,Win32,59.88023952,66d7945b1baad48e845df3ce,,,,,,,,,,,,,,,,,,,,,,,,,,,,,,,,,,,,,,,,,,,,,,,,,,,,,,,,369.7013,428.2148,0,0,0,2,1,imgs/goat.png,imgs/lion.png,imgs/giraffe.png,imgs/dog.png,imgs/bear.png,,,,,,,,,,,,,,,,,,,,,,,,
,,66a8e7a8b988a204c34be465,66daf7c4e70478d2ba52f9c3,2024-09-06_14h59.08.486,mdp,2024.2.1,Win32,59.88023952,66d7945b1baad48e845df3ce,,,,,,,,,,,,,,2,seqs/st2seq8.csv,428.243,430.2475,space,1.4832,,430.2567,430.2567,430.2585,435.8807,1,1,right,5.0958,,435.8925,436.5144,1,1,right,436.5154,436.5163,,1,,0,436.5163,436.5163,436.5169,438.0131,0,0,0,0,1,0.8,0.2,0.2,0.8,,,,,,,,,,,,,,,0.0971,,0.4,0.6,0.8,0.2,0.4,0.6,0.8,0.2,1,0,,,,,,,,,,,,
,,66a8e7a8b988a204c34be465,66daf7c4e70478d2ba52f9c3,2024-09-06_14h59.08.486,mdp,2024.2.1,Win32,59.88023952,66d7945b1baad48e845df3ce,,,,,,,,,,,,,,,,,,,,,438.014,438.014,438.0156,439.2967,1,0,right,0.753,,439.2975,439.9462,1,0,right,439.9474,439.9484,,0,,1,439.9484,439.9484,439.949,441.4463,0,1,1,1,1,0.8,0.2,0.2,0.8,,,,,,,,,,,,,,,0.0701,,0.4,0.6,0.8,0.2,0.4,0.6,0.8,0.2,1,0,,,,,,,,,,,,
,,66a8e7a8b988a204c34be465,66daf7c4e70478d2ba52f9c3,2024-09-06_14h59.08.486,mdp,2024.2.1,Win32,59.88023952,66d7945b1baad48e845df3ce,,,,,,,,,,,,,,,,,,,,,441.447,441.447,441.4484,442.5297,1,1,right,0.5538,,442.5306,443.1129,1,0,right,443.1155,443.1174,,0,,1,443.1175,443.1176,443.1193,444.6134,0,2,2,2,1,0.8,0.2,0.2,0.8,,,,,,,,,,,,,,,0.0477,,0.4,0.6,0.8,0.2,0.4,0.6,0.8,0.2,1,0,,,,,,,,,,,,
,,66a8e7a8b988a204c34be465,66daf7c4e70478d2ba52f9c3,2024-09-06_14h59.08.486,mdp,2024.2.1,Win32,59.88023952,66d7945b1baad48e845df3ce,,,,,,,,,,,,,,,,,,,,,444.6141,444.6142,444.6164,445.3468,1,0,right,0.2016,,445.3491,446.0631,1,0,right,446.0654,446.0671,,0,,1,446.0671,446.0671,446.0685,447.5626,0,3,3,3,1,0.8,0.2,0.2,0.8,,,,,,,,,,,,,,,0.1792,,0.4,0.6,0.8,0.2,0.6,0.4,0.4,0.6,1,0,,,,,,,,,,,,
,,66a8e7a8b988a204c34be465,66daf7c4e70478d2ba52f9c3,2024-09-06_14h59.08.486,mdp,2024.2.1,Win32,59.88023952,66d7945b1baad48e845df3ce,,,,,,,,,,,,,,,,,,,,,447.5634,447.5635,447.565,451.0639,1,1,right,2.9751,,451.0902,451.6793,1,0,right,451.6811,451.6829,,1,,1,451.683,451.683,451.6843,453.179,0,4,4,4,1,0.8,0.2,0.2,0.8,,,,,,,,,,,,,,,0.0742,,0.4,0.6,0.8,0.2,0.6,0.4,0.4,0.6,1,0,,,,,,,,,,,,
,,66a8e7a8b988a204c34be465,66daf7c4e70478d2ba52f9c3,2024-09-06_14h59.08.486,mdp,2024.2.1,Win32,59.88023952,66d7945b1baad48e845df3ce,,,,,,,,,,,,,,,,,,,,,453.1797,453.1797,453.1808,454.0455,1,1,right,0.3354,,454.0466,454.5795,1,1,right,454.5811,454.5823,,0,,0,454.5824,454.5824,454.5835,456.0792,0,5,5,5,1,0.8,0.2,0.2,0.8,,,,,,,,,,,,,,,0.0012,,0.4,0.6,0.8,0.2,0.6,0.4,0.4,0.6,1,0,,,,,,,,,,,,
,,66a8e7a8b988a204c34be465,66daf7c4e70478d2ba52f9c3,2024-09-06_14h59.08.486,mdp,2024.2.1,Win32,59.88023952,66d7945b1baad48e845df3ce,,,,,,,,,,,,,,,,,,,,,456.08,456.08,456.0816,457.0459,1,1,right,0.4404,,457.0476,457.5795,1,0,right,457.5818,457.5835,,1,,1,457.5837,457.5837,457.5852,459.0786,0,6,6,6,1,0.8,0.2,0.2,0.8,,,,,,,,,,,,,,,0.0047,,0.4,0.6,0.8,0.2,0.6,0.4,0.4,0.6,1,0,,,,,,,,,,,,
,,66a8e7a8b988a204c34be465,66daf7c4e70478d2ba52f9c3,2024-09-06_14h59.08.486,mdp,2024.2.1,Win32,59.88023952,66d7945b1baad48e845df3ce,,,,,,,,,,,,,,,,,,,,,459.0793,459.0793,459.0822,459.7461,1,1,right,0.1332,,459.7473,460.7785,1,0,right,460.7798,460.781,,1,,1,460.781,460.781,460.7818,462.2782,0,7,7,7,1,0.8,0.2,0.2,0.8,,,,,,,,,,,,,,,0.4965,,0.4,0.6,0.8,0.2,0.6,0.4,0.4,0.6,1,0,,,,,,,,,,,,
,,66a8e7a8b988a204c34be465,66daf7c4e70478d2ba52f9c3,2024-09-06_14h59.08.486,mdp,2024.2.1,Win32,59.88023952,66d7945b1baad48e845df3ce,,,,,,,,,,,,,,,,,,,,,462.2785,462.2785,462.2793,463.0622,1,1,right,0.2596,,463.0645,463.9792,1,1,right,463.9819,463.9832,,1,,0,463.9832,463.9832,463.9845,465.4787,0,8,8,8,1,0.8,0.2,0.2,0.8,,,,,,,,,,,,,,,0.3841,,0.4,0.6,0.8,0.2,0.8,0.2,0.2,0.8,1,0,,,,,,,,,,,,
,,66a8e7a8b988a204c34be465,66daf7c4e70478d2ba52f9c3,2024-09-06_14h59.08.486,mdp,2024.2.1,Win32,59.88023952,66d7945b1baad48e845df3ce,,,,,,,,,,,,,,,,,,,,,465.4795,465.4795,465.4809,466.2783,1,1,right,0.258,,466.2802,468.6782,1,1,right,468.7102,468.7117,,1,,0,468.7118,468.7118,468.7129,470.2114,0,9,9,9,1,0.8,0.2,0.2,0.8,,,,,,,,,,,,,,,1.8895,,0.4,0.6,0.8,0.2,0.8,0.2,0.2,0.8,1,0,,,,,,,,,,,,
,,66a8e7a8b988a204c34be465,66daf7c4e70478d2ba52f9c3,2024-09-06_14h59.08.486,mdp,2024.2.1,Win32,59.88023952,66d7945b1baad48e845df3ce,,,,,,,,,,,,,,,,,,,,,470.2118,470.2119,470.213,474.8277,1,1,right,4.0828,,474.8427,487.0273,1,1,right,487.0552,487.0565,,0,,0,487.0565,487.0566,487.0576,488.5602,0,10,10,10,1,0.8,0.2,0.2,0.8,,,,,,,,,,,,,,,11.6849,,0.4,0.6,0.8,0.2,0.8,0.2,0.2,0.8,1,0,,,,,,,,,,,,
,,66a8e7a8b988a204c34be465,66daf7c4e70478d2ba52f9c3,2024-09-06_14h59.08.486,mdp,2024.2.1,Win32,59.88023952,66d7945b1baad48e845df3ce,,,,,,,,,,,,,,,,,,,,,488.5608,488.5608,488.5621,490.2139,1,0,right,1.127,,490.2151,490.7612,1,0,right,490.7634,490.7646,,0,,1,490.7647,490.7647,490.7658,492.2618,0,11,11,11,1,0.8,0.2,0.2,0.8,,,,,,,,,,,,,,,0.0133,,0.4,0.6,0.8,0.2,0.8,0.2,0.2,0.8,1,0,,,,,,,,,,,,
,,66a8e7a8b988a204c34be465,66daf7c4e70478d2ba52f9c3,2024-09-06_14h59.08.486,mdp,2024.2.1,Win32,59.88023952,66d7945b1baad48e845df3ce,,,,,,,,,,,,,,,,,,,,,492.2624,492.2624,492.264,492.93,1,1,right,0.134,,492.9317,493.56,1,1,right,493.5632,493.565,,1,,0,493.5651,493.5651,493.5667,495.0612,0,12,12,12,1,0.2,0.8,0.8,0.2,,,,,,,,,,,,,,,0.0896,,0.4,0.6,0.8,0.2,0.8,0.2,0.2,0.8,1,0,,,,,,,,,,,,
,,66a8e7a8b988a204c34be465,66daf7c4e70478d2ba52f9c3,2024-09-06_14h59.08.486,mdp,2024.2.1,Win32,59.88023952,66d7945b1baad48e845df3ce,,,,,,,,,,,,,,,,,,,,,495.0617,495.0617,495.0632,495.7096,1,0,right,0.1223,,495.7116,496.2934,1,0,right,496.2961,496.2982,,0,,1,496.2983,496.2983,496.3001,497.7936,0,13,13,13,1,0.2,0.8,0.8,0.2,,,,,,,,,,,,,,,0.0397,,0.4,0.6,0.8,0.2,0.2,0.8,0.8,0.2,1,0,,,,,,,,,,,,
,,66a8e7a8b988a204c34be465,66daf7c4e70478d2ba52f9c3,2024-09-06_14h59.08.486,mdp,2024.2.1,Win32,59.88023952,66d7945b1baad48e845df3ce,,,,,,,,,,,,,,,,,,,,,497.7944,497.7944,497.796,498.4764,1,0,right,0.144,,498.478,499.0433,1,0,right,499.0461,499.0475,,1,,1,499.0476,499.0476,499.0488,500.5432,0,14,14,14,1,0.2,0.8,0.8,0.2,,,,,,,,,,,,,,,0.0516,,0.4,0.6,0.8,0.2,0.2,0.8,0.8,0.2,1,0,,,,,,,,,,,,
,,66a8e7a8b988a204c34be465,66daf7c4e70478d2ba52f9c3,2024-09-06_14h59.08.486,mdp,2024.2.1,Win32,59.88023952,66d7945b1baad48e845df3ce,,,,,,,,,,,,,,,,,,,,,500.544,500.544,500.5459,501.1766,1,0,right,0.1058,,501.1784,501.7931,1,0,right,501.7944,501.7953,,0,,1,501.7953,501.7953,501.7961,503.2931,0,15,15,15,1,0.2,0.8,0.8,0.2,,,,,,,,,,,,,,,0.0864,,0.4,0.6,0.8,0.2,0.4,0.6,0.4,0.6,1,0,,,,,,,,,,,,
,,66a8e7a8b988a204c34be465,66daf7c4e70478d2ba52f9c3,2024-09-06_14h59.08.486,mdp,2024.2.1,Win32,59.88023952,66d7945b1baad48e845df3ce,,,,,,,,,,,,,,,,,,,,,503.2938,503.2938,503.2954,503.9308,1,0,right,0.1109,,503.932,504.8937,1,0,right,504.8954,504.8969,,0,,1,504.8969,504.897,504.898,506.3927,0,16,16,16,1,0.2,0.8,0.8,0.2,,,,,,,,,,,,,,,0.4417,,0.4,0.6,0.8,0.2,0.4,0.6,0.4,0.6,1,0,,,,,,,,,,,,
,,66a8e7a8b988a204c34be465,66daf7c4e70478d2ba52f9c3,2024-09-06_14h59.08.486,mdp,2024.2.1,Win32,59.88023952,66d7945b1baad48e845df3ce,,,,,,,,,,,,,,,,,,,,,506.3931,506.3931,506.3942,507.6763,1,0,right,0.7549,,507.678,508.7425,1,0,right,508.7435,508.745,,0,,1,508.745,508.745,508.7464,510.2429,0,17,17,17,1,0.2,0.8,0.8,0.2,,,,,,,,,,,,,,,0.5252,,0.4,0.6,0.8,0.2,0.4,0.6,0.4,0.6,1,0,,,,,,,,,,,,
,,66a8e7a8b988a204c34be465,66daf7c4e70478d2ba52f9c3,2024-09-06_14h59.08.486,mdp,2024.2.1,Win32,59.88023952,66d7945b1baad48e845df3ce,,,,,,,,,,,,,,,,,,,,,510.2437,510.2437,510.2463,511.276,1,0,right,0.4949,,511.2782,511.9602,1,0,right,511.9619,511.9636,,0,,1,511.9636,511.9636,511.9648,513.4591,0,18,18,18,1,0.2,0.8,0.8,0.2,,,,,,,,,,,,,,,0.1736,,0.4,0.6,0.8,0.2,0.4,0.6,0.4,0.6,1,0,,,,,,,,,,,,
,,66a8e7a8b988a204c34be465,66daf7c4e70478d2ba52f9c3,2024-09-06_14h59.08.486,mdp,2024.2.1,Win32,59.88023952,66d7945b1baad48e845df3ce,,,,,,,,,,,,,,,,,,,,,513.4596,513.4596,513.4615,514.9927,1,0,right,1.0023,,514.9944,515.6437,1,0,right,515.6453,515.6462,,1,,1,515.6463,515.6463,515.6472,517.144,0,19,19,19,1,0.2,0.8,0.8,0.2,,,,,,,,,,,,,,,0.1357,,0.4,0.6,0.8,0.2,0.4,0.6,0.4,0.6,1,0,,,,,,,,,,,,
,,66a8e7a8b988a204c34be465,66daf7c4e70478d2ba52f9c3,2024-09-06_14h59.08.486,mdp,2024.2.1,Win32,59.88023952,66d7945b1baad48e845df3ce,,,,,,,,,,,,,,,,,,,,,517.1444,517.1444,517.1452,519.2593,0,1,left,1.5864,,519.2907,520.1981,1,1,right,520.2002,520.2018,,0,,0,520.2018,520.2018,520.2032,521.6918,0,20,20,20,1,0.2,0.8,0.8,0.2,,,,,,,,,,,,,,,0.4008,,0.4,0.6,0.8,0.2,0.4,0.6,0.4,0.6,1,0,,,,,,,,,,,,
,,66a8e7a8b988a204c34be465,66daf7c4e70478d2ba52f9c3,2024-09-06_14h59.08.486,mdp,2024.2.1,Win32,59.88023952,66d7945b1baad48e845df3ce,,,,,,,,,,,,,,,,,,,,,521.6921,521.6921,521.693,526.6915,1,0,right,4.4675,,526.7091,528.7421,1,1,right,528.7441,528.7461,,0,,0,528.7462,528.7462,528.7476,530.2478,0,21,21,21,1,0.2,0.8,0.8,0.2,,,,,,,,,,,,,,,1.5168,,0.4,0.6,0.8,0.2,0.4,0.6,0.4,0.6,1,0,,,,,,,,,,,,
,,66a8e7a8b988a204c34be465,66daf7c4e70478d2ba52f9c3,2024-09-06_14h59.08.486,mdp,2024.2.1,Win32,59.88023952,66d7945b1baad48e845df3ce,,,,,,,,,,,,,,,,,,,,,530.2486,530.2486,530.2501,530.9415,1,1,right,0.173,,530.943,531.6749,1,0,right,531.6768,531.678,,0,,1,531.6781,531.6781,531.6792,533.1746,0,22,22,22,1,0.2,0.8,0.8,0.2,,,,,,,,,,,,,,,0.1852,,0.4,0.6,0.8,0.2,0.2,0.8,0.8,0.2,1,0,,,,,,,,,,,,
,,66a8e7a8b988a204c34be465,66daf7c4e70478d2ba52f9c3,2024-09-06_14h59.08.486,mdp,2024.2.1,Win32,59.88023952,66d7945b1baad48e845df3ce,,,,,,,,,,,,,,,,,,,,,533.1753,533.1753,533.1774,533.7984,1,0,right,0.0981,,533.8005,534.3579,1,0,right,534.3602,534.3613,,0,,1,534.3614,534.3614,534.3624,535.858,0,23,23,23,1,0.2,0.8,0.8,0.2,,,,,,,,,,,,,,,0.0217,,0.4,0.6,0.8,0.2,0.2,0.8,0.8,0.2,1,0,,,,,,,,,,,,
,,66a8e7a8b988a204c34be465,66daf7c4e70478d2ba52f9c3,2024-09-06_14h59.08.486,mdp,2024.2.1,Win32,59.88023952,66d7945b1baad48e845df3ce,,,,,,,,,,,,,,,,,,,,,535.8587,535.8587,535.8603,540.6912,1,0,right,4.3036,,540.6931,541.324,1,0,right,541.325,541.3258,,0,,1,541.3259,541.3259,541.3264,542.824,0,24,24,24,1,0.2,0.8,0.8,0.2,,,,,,,,,,,,,,,0.1046,,0.4,0.6,0.8,0.2,0.2,0.8,0.8,0.2,1,0,,,,,,,,,,,,
,,66a8e7a8b988a204c34be465,66daf7c4e70478d2ba52f9c3,2024-09-06_14h59.08.486,mdp,2024.2.1,Win32,59.88023952,66d7945b1baad48e845df3ce,,,,,,,,,,,,,,,,,,,,,542.8245,542.8245,542.8256,543.391,1,1,right,0.0219,,543.393,544.0289,1,1,right,544.0306,544.0318,,0,,0,544.032,544.032,544.033,545.524,0,25,25,25,1,0.8,0.2,0.2,0.8,,,,,,,,,,,,,,,0.0966,,0.4,0.6,0.8,0.2,0.2,0.8,0.8,0.2,1,0,,,,,,,,,,,,
,,66a8e7a8b988a204c34be465,66daf7c4e70478d2ba52f9c3,2024-09-06_14h59.08.486,mdp,2024.2.1,Win32,59.88023952,66d7945b1baad48e845df3ce,,,,,,,,,,,,,,,,,,,,,545.5246,545.5246,545.5259,546.191,1,1,right,0.1354,,546.1935,546.8736,1,1,right,546.8746,546.8753,,0,,0,546.8754,546.8754,546.8758,548.3739,0,26,26,26,1,0.8,0.2,0.2,0.8,,,,,,,,,,,,,,,0.1539,,0.4,0.6,0.8,0.2,0.2,0.8,0.8,0.2,1,0,,,,,,,,,,,,
,,66a8e7a8b988a204c34be465,66daf7c4e70478d2ba52f9c3,2024-09-06_14h59.08.486,mdp,2024.2.1,Win32,59.88023952,66d7945b1baad48e845df3ce,,,,,,,,,,,,,,,,,,,,,548.3745,548.3745,548.3764,550.2404,1,1,right,1.3337,,550.242,550.8239,1,0,right,550.8251,550.8259,,1,,1,550.8259,550.8259,550.8266,552.3244,0,27,27,27,1,0.8,0.2,0.2,0.8,,,,,,,,,,,,,,,0.06,,0.4,0.6,0.8,0.2,0.2,0.8,0.8,0.2,1,0,,,,,,,,,,,,
,,66a8e7a8b988a204c34be465,66daf7c4e70478d2ba52f9c3,2024-09-06_14h59.08.486,mdp,2024.2.1,Win32,59.88023952,66d7945b1baad48e845df3ce,,,,,,,,,,,,,,,,,,,,,552.3252,552.3252,552.327,552.9576,1,1,right,0.1017,,552.9593,553.5408,1,0,right,553.5425,553.5438,,0,,1,553.5439,553.544,553.545,555.0405,0,28,28,28,1,0.8,0.2,0.2,0.8,,,,,,,,,,,,,,,0.051,,0.4,0.6,0.8,0.2,0.2,0.8,0.8,0.2,1,0,,,,,,,,,,,,
,,66a8e7a8b988a204c34be465,66daf7c4e70478d2ba52f9c3,2024-09-06_14h59.08.486,mdp,2024.2.1,Win32,59.88023952,66d7945b1baad48e845df3ce,,,,,,,,,,,,,,,,,,,,,555.0412,555.0413,555.043,555.6576,1,1,right,0.0862,,555.6598,557.0153,0,1,left,557.0171,557.0183,,1,,0,557.0184,557.0184,557.0195,558.5075,0,29,29,29,1,0.8,0.2,0.2,0.8,,,,,,,,,,,,,,,0.8236,,0.4,0.6,0.8,0.2,0.2,0.8,0.8,0.2,1,0,,,,,,,,,,,,
,,66a8e7a8b988a204c34be465,66daf7c4e70478d2ba52f9c3,2024-09-06_14h59.08.486,mdp,2024.2.1,Win32,59.88023952,66d7945b1baad48e845df3ce,,,,,,,,,,,,,,,,,,,,,558.5082,558.5083,558.5115,559.0759,1,1,right,0.0416,,559.0789,559.8072,1,0,right,559.8097,559.8111,,0,,1,559.8111,559.8111,559.812,561.3068,0,30,30,30,1,0.2,0.8,0.8,0.2,,,,,,,,,,,,,,,0.2007,,0.4,0.6,0.8,0.2,0.2,0.8,0.8,0.2,1,0,,,,,,,,,,,,
,,66a8e7a8b988a204c34be465,66daf7c4e70478d2ba52f9c3,2024-09-06_14h59.08.486,mdp,2024.2.1,Win32,59.88023952,66d7945b1baad48e845df3ce,,,,,,,,,,,,,,,,,,,,,561.3082,561.3082,561.3098,561.9572,1,0,right,0.1181,,561.959,562.5151,1,1,right,562.5166,562.5177,,0,,0,562.5178,562.5178,562.5187,564.0078,0,31,31,31,1,0.2,0.8,0.8,0.2,,,,,,,,,,,,,,,0.0344,,0.6,0.4,0.6,0.4,0.2,0.8,0.8,0.2,1,0,,,,,,,,,,,,
,,66a8e7a8b988a204c34be465,66daf7c4e70478d2ba52f9c3,2024-09-06_14h59.08.486,mdp,2024.2.1,Win32,59.88023952,66d7945b1baad48e845df3ce,,,,,,,,,,,,,,,,,,,,,564.0088,564.0088,564.0108,564.6651,1,0,right,0.1301,,564.6666,565.4094,1,0,right,565.4111,565.4133,,0,,1,565.4134,565.4134,565.4146,566.9075,0,32,32,32,1,0.2,0.8,0.8,0.2,,,,,,,,,,,,,,,0.216,,0.6,0.4,0.6,0.4,0.2,0.8,0.8,0.2,1,0,,,,,,,,,,,,
,,66a8e7a8b988a204c34be465,66daf7c4e70478d2ba52f9c3,2024-09-06_14h59.08.486,mdp,2024.2.1,Win32,59.88023952,66d7945b1baad48e845df3ce,,,,,,,,,,,,,,,,,,,,,566.9084,566.9085,566.9105,567.5574,1,0,right,0.1181,,567.5593,568.148,1,1,right,568.1498,568.151,,0,,0,568.1511,568.1511,568.1521,569.6401,0,33,33,33,1,0.2,0.8,0.8,0.2,,,,,,,,,,,,,,,0.0564,,0.6,0.4,0.6,0.4,0.2,0.8,0.8,0.2,1,0,,,,,,,,,,,,
,,66a8e7a8b988a204c34be465,66daf7c4e70478d2ba52f9c3,2024-09-06_14h59.08.486,mdp,2024.2.1,Win32,59.88023952,66d7945b1baad48e845df3ce,,,,,,,,,,,,,,,,,,,,,569.6407,569.6407,569.6428,570.2241,1,0,right,0.0529,,570.2257,570.9238,1,0,right,570.9256,570.9271,,1,,1,570.9272,570.9272,570.9283,572.4234,0,34,34,34,1,0.2,0.8,0.8,0.2,,,,,,,,,,,,,,,0.1703,,0.6,0.4,0.6,0.4,0.2,0.8,0.8,0.2,1,0,,,,,,,,,,,,
,,66a8e7a8b988a204c34be465,66daf7c4e70478d2ba52f9c3,2024-09-06_14h59.08.486,mdp,2024.2.1,Win32,59.88023952,66d7945b1baad48e845df3ce,,,,,,,,,,,,,,,,,,,,,572.4238,572.4238,572.4247,573.1144,1,1,right,0.1609,,573.1155,573.6904,1,0,right,573.6918,573.6929,,0,,1,573.693,573.693,573.694,575.1913,0,35,35,35,1,0.6,0.4,0.2,0.8,,,,,,,,,,,,,,,0.0368,,0.6,0.4,0.6,0.4,0.2,0.8,0.8,0.2,1,0,,,,,,,,,,,,
,,66a8e7a8b988a204c34be465,66daf7c4e70478d2ba52f9c3,2024-09-06_14h59.08.486,mdp,2024.2.1,Win32,59.88023952,66d7945b1baad48e845df3ce,,,,,,,,,,,,,,,,,,,,,575.1918,575.1918,575.1937,575.7568,1,1,right,0.0356,,575.7585,576.357,1,0,right,576.3584,576.3593,,0,,1,576.3594,576.3594,576.36,577.8569,0,36,36,36,1,0.6,0.4,0.2,0.8,,,,,,,,,,,,,,,0.0546,,0.6,0.4,0.6,0.4,0.2,0.8,0.8,0.2,1,0,,,,,,,,,,,,
,,66a8e7a8b988a204c34be465,66daf7c4e70478d2ba52f9c3,2024-09-06_14h59.08.486,mdp,2024.2.1,Win32,59.88023952,66d7945b1baad48e845df3ce,,,,,,,,,,,,,,,,,,,,,577.8574,577.8574,577.8583,578.5736,1,1,right,0.186,,578.5749,579.3232,1,0,right,579.3246,579.3256,,1,,1,579.3256,579.3257,579.3263,580.8312,0,37,37,37,1,0.6,0.4,0.2,0.8,,,,,,,,,,,,,,,0.2174,,0.6,0.4,0.6,0.4,0.2,0.8,0.8,0.2,1,0,,,,,,,,,,,,
,,66a8e7a8b988a204c34be465,66daf7c4e70478d2ba52f9c3,2024-09-06_14h59.08.486,mdp,2024.2.1,Win32,59.88023952,66d7945b1baad48e845df3ce,,,,,,,,,,,,,,,,,,,,,580.8317,580.8317,580.8329,581.4066,1,1,right,0.037,,581.4078,582.7071,1,0,right,582.709,582.7102,,0,,1,582.7103,582.7103,582.712,584.2071,0,38,38,38,1,0.6,0.4,0.2,0.8,,,,,,,,,,,,,,,0.7601,,0.8,0.2,0.8,0.2,0.2,0.8,0.8,0.2,1,0,,,,,,,,,,,,
,,66a8e7a8b988a204c34be465,66daf7c4e70478d2ba52f9c3,2024-09-06_14h59.08.486,mdp,2024.2.1,Win32,59.88023952,66d7945b1baad48e845df3ce,,,,,,,,,,,,,,,,,,,,,584.2079,584.208,584.2102,587.5899,1,0,right,2.8518,,587.6218,588.2383,1,0,right,588.2396,588.2425,,0,,1,588.2425,588.2425,588.2434,589.7383,0,39,39,39,1,0.6,0.4,0.2,0.8,,,,,,,,,,,,,,,0.1088,,0.8,0.2,0.8,0.2,0.2,0.8,0.8,0.2,1,0,,,,,,,,,,,,
,,66a8e7a8b988a204c34be465,66daf7c4e70478d2ba52f9c3,2024-09-06_14h59.08.486,mdp,2024.2.1,Win32,59.88023952,66d7945b1baad48e845df3ce,,,,,,,,,,,,,,,,,,,,,589.7389,589.7389,589.7401,590.5715,1,1,right,0.3063,,590.5729,591.4381,1,0,right,591.4395,591.4419,,0,,1,591.4422,591.4422,591.443,592.948,0,40,40,40,1,0.6,0.4,0.2,0.8,,,,,,,,,,,,,,,0.3267,,0.8,0.2,0.8,0.2,0.2,0.8,0.8,0.2,1,0,,,,,,,,,,,,
,,66a8e7a8b988a204c34be465,66daf7c4e70478d2ba52f9c3,2024-09-06_14h59.08.486,mdp,2024.2.1,Win32,59.88023952,66d7945b1baad48e845df3ce,,,,,,,,,,,,,,,,,,,,,592.9487,592.9487,592.9509,593.7548,1,0,right,0.29,,593.7574,594.5563,1,0,right,594.5589,594.5603,,0,,1,594.5603,594.5604,594.5615,596.0554,0,41,41,41,1,0.6,0.4,0.2,0.8,,,,,,,,,,,,,,,0.2557,,0.8,0.2,0.8,0.2,0.2,0.8,0.8,0.2,1,0,,,,,,,,,,,,
,,66a8e7a8b988a204c34be465,66daf7c4e70478d2ba52f9c3,2024-09-06_14h59.08.486,mdp,2024.2.1,Win32,59.88023952,66d7945b1baad48e845df3ce,,,,,,,,,,,,,,,,,,,,,596.0568,596.0568,596.0587,596.8396,1,1,right,0.2361,,596.8418,597.3732,1,0,right,597.3761,597.3769,,0,,1,597.3769,597.3769,597.3775,598.8728,0,42,42,42,1,0.6,0.4,0.2,0.8,,,,,,,,,,,,,,,0.0093,,0.8,0.2,0.8,0.2,0.2,0.8,0.8,0.2,1,0,,,,,,,,,,,,
,,66a8e7a8b988a204c34be465,66daf7c4e70478d2ba52f9c3,2024-09-06_14h59.08.486,mdp,2024.2.1,Win32,59.88023952,66d7945b1baad48e845df3ce,,,,,,,,,,,,,,,,,,,,,598.8739,598.8739,598.8755,599.5725,1,1,right,0.1692,,599.5747,600.2565,1,0,right,600.259,600.2603,,0,,1,600.2604,600.2604,600.2615,601.7563,0,43,43,43,1,0.6,0.4,0.2,0.8,,,,,,,,,,,,,,,0.17,,0.8,0.2,0.8,0.2,0.2,0.8,0.8,0.2,1,0,,,,,,,,,,,,
,,66a8e7a8b988a204c34be465,66daf7c4e70478d2ba52f9c3,2024-09-06_14h59.08.486,mdp,2024.2.1,Win32,59.88023952,66d7945b1baad48e845df3ce,,,,,,,,,,,,,,,,,,,,,601.7572,601.7572,601.7593,602.3211,1,1,right,0.0318,,602.3238,603.071,1,0,right,603.0721,603.0741,,0,,1,603.0744,603.0745,603.0753,604.5709,0,44,44,44,1,0.6,0.4,0.2,0.8,,,,,,,,,,,,,,,0.215,,0.8,0.2,0.8,0.2,0.2,0.8,0.8,0.2,1,0,,,,,,,,,,,,
,,66a8e7a8b988a204c34be465,66daf7c4e70478d2ba52f9c3,2024-09-06_14h59.08.486,mdp,2024.2.1,Win32,59.88023952,66d7945b1baad48e845df3ce,,,,,,,,,,,,,,,,,,,,,604.5718,604.5719,604.5746,605.1147,1,1,right,0.0251,,605.1166,605.7059,1,0,right,605.7083,605.71,,0,,1,605.7101,605.7101,605.7111,607.204,0,45,45,45,1,0.6,0.4,0.2,0.8,,,,,,,,,,,,,,,0.0668,,0.8,0.2,0.8,0.2,0.2,0.8,0.8,0.2,1,0,,,,,,,,,,,,
,,66a8e7a8b988a204c34be465,66daf7c4e70478d2ba52f9c3,2024-09-06_14h59.08.486,mdp,2024.2.1,Win32,59.88023952,66d7945b1baad48e845df3ce,,,,,,,,,,,,,,,,,,,,,607.2056,607.2057,607.2077,607.9378,1,1,right,0.215,,607.9407,608.6233,1,0,right,608.6248,608.626,,0,,1,608.626,608.626,608.6272,610.1222,0,46,46,46,1,0.6,0.4,0.2,0.8,,,,,,,,,,,,,,,0.1566,,0.8,0.2,0.8,0.2,0.2,0.8,0.8,0.2,1,0,,,,,,,,,,,,
,,66a8e7a8b988a204c34be465,66daf7c4e70478d2ba52f9c3,2024-09-06_14h59.08.486,mdp,2024.2.1,Win32,59.88023952,66d7945b1baad48e845df3ce,,,,,,,,,,,,,,,,,,,,,610.1234,610.1234,610.1253,612.2953,1,1,right,1.6476,,612.2975,612.8707,1,0,right,612.8753,612.8774,,0,,1,612.8774,612.8774,612.8785,614.3813,0,47,47,47,1,0.6,0.4,0.2,0.8,,,,,,,,,,,,,,,0.0512,,0.8,0.2,0.8,0.2,0.2,0.8,0.8,0.2,1,0,,,,,,,,,,,,
,,66a8e7a8b988a204c34be465,66daf7c4e70478d2ba52f9c3,2024-09-06_14h59.08.486,mdp,2024.2.1,Win32,59.88023952,66d7945b1baad48e845df3ce,,,,,,,,,,,,,,,,,,,,,614.382,614.382,614.3835,614.9874,1,1,right,0.0876,,614.9902,615.6713,1,0,right,615.6737,615.6772,,0,,1,615.6773,615.6773,615.6784,617.17,0,48,48,48,1,0.6,0.4,0.2,0.8,,,,,,,,,,,,,,,0.1744,,0.8,0.2,0.8,0.2,0.2,0.8,0.8,0.2,1,0,,,,,,,,,,,,
,,66a8e7a8b988a204c34be465,66daf7c4e70478d2ba52f9c3,2024-09-06_14h59.08.486,mdp,2024.2.1,Win32,59.88023952,66d7945b1baad48e845df3ce,,,,,,,,,,,,,,,,,,,,,617.1705,617.1705,617.1718,617.8034,1,1,right,0.0998,,617.8045,618.6872,1,0,right,618.6892,618.6924,,0,,1,618.6925,618.6926,618.6939,620.1866,0,49,49,49,1,0.6,0.4,0.2,0.8,,,,,,,,,,,,,,,0.368,,0.8,0.2,0.8,0.2,0.2,0.8,0.8,0.2,1,0,,,,,,,,,,,,
,,66a8e7a8b988a204c34be465,66daf7c4e70478d2ba52f9c3,2024-09-06_14h59.08.486,mdp,2024.2.1,Win32,59.88023952,66d7945b1baad48e845df3ce,,,,,,,,,,,,,,,,,,,,,,,,,,,,,,,,,,,,,,,,,,,,,,,,,,,,,,,,620.1868,678.7005,0,1,1,1,1,imgs/giraffe.png,imgs/bear.png,imgs/pig.png,imgs/horse.png,imgs/kangaroo.png,,,,,,,,,,,,,,,,,,,,,,,,
,,66a8e7a8b988a204c34be465,66daf7c4e70478d2ba52f9c3,2024-09-06_14h59.08.486,mdp,2024.2.1,Win32,59.88023952,66d7945b1baad48e845df3ce,,,,,,,,,,,,,,3,seqs/st3seq20.csv,678.7295,681.1447,space,1.903,,681.1534,681.1534,681.1551,684.3446,1,1,right,2.6125,,684.3464,684.9756,1,0,right,684.9776,685.6496,1,0,right,1,685.6498,685.6498,685.651,687.1501,0,0,0,0,1,0.2,0.8,0.4,0.6,,,,,,,,,,,,,,,0.0991,,0.4,0.6,0.6,0.4,0.8,0.2,0.6,0.4,,,0.1039,,0.4,0.6,0.8,0.2,0.2,0.8,0.4,0.6,1,0
,,66a8e7a8b988a204c34be465,66daf7c4e70478d2ba52f9c3,2024-09-06_14h59.08.486,mdp,2024.2.1,Win32,59.88023952,66d7945b1baad48e845df3ce,,,,,,,,,,,,,,,,,,,,,687.1505,687.1505,687.1518,687.7664,1,0,right,0.0724,,687.768,688.7,1,0,right,688.701,689.433,1,0,right,1,689.4332,689.4332,689.4345,690.9331,0,1,1,1,1,0.2,0.8,0.4,0.6,,,,,,,,,,,,,,,0.3724,,0.4,0.6,0.6,0.4,0.8,0.2,0.6,0.4,,,0.2073,,0.4,0.6,0.8,0.2,0.2,0.8,0.4,0.6,1,0
,,66a8e7a8b988a204c34be465,66daf7c4e70478d2ba52f9c3,2024-09-06_14h59.08.486,mdp,2024.2.1,Win32,59.88023952,66d7945b1baad48e845df3ce,,,,,,,,,,,,,,,,,,,,,690.9337,690.9337,690.9348,691.5333,1,1,right,0.0718,,691.535,693.8753,1,1,right,693.8769,694.7142,1,0,right,1,694.7143,694.7144,694.7156,696.2166,0,2,2,2,1,0.2,0.8,0.4,0.6,,,,,,,,,,,,,,,1.7707,,0.4,0.6,0.6,0.4,0.8,0.2,0.6,0.4,,,0.3041,,0.4,0.6,0.8,0.2,0.2,0.8,0.4,0.6,1,0
,,66a8e7a8b988a204c34be465,66daf7c4e70478d2ba52f9c3,2024-09-06_14h59.08.486,mdp,2024.2.1,Win32,59.88023952,66d7945b1baad48e845df3ce,,,,,,,,,,,,,,,,,,,,,696.2173,696.2173,696.2191,696.9095,1,0,right,0.1509,,696.9105,700.0504,1,1,right,700.0513,700.6658,1,1,right,0,700.6658,700.6658,700.6672,702.1657,0,3,3,3,1,0.2,0.8,0.4,0.6,,,,,,,,,,,,,,,2.6001,,0.4,0.6,0.6,0.4,0.8,0.2,0.6,0.4,,,0.0798,,0.4,0.6,0.8,0.2,0.2,0.8,0.4,0.6,1,0
,,66a8e7a8b988a204c34be465,66daf7c4e70478d2ba52f9c3,2024-09-06_14h59.08.486,mdp,2024.2.1,Win32,59.88023952,66d7945b1baad48e845df3ce,,,,,,,,,,,,,,,,,,,,,702.1663,702.1663,702.1671,706.8321,1,1,right,4.1433,,706.847,707.4989,1,1,right,707.5008,708.066,1,1,right,0,708.0662,708.0662,708.0678,709.5661,0,4,4,4,1,0.2,0.8,0.4,0.6,,,,,,,,,,,,,,,0.131,,0.4,0.6,0.6,0.4,0.8,0.2,0.6,0.4,,,0.0392,,0.4,0.6,0.8,0.2,0.2,0.8,0.4,0.6,1,0
,,66a8e7a8b988a204c34be465,66daf7c4e70478d2ba52f9c3,2024-09-06_14h59.08.486,mdp,2024.2.1,Win32,59.88023952,66d7945b1baad48e845df3ce,,,,,,,,,,,,,,,,,,,,,709.5669,709.5669,709.5687,710.1827,1,1,right,0.0842,,710.1846,710.7325,1,1,right,710.734,711.4323,1,1,right,0,711.4324,711.4324,711.434,712.9321,0,5,5,5,1,0.2,0.8,0.4,0.6,,,,,,,,,,,,,,,0.0174,,0.4,0.6,0.6,0.4,0.8,0.2,0.6,0.4,,,0.1769,,0.4,0.6,0.8,0.2,0.8,0.2,0.2,0.8,1,0
,,66a8e7a8b988a204c34be465,66daf7c4e70478d2ba52f9c3,2024-09-06_14h59.08.486,mdp,2024.2.1,Win32,59.88023952,66d7945b1baad48e845df3ce,,,,,,,,,,,,,,,,,,,,,712.9329,712.933,712.9346,713.6318,1,1,right,0.1665,,713.6334,714.3324,1,1,right,714.3337,715.0488,1,1,right,0,715.0489,715.0489,715.0506,716.5482,0,6,6,6,1,0.2,0.8,0.4,0.6,,,,,,,,,,,,,,,0.1679,,0.4,0.6,0.6,0.4,0.8,0.2,0.6,0.4,,,0.192,,0.4,0.6,0.8,0.2,0.8,0.2,0.2,0.8,1,0
,,66a8e7a8b988a204c34be465,66daf7c4e70478d2ba52f9c3,2024-09-06_14h59.08.486,mdp,2024.2.1,Win32,59.88023952,66d7945b1baad48e845df3ce,,,,,,,,,,,,,,,,,,,,,716.5486,716.5486,716.5498,717.265,1,1,right,0.1863,,717.2663,717.8316,1,0,right,717.8326,718.5153,1,0,right,1,718.5154,718.5155,718.5173,720.0152,0,7,7,7,1,0.2,0.8,0.4,0.6,,,,,,,,,,,,,,,0.049,,0.4,0.6,0.6,0.4,0.8,0.2,0.6,0.4,,,0.1325,,0.4,0.6,0.8,0.2,0.8,0.2,0.2,0.8,1,0
,,66a8e7a8b988a204c34be465,66daf7c4e70478d2ba52f9c3,2024-09-06_14h59.08.486,mdp,2024.2.1,Win32,59.88023952,66d7945b1baad48e845df3ce,,,,,,,,,,,,,,,,,,,,,720.0161,720.0161,720.0177,720.8653,1,0,right,0.3213,,720.8669,721.5318,1,1,right,721.5336,722.2481,1,1,right,0,722.2484,722.2484,722.2496,723.7482,0,8,8,8,1,0.2,0.8,0.4,0.6,,,,,,,,,,,,,,,0.0796,,0.4,0.6,0.6,0.4,0.8,0.2,0.6,0.4,,,0.1838,,0.4,0.6,0.8,0.2,0.8,0.2,0.2,0.8,1,0
,,66a8e7a8b988a204c34be465,66daf7c4e70478d2ba52f9c3,2024-09-06_14h59.08.486,mdp,2024.2.1,Win32,59.88023952,66d7945b1baad48e845df3ce,,,,,,,,,,,,,,,,,,,,,723.7494,723.7495,723.7508,724.3813,1,0,right,0.099,,724.3827,724.9313,1,0,right,724.9332,736.3148,1,1,right,0,736.3149,736.3149,736.325,737.8084,0,9,9,9,1,0.2,0.8,0.4,0.6,,,,,,,,,,,,,,,0.0343,,0.4,0.6,0.6,0.4,0.8,0.2,0.6,0.4,,,10.8504,,0.4,0.6,0.8,0.2,0.8,0.2,0.2,0.8,1,0
,,66a8e7a8b988a204c34be465,66daf7c4e70478d2ba52f9c3,2024-09-06_14h59.08.486,mdp,2024.2.1,Win32,59.88023952,66d7945b1baad48e845df3ce,,,,,,,,,,,,,,,,,,,,,737.8091,737.8091,737.8108,738.347,1,0,right,0.0211,,738.3484,738.8983,1,1,right,738.9003,739.7641,1,1,right,0,739.7642,739.7642,739.7657,741.264,0,10,10,10,1,0.2,0.8,0.4,0.6,,,,,,,,,,,,,,,0.0405,,0.2,0.8,0.4,0.6,0.8,0.2,0.6,0.4,,,0.3331,,0.4,0.6,0.8,0.2,0.8,0.2,0.2,0.8,1,0
,,66a8e7a8b988a204c34be465,66daf7c4e70478d2ba52f9c3,2024-09-06_14h59.08.486,mdp,2024.2.1,Win32,59.88023952,66d7945b1baad48e845df3ce,,,,,,,,,,,,,,,,,,,,,741.2649,741.2649,741.2667,742.2638,1,1,right,0.4671,,742.2656,742.847,1,1,right,742.8484,743.3802,1,1,right,0,743.3802,743.3802,743.3811,744.8804,0,11,11,11,1,0.4,0.6,0.2,0.8,,,,,,,,,,,,,,,0.0516,,0.2,0.8,0.4,0.6,0.8,0.2,0.6,0.4,,,0.0005,,0.4,0.6,0.8,0.2,0.8,0.2,0.2,0.8,1,0
,,66a8e7a8b988a204c34be465,66daf7c4e70478d2ba52f9c3,2024-09-06_14h59.08.486,mdp,2024.2.1,Win32,59.88023952,66d7945b1baad48e845df3ce,,,,,,,,,,,,,,,,,,,,,744.8809,744.8809,744.882,745.497,1,1,right,0.0907,,745.4984,746.2469,1,1,right,746.2481,746.8132,1,0,right,1,746.8133,746.8133,746.8143,748.3132,0,12,12,12,1,0.4,0.6,0.2,0.8,,,,,,,,,,,,,,,0.2246,,0.4,0.6,0.6,0.4,0.8,0.2,0.6,0.4,,,0.0407,,0.4,0.6,0.8,0.2,0.8,0.2,0.2,0.8,1,0
,,66a8e7a8b988a204c34be465,66daf7c4e70478d2ba52f9c3,2024-09-06_14h59.08.486,mdp,2024.2.1,Win32,59.88023952,66d7945b1baad48e845df3ce,,,,,,,,,,,,,,,,,,,,,748.314,748.314,748.3162,752.2635,1,1,right,3.4191,,752.2749,752.9965,1,0,right,752.9976,754.863,1,0,right,1,754.8632,754.8633,754.8647,756.3625,0,13,13,13,1,0.4,0.6,0.2,0.8,,,,,,,,,,,,,,,0.1936,,0.4,0.6,0.6,0.4,0.8,0.2,0.6,0.4,,,1.336,,0.4,0.6,0.8,0.2,0.8,0.2,0.2,0.8,1,0
,,66a8e7a8b988a204c34be465,66daf7c4e70478d2ba52f9c3,2024-09-06_14h59.08.486,mdp,2024.2.1,Win32,59.88023952,66d7945b1baad48e845df3ce,,,,,,,,,,,,,,,,,,,,,756.3629,756.3629,756.3639,758.3966,1,0,right,1.518,,758.3981,759.7464,1,0,right,759.7484,760.6462,1,0,right,1,760.6463,760.6463,760.6474,762.1461,0,14,14,14,1,0.4,0.6,0.2,0.8,,,,,,,,,,,,,,,0.774,,0.4,0.6,0.6,0.4,0.8,0.2,0.6,0.4,,,0.3616,,0.4,0.6,0.8,0.2,0.8,0.2,0.2,0.8,1,0
,,66a8e7a8b988a204c34be465,66daf7c4e70478d2ba52f9c3,2024-09-06_14h59.08.486,mdp,2024.2.1,Win32,59.88023952,66d7945b1baad48e845df3ce,,,,,,,,,,,,,,,,,,,,,762.1468,762.1468,762.1482,764.6129,1,1,right,1.9401,,764.6283,765.196,1,0,right,765.1972,765.8459,1,0,right,1,765.846,765.846,765.8471,767.3462,0,15,15,15,1,0.4,0.6,0.2,0.8,,,,,,,,,,,,,,,0.0462,,0.4,0.6,0.6,0.4,0.8,0.2,0.6,0.4,,,0.1354,,0.4,0.6,0.8,0.2,0.8,0.2,0.2,0.8,1,0
,,66a8e7a8b988a204c34be465,66daf7c4e70478d2ba52f9c3,2024-09-06_14h59.08.486,mdp,2024.2.1,Win32,59.88023952,66d7945b1baad48e845df3ce,,,,,,,,,,,,,,,,,,,,,767.3469,767.3469,767.3484,768.0461,1,0,right,0.168,,768.0483,768.5955,1,0,right,768.5969,769.1289,1,0,right,1,769.1291,769.1292,769.1309,770.6291,0,16,16,16,1,0.4,0.6,0.2,0.8,,,,,,,,,,,,,,,0.0108,,0.4,0.6,0.6,0.4,0.8,0.2,0.6,0.4,,,0.0178,,0.4,0.6,0.8,0.2,0.8,0.2,0.2,0.8,1,0
,,66a8e7a8b988a204c34be465,66daf7c4e70478d2ba52f9c3,2024-09-06_14h59.08.486,mdp,2024.2.1,Win32,59.88023952,66d7945b1baad48e845df3ce,,,,,,,,,,,,,,,,,,,,,770.6303,770.6303,770.6321,771.3127,1,1,right,0.1593,,771.3149,773.9619,1,0,right,773.963,774.7959,1,1,right,0,774.7961,774.7961,774.7985,776.2957,0,17,17,17,1,0.4,0.6,0.2,0.8,,,,,,,,,,,,,,,2.1178,,0.4,0.6,0.6,0.4,0.8,0.2,0.6,0.4,,,0.3004,,0.4,0.6,0.8,0.2,0.8,0.2,0.2,0.8,1,0
,,66a8e7a8b988a204c34be465,66daf7c4e70478d2ba52f9c3,2024-09-06_14h59.08.486,mdp,2024.2.1,Win32,59.88023952,66d7945b1baad48e845df3ce,,,,,,,,,,,,,,,,,,,,,776.2965,776.2965,776.2982,776.9461,1,0,right,0.1279,,776.947,779.9121,1,0,right,779.9142,780.5788,1,1,right,0,780.5791,780.5792,780.5813,782.0782,0,18,18,18,1,0.4,0.6,0.2,0.8,,,,,,,,,,,,,,,2.427,,0.4,0.6,0.6,0.4,0.8,0.2,0.6,0.4,,,0.1353,,0.4,0.6,0.8,0.2,0.8,0.2,0.2,0.8,1,0
,,66a8e7a8b988a204c34be465,66daf7c4e70478d2ba52f9c3,2024-09-06_14h59.08.486,mdp,2024.2.1,Win32,59.88023952,66d7945b1baad48e845df3ce,,,,,,,,,,,,,,,,,,,,,782.0789,782.0789,782.0806,782.7118,1,1,right,0.108,,782.7134,783.2785,1,0,right,783.2797,783.9782,1,0,right,1,783.9783,783.9783,783.9796,785.4783,0,19,19,19,1,0.4,0.6,0.2,0.8,,,,,,,,,,,,,,,0.0249,,0.2,0.8,0.4,0.6,0.8,0.2,0.6,0.4,,,0.1673,,0.4,0.6,0.8,0.2,0.8,0.2,0.2,0.8,1,0
,,66a8e7a8b988a204c34be465,66daf7c4e70478d2ba52f9c3,2024-09-06_14h59.08.486,mdp,2024.2.1,Win32,59.88023952,66d7945b1baad48e845df3ce,,,,,,,,,,,,,,,,,,,,,785.4794,785.4794,785.4812,786.1448,1,1,right,0.1423,,786.1465,786.8952,1,1,right,786.8973,787.628,1,1,right,0,787.6285,787.6286,787.6303,789.1281,0,20,20,20,1,0.4,0.6,0.2,0.8,,,,,,,,,,,,,,,0.2264,,0.2,0.8,0.4,0.6,0.8,0.2,0.6,0.4,,,0.2,,0.4,0.6,0.8,0.2,0.8,0.2,0.2,0.8,1,0
,,66a8e7a8b988a204c34be465,66daf7c4e70478d2ba52f9c3,2024-09-06_14h59.08.486,mdp,2024.2.1,Win32,59.88023952,66d7945b1baad48e845df3ce,,,,,,,,,,,,,,,,,,,,,789.1286,789.1286,789.1302,789.8446,1,1,right,0.1925,,789.847,790.4614,1,0,right,790.4627,791.0778,1,0,right,1,791.078,791.078,791.0795,792.5782,0,21,21,21,1,0.4,0.6,0.2,0.8,,,,,,,,,,,,,,,0.0792,,0.2,0.8,0.4,0.6,0.8,0.2,0.6,0.4,,,0.0842,,0.4,0.6,0.8,0.2,0.8,0.2,0.2,0.8,1,0
,,66a8e7a8b988a204c34be465,66daf7c4e70478d2ba52f9c3,2024-09-06_14h59.08.486,mdp,2024.2.1,Win32,59.88023952,66d7945b1baad48e845df3ce,,,,,,,,,,,,,,,,,,,,,792.5793,792.5793,792.5806,793.2777,1,0,right,0.1682,,793.2799,793.9609,1,1,right,793.9621,794.6617,1,0,right,1,794.6619,794.6619,794.6634,796.161,0,22,22,22,1,0.4,0.6,0.2,0.8,,,,,,,,,,,,,,,0.15,,0.2,0.8,0.4,0.6,0.8,0.2,0.6,0.4,,,0.1833,,0.4,0.6,0.8,0.2,0.8,0.2,0.2,0.8,1,0
,,66a8e7a8b988a204c34be465,66daf7c4e70478d2ba52f9c3,2024-09-06_14h59.08.486,mdp,2024.2.1,Win32,59.88023952,66d7945b1baad48e845df3ce,,,,,,,,,,,,,,,,,,,,,796.1617,796.1617,796.1631,796.8446,1,1,right,0.1509,,796.8467,797.4947,1,1,right,797.4965,798.1108,1,0,right,1,798.1109,798.1111,798.1128,799.6108,0,23,23,23,1,0.4,0.6,0.2,0.8,,,,,,,,,,,,,,,0.115,,0.2,0.8,0.4,0.6,0.8,0.2,0.6,0.4,,,0.0841,,0.4,0.6,0.8,0.2,0.8,0.2,0.2,0.8,1,0
,,66a8e7a8b988a204c34be465,66daf7c4e70478d2ba52f9c3,2024-09-06_14h59.08.486,mdp,2024.2.1,Win32,59.88023952,66d7945b1baad48e845df3ce,,,,,,,,,,,,,,,,,,,,,799.6117,799.6117,799.6135,800.2449,1,1,right,0.1031,,800.2462,800.8941,1,1,right,800.895,801.5616,1,1,right,0,801.5619,801.5619,801.5634,803.0609,0,24,24,24,1,0.4,0.6,0.2,0.8,,,,,,,,,,,,,,,0.1172,,0.2,0.8,0.4,0.6,0.8,0.2,0.6,0.4,,,0.134,,0.4,0.6,0.8,0.2,0.8,0.2,0.2,0.8,1,0
,,66a8e7a8b988a204c34be465,66daf7c4e70478d2ba52f9c3,2024-09-06_14h59.08.486,mdp,2024.2.1,Win32,59.88023952,66d7945b1baad48e845df3ce,,,,,,,,,,,,,,,,,,,,,803.0616,803.0616,803.0631,803.6607,1,1,right,0.0677,,803.6624,804.3104,1,0,right,804.3118,805.0275,1,0,right,1,805.0276,805.0276,805.029,806.5272,0,25,25,25,1,0.4,0.6,0.2,0.8,,,,,,,,,,,,,,,0.1178,,0.2,0.8,0.4,0.6,0.8,0.2,0.6,0.4,,,0.1984,,0.4,0.6,0.8,0.2,0.8,0.2,0.2,0.8,1,0
,,66a8e7a8b988a204c34be465,66daf7c4e70478d2ba52f9c3,2024-09-06_14h59.08.486,mdp,2024.2.1,Win32,59.88023952,66d7945b1baad48e845df3ce,,,,,,,,,,,,,,,,,,,,,806.5278,806.5278,806.5295,807.6942,1,1,right,0.6337,,807.6967,808.3944,1,0,right,808.3961,809.0434,1,0,right,1,809.0436,809.0436,809.0447,810.5438,0,26,26,26,1,0.4,0.6,0.2,0.8,,,,,,,,,,,,,,,0.1691,,0.2,0.8,0.4,0.6,0.8,0.2,0.6,0.4,,,0.1181,,0.4,0.6,0.8,0.2,0.8,0.2,0.2,0.8,1,0
,,66a8e7a8b988a204c34be465,66daf7c4e70478d2ba52f9c3,2024-09-06_14h59.08.486,mdp,2024.2.1,Win32,59.88023952,66d7945b1baad48e845df3ce,,,,,,,,,,,,,,,,,,,,,810.5445,810.5445,810.5457,811.4435,1,1,right,0.3656,,811.4451,811.9936,1,1,right,811.9945,813.0101,1,1,right,0,813.0102,813.0102,813.0116,814.5101,0,27,27,27,1,0.4,0.6,0.2,0.8,,,,,,,,,,,,,,,0.0147,,0.2,0.8,0.4,0.6,0.8,0.2,0.6,0.4,,,0.4809,,0.4,0.6,0.8,0.2,0.8,0.2,0.2,0.8,1,0
,,66a8e7a8b988a204c34be465,66daf7c4e70478d2ba52f9c3,2024-09-06_14h59.08.486,mdp,2024.2.1,Win32,59.88023952,66d7945b1baad48e845df3ce,,,,,,,,,,,,,,,,,,,,,814.5107,814.5107,814.5123,815.4272,1,1,right,0.3963,,815.429,816.0596,1,1,right,816.061,816.5937,1,1,right,0,816.594,816.594,816.5956,818.093,0,28,28,28,1,0.4,0.6,0.2,0.8,,,,,,,,,,,,,,,0.0983,,0.2,0.8,0.4,0.6,0.8,0.2,0.6,0.4,,,0.0008,,0.4,0.6,0.8,0.2,0.8,0.2,0.2,0.8,1,0
,,66a8e7a8b988a204c34be465,66daf7c4e70478d2ba52f9c3,2024-09-06_14h59.08.486,mdp,2024.2.1,Win32,59.88023952,66d7945b1baad48e845df3ce,,,,,,,,,,,,,,,,,,,,,818.0938,818.0938,818.0964,818.6929,1,1,right,0.0775,,818.694,819.3933,1,1,right,819.3943,819.976,1,1,right,0,819.9761,819.9761,819.9773,821.4767,0,29,29,29,1,0.4,0.6,0.2,0.8,,,,,,,,,,,,,,,0.1781,,0.2,0.8,0.4,0.6,0.8,0.2,0.6,0.4,,,0.0613,,0.4,0.6,0.8,0.2,0.8,0.2,0.2,0.8,1,0
,,66a8e7a8b988a204c34be465,66daf7c4e70478d2ba52f9c3,2024-09-06_14h59.08.486,mdp,2024.2.1,Win32,59.88023952,66d7945b1baad48e845df3ce,,,,,,,,,,,,,,,,,,,,,821.4777,821.4777,821.4793,822.1432,1,1,right,0.1348,,822.1452,822.7106,1,0,right,822.7124,823.6596,1,1,right,0,823.6598,823.6598,823.6612,825.1596,0,30,30,30,1,0.4,0.6,0.2,0.8,,,,,,,,,,,,,,,0.0457,,0.2,0.8,0.4,0.6,0.2,0.8,0.8,0.2,,,0.412,,0.4,0.6,0.8,0.2,0.8,0.2,0.2,0.8,1,0
,,66a8e7a8b988a204c34be465,66daf7c4e70478d2ba52f9c3,2024-09-06_14h59.08.486,mdp,2024.2.1,Win32,59.88023952,66d7945b1baad48e845df3ce,,,,,,,,,,,,,,,,,,,,,825.1602,825.1602,825.1611,828.9759,1,1,right,3.2748,,829.0052,829.6262,1,1,right,829.6278,830.1594,1,1,right,0,830.1596,830.1596,830.1606,831.6598,0,31,31,31,1,0.4,0.6,0.2,0.8,,,,,,,,,,,,,,,0.1177,,0.2,0.8,0.4,0.6,0.2,0.8,0.8,0.2,,,0.0008,,0.4,0.6,0.8,0.2,0.8,0.2,0.2,0.8,1,0
,,66a8e7a8b988a204c34be465,66daf7c4e70478d2ba52f9c3,2024-09-06_14h59.08.486,mdp,2024.2.1,Win32,59.88023952,66d7945b1baad48e845df3ce,,,,,,,,,,,,,,,,,,,,,831.6606,831.6607,831.663,832.3591,1,1,right,0.1673,,832.3611,832.9593,1,1,right,832.961,833.5761,1,1,right,0,833.5762,833.5762,833.5776,835.0757,0,32,32,32,1,0.4,0.6,0.2,0.8,,,,,,,,,,,,,,,0.0672,,0.2,0.8,0.4,0.6,0.2,0.8,0.8,0.2,,,0.0942,,0.4,0.6,0.8,0.2,0.8,0.2,0.2,0.8,1,0
,,66a8e7a8b988a204c34be465,66daf7c4e70478d2ba52f9c3,2024-09-06_14h59.08.486,mdp,2024.2.1,Win32,59.88023952,66d7945b1baad48e845df3ce,,,,,,,,,,,,,,,,,,,,,835.0763,835.0763,835.0781,835.6928,1,0,right,0.088,,835.6944,836.2421,1,1,right,836.2435,836.7756,1,1,right,0,836.7757,836.7757,836.7766,838.2757,0,33,33,33,1,0.8,0.2,0.4,0.6,,,,,,,,,,,,,,,0.0146,,0.2,0.8,0.4,0.6,0.2,0.8,0.8,0.2,,,0.0039,,0.4,0.6,0.8,0.2,0.8,0.2,0.2,0.8,1,0
,,66a8e7a8b988a204c34be465,66daf7c4e70478d2ba52f9c3,2024-09-06_14h59.08.486,mdp,2024.2.1,Win32,59.88023952,66d7945b1baad48e845df3ce,,,,,,,,,,,,,,,,,,,,,838.2767,838.2767,838.2793,839.0255,1,0,right,0.22,,839.0267,839.7252,1,1,right,839.7269,840.459,1,1,right,0,840.4593,840.4593,840.4611,841.9582,0,34,34,34,1,0.8,0.2,0.4,0.6,,,,,,,,,,,,,,,0.1761,,0.2,0.8,0.4,0.6,0.2,0.8,0.8,0.2,,,0.2178,,0.4,0.6,0.8,0.2,0.8,0.2,0.2,0.8,1,0
,,66a8e7a8b988a204c34be465,66daf7c4e70478d2ba52f9c3,2024-09-06_14h59.08.486,mdp,2024.2.1,Win32,59.88023952,66d7945b1baad48e845df3ce,,,,,,,,,,,,,,,,,,,,,841.9586,841.9587,841.9607,842.7086,1,1,right,0.2204,,842.7097,843.2828,1,0,right,843.2848,843.9917,1,0,right,1,843.9918,843.9918,843.9929,845.4914,0,35,35,35,1,0.8,0.2,0.4,0.6,,,,,,,,,,,,,,,0.001,,0.2,0.8,0.4,0.6,0.2,0.8,0.8,0.2,,,0.1818,,0.4,0.6,0.8,0.2,0.8,0.2,0.2,0.8,1,0
,,66a8e7a8b988a204c34be465,66daf7c4e70478d2ba52f9c3,2024-09-06_14h59.08.486,mdp,2024.2.1,Win32,59.88023952,66d7945b1baad48e845df3ce,,,,,,,,,,,,,,,,,,,,,845.4919,845.4919,845.4935,846.4749,1,0,right,0.4457,,846.4764,847.2251,1,1,right,847.2266,847.8583,1,0,right,1,847.8583,847.8586,847.8602,849.3583,0,36,36,36,1,0.8,0.2,0.4,0.6,,,,,,,,,,,,,,,0.2054,,0.2,0.8,0.4,0.6,0.2,0.8,0.8,0.2,,,0.098,,0.4,0.6,0.8,0.2,0.8,0.2,0.2,0.8,1,0
,,66a8e7a8b988a204c34be465,66daf7c4e70478d2ba52f9c3,2024-09-06_14h59.08.486,mdp,2024.2.1,Win32,59.88023952,66d7945b1baad48e845df3ce,,,,,,,,,,,,,,,,,,,,,849.3591,849.3591,849.3612,850.0747,1,1,right,0.199,,850.077,850.8085,1,0,right,850.8098,851.4749,1,0,right,1,851.4751,851.4751,851.4764,852.9745,0,37,37,37,1,0.8,0.2,0.4,0.6,,,,,,,,,,,,,,,0.1902,,0.2,0.8,0.4,0.6,0.2,0.8,0.8,0.2,,,0.1252,,0.4,0.6,0.8,0.2,0.8,0.2,0.2,0.8,1,0
,,66a8e7a8b988a204c34be465,66daf7c4e70478d2ba52f9c3,2024-09-06_14h59.08.486,mdp,2024.2.1,Win32,59.88023952,66d7945b1baad48e845df3ce,,,,,,,,,,,,,,,,,,,,,852.9752,852.9753,852.977,853.5079,1,0,right,0.0055,,853.5092,854.0425,1,1,right,854.0434,854.7082,1,1,right,0,854.7083,854.7083,854.7102,856.208,0,38,38,38,1,0.8,0.2,0.4,0.6,,,,,,,,,,,,,,,0.0007,,0.2,0.8,0.4,0.6,0.2,0.8,0.8,0.2,,,0.132,,0.4,0.6,0.8,0.2,0.8,0.2,0.2,0.8,1,0
,,66a8e7a8b988a204c34be465,66daf7c4e70478d2ba52f9c3,2024-09-06_14h59.08.486,mdp,2024.2.1,Win32,59.88023952,66d7945b1baad48e845df3ce,,,,,,,,,,,,,,,,,,,,,856.2087,856.2087,856.2106,856.7747,1,1,right,0.0347,,856.7767,857.4082,1,0,right,857.41,857.9909,1,1,right,0,857.9911,857.9911,857.9925,859.491,0,39,39,39,1,0.8,0.2,0.4,0.6,,,,,,,,,,,,,,,0.0878,,0.2,0.8,0.4,0.6,0.2,0.8,0.8,0.2,,,0.0548,,0.4,0.6,0.8,0.2,0.8,0.2,0.2,0.8,1,0
,,66a8e7a8b988a204c34be465,66daf7c4e70478d2ba52f9c3,2024-09-06_14h59.08.486,mdp,2024.2.1,Win32,59.88023952,66d7945b1baad48e845df3ce,,,,,,,,,,,,,,,,,,,,,859.4919,859.4919,859.4933,860.2078,1,1,right,0.1751,,860.2094,860.8575,1,0,right,860.8592,861.5575,1,1,right,0,861.5576,861.5576,861.5594,863.0574,0,40,40,40,1,0.2,0.8,0.2,0.8,,,,,,,,,,,,,,,0.1047,,0.2,0.8,0.4,0.6,0.2,0.8,0.8,0.2,,,0.1928,,0.4,0.6,0.8,0.2,0.8,0.2,0.2,0.8,1,0
,,66a8e7a8b988a204c34be465,66daf7c4e70478d2ba52f9c3,2024-09-06_14h59.08.486,mdp,2024.2.1,Win32,59.88023952,66d7945b1baad48e845df3ce,,,,,,,,,,,,,,,,,,,,,863.0581,863.0581,863.0602,863.6744,1,0,right,0.0842,,863.6761,864.3246,1,1,right,864.326,864.9573,1,1,right,0,864.9576,864.9576,864.9591,866.4573,0,41,41,41,1,0.4,0.6,0.4,0.6,,,,,,,,,,,,,,,0.103,,0.2,0.8,0.4,0.6,0.2,0.8,0.8,0.2,,,0.0933,,0.4,0.6,0.8,0.2,0.8,0.2,0.2,0.8,1,0
,,66a8e7a8b988a204c34be465,66daf7c4e70478d2ba52f9c3,2024-09-06_14h59.08.486,mdp,2024.2.1,Win32,59.88023952,66d7945b1baad48e845df3ce,,,,,,,,,,,,,,,,,,,,,866.458,866.458,866.4592,867.1073,1,0,right,0.1259,,867.109,867.7573,1,0,right,867.7586,868.408,1,0,right,1,868.4083,868.4083,868.41,869.9092,0,42,42,42,1,0.4,0.6,0.4,0.6,,,,,,,,,,,,,,,0.1273,,0.2,0.8,0.4,0.6,0.2,0.8,0.8,0.2,,,0.069,,0.4,0.6,0.8,0.2,0.8,0.2,0.2,0.8,1,0
,,66a8e7a8b988a204c34be465,66daf7c4e70478d2ba52f9c3,2024-09-06_14h59.08.486,mdp,2024.2.1,Win32,59.88023952,66d7945b1baad48e845df3ce,,,,,,,,,,,,,,,,,,,,,869.9098,869.9098,869.911,870.5408,1,1,right,0.104,,870.5419,871.1569,1,0,right,871.1582,871.808,1,0,right,1,871.8081,871.8082,871.8093,873.3068,0,43,43,43,1,0.4,0.6,0.4,0.6,,,,,,,,,,,,,,,0.0437,,0.2,0.8,0.4,0.6,0.2,0.8,0.8,0.2,,,0.1331,,0.4,0.6,0.8,0.2,0.8,0.2,0.2,0.8,1,0
,,66a8e7a8b988a204c34be465,66daf7c4e70478d2ba52f9c3,2024-09-06_14h59.08.486,mdp,2024.2.1,Win32,59.88023952,66d7945b1baad48e845df3ce,,,,,,,,,,,,,,,,,,,,,873.308,873.3081,873.31,873.9739,1,1,right,0.1417,,873.9751,874.6403,1,0,right,874.6417,875.2732,1,0,right,1,875.2733,875.2733,875.2745,876.7738,0,44,44,44,1,0.4,0.6,0.4,0.6,,,,,,,,,,,,,,,0.1312,,0.2,0.8,0.4,0.6,0.2,0.8,0.8,0.2,,,0.1243,,0.4,0.6,0.8,0.2,0.8,0.2,0.2,0.8,1,0
,,66a8e7a8b988a204c34be465,66daf7c4e70478d2ba52f9c3,2024-09-06_14h59.08.486,mdp,2024.2.1,Win32,59.88023952,66d7945b1baad48e845df3ce,,,,,,,,,,,,,,,,,,,,,876.7742,876.7742,876.7751,877.4567,1,0,right,0.1378,,877.4579,878.1064,1,1,right,878.1078,878.7412,1,1,right,0,878.7413,878.7413,878.7426,880.24,0,45,45,45,1,0.4,0.6,0.4,0.6,,,,,,,,,,,,,,,0.1225,,0.2,0.8,0.4,0.6,0.2,0.8,0.8,0.2,,,0.1143,,0.4,0.6,0.8,0.2,0.8,0.2,0.2,0.8,1,0
,,66a8e7a8b988a204c34be465,66daf7c4e70478d2ba52f9c3,2024-09-06_14h59.08.486,mdp,2024.2.1,Win32,59.88023952,66d7945b1baad48e845df3ce,,,,,,,,,,,,,,,,,,,,,880.2408,880.2409,880.2422,880.8401,1,1,right,0.0725,,880.8427,881.4396,1,0,right,881.4409,882.0564,1,0,right,1,882.0565,882.0565,882.0579,883.5562,0,46,46,46,1,0.4,0.6,0.4,0.6,,,,,,,,,,,,,,,0.0614,,0.2,0.8,0.4,0.6,0.2,0.8,0.8,0.2,,,0.0723,,0.4,0.6,0.8,0.2,0.8,0.2,0.2,0.8,1,0
,,66a8e7a8b988a204c34be465,66daf7c4e70478d2ba52f9c3,2024-09-06_14h59.08.486,mdp,2024.2.1,Win32,59.88023952,66d7945b1baad48e845df3ce,,,,,,,,,,,,,,,,,,,,,883.557,883.557,883.5584,884.1395,1,0,right,0.0594,,884.1412,884.7729,1,0,right,884.775,885.4231,1,1,right,0,885.4234,885.4234,885.4249,886.9227,0,47,47,47,1,0.4,0.6,0.4,0.6,,,,,,,,,,,,,,,0.0603,,0.2,0.8,0.4,0.6,0.2,0.8,0.8,0.2,,,0.1197,,0.4,0.6,0.8,0.2,0.8,0.2,0.2,0.8,1,0
,,66a8e7a8b988a204c34be465,66daf7c4e70478d2ba52f9c3,2024-09-06_14h59.08.486,mdp,2024.2.1,Win32,59.88023952,66d7945b1baad48e845df3ce,,,,,,,,,,,,,,,,,,,,,886.9238,886.9239,886.9263,887.623,1,0,right,0.1682,,887.6251,888.3227,1,0,right,888.3242,889.0565,1,0,right,1,889.0567,889.0567,889.0577,890.5561,0,48,48,48,1,0.4,0.6,0.4,0.6,,,,,,,,,,,,,,,0.1747,,0.2,0.8,0.4,0.6,0.2,0.8,0.8,0.2,,,0.2075,,0.4,0.6,0.8,0.2,0.8,0.2,0.2,0.8,1,0
,,66a8e7a8b988a204c34be465,66daf7c4e70478d2ba52f9c3,2024-09-06_14h59.08.486,mdp,2024.2.1,Win32,59.88023952,66d7945b1baad48e845df3ce,,,,,,,,,,,,,,,,,,,,,890.5568,890.5568,890.5588,891.2394,1,1,right,0.1541,,891.2407,891.7725,1,0,right,891.7747,892.3562,1,0,right,1,892.3563,892.3563,892.3576,893.856,0,49,49,49,1,0.4,0.6,0.4,0.6,,,,,,,,,,,,,,,0.0009,,0.2,0.8,0.4,0.6,0.2,0.8,0.8,0.2,,,0.0506,,0.4,0.6,0.8,0.2,0.8,0.2,0.2,0.8,1,0
,,66a8e7a8b988a204c34be465,66daf7c4e70478d2ba52f9c3,2024-09-06_14h59.08.486,mdp,2024.2.1,Win32,59.88023952,66d7945b1baad48e845df3ce,,,,,,,,,,,,,,,,,,,,,,,,,,,,,,,,,,,,,,,,,,,,,,,,,,,,,,,,893.8563,952.3593,0,2,2,7,1,imgs/dog.png,imgs/cat.png,imgs/lion.png,imgs/elephant.png,imgs/goat.png,,,,,,,,,,,,,,,,,,,,,,,,
,,66a8e7a8b988a204c34be465,66daf7c4e70478d2ba52f9c3,2024-09-06_14h59.08.486,mdp,2024.2.1,Win32,59.88023952,66d7945b1baad48e845df3ce,,,,,,,,,,,,,,3,seqs/st3seq35.csv,952.39,956.6358,space,3.7252,,956.6605,956.6605,956.6617,958.2701,1,1,right,1.0706,,958.2728,961.4192,1,0,right,961.4443,963.0855,1,0,right,1,963.0856,963.0856,963.0865,964.5852,0,0,0,0,1,0.2,0.8,0.6,0.4,,,,,,,,,,,,,,,2.6121,,0.8,0.2,0.4,0.6,0.8,0.2,0.8,0.2,,,1.1339,,0.4,0.6,0.8,0.2,0.4,0.6,0.4,0.6,1,0
,,66a8e7a8b988a204c34be465,66daf7c4e70478d2ba52f9c3,2024-09-06_14h59.08.486,mdp,2024.2.1,Win32,59.88023952,66d7945b1baad48e845df3ce,,,,,,,,,,,,,,,,,,,,,964.5856,964.5856,964.5864,965.2186,1,0,right,0.1012,,965.2197,965.7854,1,0,right,965.7865,966.602,1,0,right,1,966.602,966.602,966.6037,968.1017,0,1,1,1,1,0.2,0.8,0.6,0.4,,,,,,,,,,,,,,,0.0067,,0.8,0.2,0.4,0.6,0.8,0.2,0.8,0.2,,,0.3036,,0.4,0.6,0.8,0.2,0.4,0.6,0.4,0.6,1,0
,,66a8e7a8b988a204c34be465,66daf7c4e70478d2ba52f9c3,2024-09-06_14h59.08.486,mdp,2024.2.1,Win32,59.88023952,66d7945b1baad48e845df3ce,,,,,,,,,,,,,,,,,,,,,968.1022,968.1022,968.1031,968.6684,1,0,right,0.0361,,968.6701,969.3516,1,0,right,969.3527,970.0351,1,0,right,1,970.0351,970.0351,970.0361,971.5353,0,2,2,2,1,0.2,0.8,0.6,0.4,,,,,,,,,,,,,,,0.1602,,0.8,0.2,0.4,0.6,0.8,0.2,0.8,0.2,,,0.1498,,0.4,0.6,0.8,0.2,0.4,0.6,0.4,0.6,1,0
,,66a8e7a8b988a204c34be465,66daf7c4e70478d2ba52f9c3,2024-09-06_14h59.08.486,mdp,2024.2.1,Win32,59.88023952,66d7945b1baad48e845df3ce,,,,,,,,,,,,,,,,,,,,,971.536,971.536,971.5374,972.1182,1,0,right,0.0525,,972.1194,972.8023,1,1,right,972.8035,973.4849,1,1,right,0,973.485,973.485,973.4857,974.9846,0,3,3,3,1,0.2,0.8,0.6,0.4,,,,,,,,,,,,,,,0.15,,0.8,0.2,0.4,0.6,0.8,0.2,0.8,0.2,,,0.1493,,0.4,0.6,0.8,0.2,0.4,0.6,0.4,0.6,1,0
,,66a8e7a8b988a204c34be465,66daf7c4e70478d2ba52f9c3,2024-09-06_14h59.08.486,mdp,2024.2.1,Win32,59.88023952,66d7945b1baad48e845df3ce,,,,,,,,,,,,,,,,,,,,,974.9851,974.9851,974.9864,975.6012,1,1,right,0.0675,,975.6023,976.268,1,0,right,976.2695,976.9754,1,0,right,1,976.9755,976.9755,976.9767,978.4679,0,4,4,4,1,0.2,0.8,0.6,0.4,,,,,,,,,,,,,,,0.118,,0.8,0.2,0.4,0.6,0.8,0.2,0.8,0.2,,,0.1664,,0.4,0.6,0.8,0.2,0.4,0.6,0.4,0.6,1,0
,,66a8e7a8b988a204c34be465,66daf7c4e70478d2ba52f9c3,2024-09-06_14h59.08.486,mdp,2024.2.1,Win32,59.88023952,66d7945b1baad48e845df3ce,,,,,,,,,,,,,,,,,,,,,978.4685,978.4685,978.4695,979.0267,1,0,right,0.0186,,979.0281,979.6181,1,1,right,979.6191,980.2347,1,0,right,1,980.2351,980.2352,980.2369,981.7344,0,5,5,5,1,0.2,0.8,0.6,0.4,,,,,,,,,,,,,,,0.0563,,0.8,0.2,0.4,0.6,0.8,0.2,0.8,0.2,,,0.0675,,0.4,0.6,0.8,0.2,0.4,0.6,0.4,0.6,1,0
,,66a8e7a8b988a204c34be465,66daf7c4e70478d2ba52f9c3,2024-09-06_14h59.08.486,mdp,2024.2.1,Win32,59.88023952,66d7945b1baad48e845df3ce,,,,,,,,,,,,,,,,,,,,,981.735,981.7351,981.7363,983.7597,1,0,right,1.5116,,983.7611,984.3175,1,1,right,984.3183,985.0179,1,0,right,1,985.018,985.018,985.0194,986.5176,0,6,6,6,1,0.2,0.8,0.6,0.4,,,,,,,,,,,,,,,0.0399,,0.8,0.2,0.4,0.6,0.8,0.2,0.8,0.2,,,0.1879,,0.6,0.4,0.4,0.6,0.4,0.6,0.4,0.6,1,0
,,66a8e7a8b988a204c34be465,66daf7c4e70478d2ba52f9c3,2024-09-06_14h59.08.486,mdp,2024.2.1,Win32,59.88023952,66d7945b1baad48e845df3ce,,,,,,,,,,,,,,,,,,,,,986.5183,986.5183,986.5198,989.8083,1,1,right,2.7681,,989.8475,990.3845,1,0,right,990.4253,990.9678,1,1,right,0,990.968,990.968,990.9698,992.4673,0,7,7,7,1,0.2,0.8,0.6,0.4,,,,,,,,,,,,,,,0.0456,,0.6,0.4,0.2,0.8,0.8,0.2,0.8,0.2,,,0.0474,,0.6,0.4,0.4,0.6,0.4,0.6,0.4,0.6,1,0
,,66a8e7a8b988a204c34be465,66daf7c4e70478d2ba52f9c3,2024-09-06_14h59.08.486,mdp,2024.2.1,Win32,59.88023952,66d7945b1baad48e845df3ce,,,,,,,,,,,,,,,,,,,,,992.5061,992.5061,992.5074,993.2006,1,1,right,0.1703,,993.2017,993.7837,1,0,right,993.7853,994.384,1,1,right,0,994.3841,994.3841,994.3853,995.8837,0,8,8,8,1,0.2,0.8,0.6,0.4,,,,,,,,,,,,,,,0.0597,,0.6,0.4,0.2,0.8,0.8,0.2,0.8,0.2,,,0.0837,,0.6,0.4,0.4,0.6,0.4,0.6,0.4,0.6,1,0
,,66a8e7a8b988a204c34be465,66daf7c4e70478d2ba52f9c3,2024-09-06_14h59.08.486,mdp,2024.2.1,Win32,59.88023952,66d7945b1baad48e845df3ce,,,,,,,,,,,,,,,,,,,,,995.8843,995.8843,995.8855,996.5669,1,0,right,0.1483,,996.5681,997.3003,1,1,right,997.3013,997.9348,1,1,right,0,997.9349,997.9349,997.9364,999.4342,0,9,9,9,1,0.2,0.8,0.6,0.4,,,,,,,,,,,,,,,0.2214,,0.6,0.4,0.2,0.8,0.8,0.2,0.8,0.2,,,0.104,,0.6,0.4,0.4,0.6,0.4,0.6,0.4,0.6,1,0
,,66a8e7a8b988a204c34be465,66daf7c4e70478d2ba52f9c3,2024-09-06_14h59.08.486,mdp,2024.2.1,Win32,59.88023952,66d7945b1baad48e845df3ce,,,,,,,,,,,,,,,,,,,,,999.4348,999.4348,999.4362,1000.1502,1,1,right,0.1849,,1000.1511,1000.7833,1,1,right,1000.7844,1001.3835,1,1,right,0,1001.3837,1001.3837,1001.3852,1002.8837,0,10,10,10,1,0.2,0.8,0.6,0.4,,,,,,,,,,,,,,,0.0973,,0.6,0.4,0.2,0.8,0.8,0.2,0.8,0.2,,,0.0716,,0.6,0.4,0.4,0.6,0.4,0.6,0.4,0.6,1,0
,,66a8e7a8b988a204c34be465,66daf7c4e70478d2ba52f9c3,2024-09-06_14h59.08.486,mdp,2024.2.1,Win32,59.88023952,66d7945b1baad48e845df3ce,,,,,,,,,,,,,,,,,,,,,1002.8845,1002.8845,1002.8861,1003.4001,1,1,right,0.0026,,1003.4017,1004.0417,1,1,right,1004.0429,1004.6508,1,0,right,1,1004.651,1004.651,1004.6521,1006.1499,0,11,11,11,1,0.2,0.8,0.6,0.4,,,,,,,,,,,,,,,0.1159,,0.6,0.4,0.2,0.8,0.8,0.2,0.8,0.2,,,0.0888,,0.6,0.4,0.4,0.6,0.4,0.6,0.4,0.6,1,0
,,66a8e7a8b988a204c34be465,66daf7c4e70478d2ba52f9c3,2024-09-06_14h59.08.486,mdp,2024.2.1,Win32,59.88023952,66d7945b1baad48e845df3ce,,,,,,,,,,,,,,,,,,,,,1006.1504,1006.1504,1006.1518,1006.8168,1,1,right,0.1352,,1006.8179,1007.4329,1,0,right,1007.4338,1008.0164,1,0,right,1,1008.0165,1008.0165,1008.0177,1009.5168,0,12,12,12,1,0.2,0.8,0.6,0.4,,,,,,,,,,,,,,,0.0829,,0.6,0.4,0.2,0.8,0.8,0.2,0.8,0.2,,,0.0504,,0.6,0.4,0.4,0.6,0.4,0.6,0.4,0.6,1,0
,,66a8e7a8b988a204c34be465,66daf7c4e70478d2ba52f9c3,2024-09-06_14h59.08.486,mdp,2024.2.1,Win32,59.88023952,66d7945b1baad48e845df3ce,,,,,,,,,,,,,,,,,,,,,1009.5175,1009.5176,1009.5193,1010.1668,1,0,right,0.1179,,1010.1684,1010.8998,1,1,right,1010.9011,1011.4327,0,1,left,0,1011.4329,1011.4329,1011.434,1012.9331,0,13,13,13,1,0.2,0.8,0.6,0.4,,,,,,,,,,,,,,,0.1953,,0.6,0.4,0.2,0.8,0.8,0.2,0.8,0.2,,,0.001,,0.6,0.4,0.4,0.6,0.4,0.6,0.4,0.6,1,0
,,66a8e7a8b988a204c34be465,66daf7c4e70478d2ba52f9c3,2024-09-06_14h59.08.486,mdp,2024.2.1,Win32,59.88023952,66d7945b1baad48e845df3ce,,,,,,,,,,,,,,,,,,,,,1012.934,1012.934,1012.9352,1013.6666,1,1,right,0.2022,,1013.6682,1014.2331,1,0,right,1014.2351,1014.7659,1,1,right,0,1014.766,1014.766,1014.7673,1016.2659,0,14,14,14,1,0.2,0.8,0.6,0.4,,,,,,,,,,,,,,,0.031,,0.6,0.4,0.2,0.8,0.8,0.2,0.8,0.2,,,0.003,,0.6,0.4,0.4,0.6,0.4,0.6,0.4,0.6,1,0
,,66a8e7a8b988a204c34be465,66daf7c4e70478d2ba52f9c3,2024-09-06_14h59.08.486,mdp,2024.2.1,Win32,59.88023952,66d7945b1baad48e845df3ce,,,,,,,,,,,,,,,,,,,,,1016.2663,1016.2663,1016.2672,1016.9825,1,0,right,0.1858,,1016.9835,1017.6157,1,1,right,1017.6167,1018.2161,1,0,right,1,1018.2163,1018.2163,1018.2181,1019.716,0,15,15,15,1,0.2,0.8,0.6,0.4,,,,,,,,,,,,,,,0.0951,,0.6,0.4,0.2,0.8,0.8,0.2,0.8,0.2,,,0.0842,,0.6,0.4,0.4,0.6,0.4,0.6,0.4,0.6,1,0
,,66a8e7a8b988a204c34be465,66daf7c4e70478d2ba52f9c3,2024-09-06_14h59.08.486,mdp,2024.2.1,Win32,59.88023952,66d7945b1baad48e845df3ce,,,,,,,,,,,,,,,,,,,,,1019.7169,1019.7169,1019.7182,1020.2824,1,0,right,0.0415,,1020.2836,1020.9157,1,1,right,1020.9171,1021.4995,1,0,right,1,1021.4996,1021.4996,1021.5015,1022.9987,0,16,16,16,1,0.2,0.8,0.6,0.4,,,,,,,,,,,,,,,0.101,,0.6,0.4,0.2,0.8,0.8,0.2,0.8,0.2,,,0.0559,,0.6,0.4,0.4,0.6,0.8,0.2,0.8,0.2,1,0
,,66a8e7a8b988a204c34be465,66daf7c4e70478d2ba52f9c3,2024-09-06_14h59.08.486,mdp,2024.2.1,Win32,59.88023952,66d7945b1baad48e845df3ce,,,,,,,,,,,,,,,,,,,,,1022.9995,1022.9995,1023.0017,1023.7989,1,1,right,0.2736,,1023.8009,1024.5659,1,1,right,1024.5673,1025.2991,1,0,right,1,1025.2994,1025.2994,1025.301,1026.799,0,17,17,17,1,0.2,0.8,0.6,0.4,,,,,,,,,,,,,,,0.2274,,0.6,0.4,0.2,0.8,0.8,0.2,0.8,0.2,,,0.2024,,0.4,0.6,0.8,0.2,0.8,0.2,0.8,0.2,1,0
,,66a8e7a8b988a204c34be465,66daf7c4e70478d2ba52f9c3,2024-09-06_14h59.08.486,mdp,2024.2.1,Win32,59.88023952,66d7945b1baad48e845df3ce,,,,,,,,,,,,,,,,,,,,,1026.7998,1026.7999,1026.8012,1027.5661,1,1,right,0.2354,,1027.5682,1028.2158,1,0,right,1028.2173,1028.7889,1,0,right,1,1028.789,1028.789,1028.7904,1030.2824,0,18,18,18,1,0.2,0.8,0.6,0.4,,,,,,,,,,,,,,,0.1205,,0.6,0.4,0.2,0.8,0.8,0.2,0.8,0.2,,,0.0008,,0.4,0.6,0.8,0.2,0.8,0.2,0.8,0.2,1,0
,,66a8e7a8b988a204c34be465,66daf7c4e70478d2ba52f9c3,2024-09-06_14h59.08.486,mdp,2024.2.1,Win32,59.88023952,66d7945b1baad48e845df3ce,,,,,,,,,,,,,,,,,,,,,1030.283,1030.283,1030.2845,1031.0152,1,1,right,0.2055,,1031.0163,1031.7157,1,0,right,1031.7169,1032.4821,1,1,right,0,1032.4822,1032.4822,1032.4834,1033.9817,0,19,19,19,1,0.2,0.8,0.6,0.4,,,,,,,,,,,,,,,0.174,,0.6,0.4,0.2,0.8,0.8,0.2,0.8,0.2,,,0.232,,0.4,0.6,0.8,0.2,0.8,0.2,0.8,0.2,1,0
,,66a8e7a8b988a204c34be465,66daf7c4e70478d2ba52f9c3,2024-09-06_14h59.08.486,mdp,2024.2.1,Win32,59.88023952,66d7945b1baad48e845df3ce,,,,,,,,,,,,,,,,,,,,,1033.9824,1033.9824,1033.984,1034.6987,1,1,right,0.189,,1034.7006,1035.4818,1,0,right,1035.4829,1036.0152,1,1,right,0,1036.0152,1036.0153,1036.0163,1037.5149,0,20,20,20,1,0.2,0.8,0.6,0.4,,,,,,,,,,,,,,,0.2458,,0.6,0.4,0.2,0.8,0.8,0.2,0.8,0.2,,,0.0178,,0.4,0.6,0.8,0.2,0.8,0.2,0.8,0.2,1,0
,,66a8e7a8b988a204c34be465,66daf7c4e70478d2ba52f9c3,2024-09-06_14h59.08.486,mdp,2024.2.1,Win32,59.88023952,66d7945b1baad48e845df3ce,,,,,,,,,,,,,,,,,,,,,1037.5159,1037.5159,1037.5177,1038.2484,1,1,right,0.2031,,1038.2495,1038.965,1,0,right,1038.9667,1039.6314,1,1,right,0,1039.6316,1039.6317,1039.6335,1041.1315,0,21,21,21,1,0.2,0.8,0.6,0.4,,,,,,,,,,,,,,,0.1847,,0.6,0.4,0.2,0.8,0.8,0.2,0.8,0.2,,,0.1366,,0.4,0.6,0.8,0.2,0.8,0.2,0.8,0.2,1,0
,,66a8e7a8b988a204c34be465,66daf7c4e70478d2ba52f9c3,2024-09-06_14h59.08.486,mdp,2024.2.1,Win32,59.88023952,66d7945b1baad48e845df3ce,,,,,,,,,,,,,,,,,,,,,1041.1321,1041.1321,1041.1332,1041.8313,1,0,right,0.1631,,1041.8323,1042.5152,1,0,right,1042.5169,1043.1749,1,1,right,0,1043.1749,1043.1749,1043.1761,1044.6646,0,22,22,22,1,0.2,0.8,0.6,0.4,,,,,,,,,,,,,,,0.1326,,0.6,0.4,0.2,0.8,0.8,0.2,0.8,0.2,,,0.1452,,0.6,0.4,0.4,0.6,0.8,0.2,0.8,0.2,1,0
,,66a8e7a8b988a204c34be465,66daf7c4e70478d2ba52f9c3,2024-09-06_14h59.08.486,mdp,2024.2.1,Win32,59.88023952,66d7945b1baad48e845df3ce,,,,,,,,,,,,,,,,,,,,,1044.6656,1044.6656,1044.6671,1045.3815,1,1,right,0.187,,1045.3831,1046.9148,1,1,right,1046.9167,1047.632,1,0,right,1,1047.6322,1047.6322,1047.6342,1049.1311,0,23,23,23,1,0.2,0.8,0.6,0.4,,,,,,,,,,,,,,,0.9989,,0.6,0.4,0.2,0.8,0.8,0.2,0.8,0.2,,,0.1598,,0.6,0.4,0.4,0.6,0.8,0.2,0.8,0.2,1,0
,,66a8e7a8b988a204c34be465,66daf7c4e70478d2ba52f9c3,2024-09-06_14h59.08.486,mdp,2024.2.1,Win32,59.88023952,66d7945b1baad48e845df3ce,,,,,,,,,,,,,,,,,,,,,1049.132,1049.132,1049.1337,1050.3309,1,1,right,0.666,,1050.3324,1051.0313,1,0,right,1051.0331,1051.6975,1,0,right,1,1051.6976,1051.6977,1051.6986,1053.1972,0,24,24,24,1,0.2,0.8,0.6,0.4,,,,,,,,,,,,,,,0.1722,,0.6,0.4,0.2,0.8,0.8,0.2,0.8,0.2,,,0.0853,,0.6,0.4,0.4,0.6,0.8,0.2,0.8,0.2,1,0
,,66a8e7a8b988a204c34be465,66daf7c4e70478d2ba52f9c3,2024-09-06_14h59.08.486,mdp,2024.2.1,Win32,59.88023952,66d7945b1baad48e845df3ce,,,,,,,,,,,,,,,,,,,,,1053.1976,1053.1976,1053.1983,1053.7309,1,1,right,0.0012,,1053.7325,1054.3973,1,0,right,1054.3986,1054.9308,1,0,right,1,1054.9309,1054.9309,1054.9329,1056.4308,0,25,25,25,1,0.2,0.8,0.6,0.4,,,,,,,,,,,,,,,0.1419,,0.6,0.4,0.2,0.8,0.8,0.2,0.8,0.2,,,0.0009,,0.6,0.4,0.4,0.6,0.8,0.2,0.8,0.2,1,0
,,66a8e7a8b988a204c34be465,66daf7c4e70478d2ba52f9c3,2024-09-06_14h59.08.486,mdp,2024.2.1,Win32,59.88023952,66d7945b1baad48e845df3ce,,,,,,,,,,,,,,,,,,,,,1056.4316,1056.4316,1056.4332,1057.081,1,0,right,0.1243,,1057.0829,1057.7309,1,1,right,1057.733,1058.4807,1,0,right,1,1058.4808,1058.4808,1058.4818,1059.9801,0,26,26,26,1,0.2,0.8,0.6,0.4,,,,,,,,,,,,,,,0.1176,,0.6,0.4,0.2,0.8,0.8,0.2,0.8,0.2,,,0.219,,0.6,0.4,0.4,0.6,0.8,0.2,0.8,0.2,1,0
,,66a8e7a8b988a204c34be465,66daf7c4e70478d2ba52f9c3,2024-09-06_14h59.08.486,mdp,2024.2.1,Win32,59.88023952,66d7945b1baad48e845df3ce,,,,,,,,,,,,,,,,,,,,,1059.9808,1059.9809,1059.9821,1060.7135,1,1,right,0.2008,,1060.7146,1061.4304,1,0,right,1061.4316,1062.0803,1,1,right,0,1062.0805,1062.0805,1062.0817,1063.58,0,27,27,27,1,0.2,0.8,0.6,0.4,,,,,,,,,,,,,,,0.1834,,0.6,0.4,0.2,0.8,0.8,0.2,0.8,0.2,,,0.1167,,0.6,0.4,0.4,0.6,0.8,0.2,0.8,0.2,1,0
,,66a8e7a8b988a204c34be465,66daf7c4e70478d2ba52f9c3,2024-09-06_14h59.08.486,mdp,2024.2.1,Win32,59.88023952,66d7945b1baad48e845df3ce,,,,,,,,,,,,,,,,,,,,,1063.5805,1063.5805,1063.5815,1064.2807,1,0,right,0.1728,,1064.2819,1064.9473,1,1,right,1064.9487,1065.6306,1,0,right,1,1065.6308,1065.6308,1065.6322,1067.13,0,28,28,28,1,0.2,0.8,0.6,0.4,,,,,,,,,,,,,,,0.1337,,0.6,0.4,0.2,0.8,0.8,0.2,0.8,0.2,,,0.1479,,0.6,0.4,0.4,0.6,0.8,0.2,0.8,0.2,1,0
,,66a8e7a8b988a204c34be465,66daf7c4e70478d2ba52f9c3,2024-09-06_14h59.08.486,mdp,2024.2.1,Win32,59.88023952,66d7945b1baad48e845df3ce,,,,,,,,,,,,,,,,,,,,,1067.1305,1067.1305,1067.1317,1067.6805,1,0,right,0.0162,,1067.6819,1068.3969,1,1,right,1068.3984,1069.0466,1,0,right,1,1069.0467,1069.0467,1069.0478,1070.5484,0,29,29,29,1,0.2,0.8,0.6,0.4,,,,,,,,,,,,,,,0.2005,,0.6,0.4,0.2,0.8,0.8,0.2,0.8,0.2,,,0.1169,,0.6,0.4,0.4,0.6,0.8,0.2,0.8,0.2,1,0
,,66a8e7a8b988a204c34be465,66daf7c4e70478d2ba52f9c3,2024-09-06_14h59.08.486,mdp,2024.2.1,Win32,59.88023952,66d7945b1baad48e845df3ce,,,,,,,,,,,,,,,,,,,,,1070.5491,1070.5491,1070.5505,1071.2801,1,0,right,0.1999,,1071.2814,1071.9302,1,1,right,1071.932,1072.5634,1,0,right,1,1072.5636,1072.5636,1072.5646,1074.0631,0,30,30,30,1,0.2,0.8,0.6,0.4,,,,,,,,,,,,,,,0.1177,,0.2,0.8,0.8,0.2,0.8,0.2,0.8,0.2,,,0.1009,,0.6,0.4,0.4,0.6,0.8,0.2,0.8,0.2,1,0
,,66a8e7a8b988a204c34be465,66daf7c4e70478d2ba52f9c3,2024-09-06_14h59.08.486,mdp,2024.2.1,Win32,59.88023952,66d7945b1baad48e845df3ce,,,,,,,,,,,,,,,,,,,,,1074.0638,1074.0638,1074.0647,1074.6964,1,0,right,0.101,,1074.6976,1075.4128,1,0,right,1075.4142,1076.1797,1,0,right,1,1076.1797,1076.1797,1076.2189,1077.6794,0,31,31,31,1,0.2,0.8,0.6,0.4,,,,,,,,,,,,,,,0.2032,,0.2,0.8,0.8,0.2,0.8,0.2,0.8,0.2,,,0.231,,0.6,0.4,0.4,0.6,0.8,0.2,0.8,0.2,1,0
,,66a8e7a8b988a204c34be465,66daf7c4e70478d2ba52f9c3,2024-09-06_14h59.08.486,mdp,2024.2.1,Win32,59.88023952,66d7945b1baad48e845df3ce,,,,,,,,,,,,,,,,,,,,,1077.68,1077.68,1077.6815,1078.2962,1,1,right,0.0907,,1078.2973,1078.9793,1,0,right,1078.9805,1079.8125,1,0,right,1,1079.8127,1079.8127,1079.8135,1081.3126,0,32,32,32,1,0.2,0.8,0.6,0.4,,,,,,,,,,,,,,,0.1536,,0.2,0.8,0.8,0.2,0.8,0.2,0.8,0.2,,,0.3044,,0.6,0.4,0.4,0.6,0.6,0.4,0.6,0.4,1,0
,,66a8e7a8b988a204c34be465,66daf7c4e70478d2ba52f9c3,2024-09-06_14h59.08.486,mdp,2024.2.1,Win32,59.88023952,66d7945b1baad48e845df3ce,,,,,,,,,,,,,,,,,,,,,1081.3132,1081.3132,1081.3142,1082.1129,1,1,right,0.2678,,1082.1151,1083.0792,1,0,right,1083.0803,1083.7793,1,1,right,0,1083.7793,1083.7794,1083.7802,1085.2792,0,33,33,33,1,0.2,0.8,0.6,0.4,,,,,,,,,,,,,,,0.4383,,0.2,0.8,0.8,0.2,0.8,0.2,0.8,0.2,,,0.1682,,0.6,0.4,0.4,0.6,0.6,0.4,0.6,0.4,1,0
,,66a8e7a8b988a204c34be465,66daf7c4e70478d2ba52f9c3,2024-09-06_14h59.08.486,mdp,2024.2.1,Win32,59.88023952,66d7945b1baad48e845df3ce,,,,,,,,,,,,,,,,,,,,,1085.28,1085.28,1085.281,1086.2456,1,1,right,0.4357,,1086.2473,1087.0959,1,1,right,1087.097,1087.9461,1,0,right,1,1087.9461,1087.9462,1087.9477,1089.4455,0,34,34,34,1,0.2,0.8,0.6,0.4,,,,,,,,,,,,,,,0.3403,,0.2,0.8,0.8,0.2,0.8,0.2,0.8,0.2,,,0.31,,0.6,0.4,0.4,0.6,0.6,0.4,0.6,0.4,1,0
,,66a8e7a8b988a204c34be465,66daf7c4e70478d2ba52f9c3,2024-09-06_14h59.08.486,mdp,2024.2.1,Win32,59.88023952,66d7945b1baad48e845df3ce,,,,,,,,,,,,,,,,,,,,,1089.4461,1089.4461,1089.4469,1090.079,1,0,right,0.1113,,1090.0812,1090.8454,1,0,right,1090.8466,1091.6623,1,1,right,0,1091.6624,1091.6624,1091.6638,1093.1622,0,35,35,35,1,0.2,0.8,0.6,0.4,,,,,,,,,,,,,,,0.2361,,0.2,0.8,0.8,0.2,0.8,0.2,0.8,0.2,,,0.2837,,0.6,0.4,0.4,0.6,0.6,0.4,0.6,0.4,1,0
,,66a8e7a8b988a204c34be465,66daf7c4e70478d2ba52f9c3,2024-09-06_14h59.08.486,mdp,2024.2.1,Win32,59.88023952,66d7945b1baad48e845df3ce,,,,,,,,,,,,,,,,,,,,,1093.1631,1093.1631,1093.1642,1094.5619,1,0,right,0.8649,,1094.5632,1096.712,1,1,right,1096.714,1097.7116,1,0,right,1,1097.7118,1097.7118,1097.7124,1099.2115,0,36,36,36,1,0.2,0.8,0.6,0.4,,,,,,,,,,,,,,,1.6269,,0.2,0.8,0.8,0.2,0.8,0.2,0.8,0.2,,,0.4675,,0.6,0.4,0.4,0.6,0.6,0.4,0.6,0.4,1,0
,,66a8e7a8b988a204c34be465,66daf7c4e70478d2ba52f9c3,2024-09-06_14h59.08.486,mdp,2024.2.1,Win32,59.88023952,66d7945b1baad48e845df3ce,,,,,,,,,,,,,,,,,,,,,1099.2123,1099.2123,1099.2135,1102.7789,1,0,right,3.0345,,1102.7807,1103.6118,1,0,right,1103.6139,1104.495,1,1,right,0,1104.4951,1104.4952,1104.4967,1105.9946,0,37,37,37,1,0.2,0.8,0.6,0.4,,,,,,,,,,,,,,,0.3032,,0.2,0.8,0.8,0.2,0.8,0.2,0.8,0.2,,,0.3505,,0.6,0.4,0.4,0.6,0.6,0.4,0.6,0.4,1,0
,,66a8e7a8b988a204c34be465,66daf7c4e70478d2ba52f9c3,2024-09-06_14h59.08.486,mdp,2024.2.1,Win32,59.88023952,66d7945b1baad48e845df3ce,,,,,,,,,,,,,,,,,,,,,1105.9951,1105.9951,1106.0339,1107.4781,1,0,right,0.9525,,1107.4796,1108.778,1,1,right,1108.7791,1109.8943,1,0,right,1,1109.8945,1109.8945,1109.8956,1111.3943,0,38,38,38,1,0.2,0.8,0.6,0.4,,,,,,,,,,,,,,,0.7687,,0.2,0.8,0.8,0.2,0.8,0.2,0.8,0.2,,,0.5716,,0.6,0.4,0.4,0.6,0.6,0.4,0.6,0.4,1,0
,,66a8e7a8b988a204c34be465,66daf7c4e70478d2ba52f9c3,2024-09-06_14h59.08.486,mdp,2024.2.1,Win32,59.88023952,66d7945b1baad48e845df3ce,,,,,,,,,,,,,,,,,,,,,1111.3952,1111.3953,1111.3968,1115.1107,1,1,right,3.1899,,1115.1247,1115.9606,1,0,right,1115.9614,1119.1776,1,0,right,1,1119.1777,1119.1777,1119.1898,1120.6774,0,39,39,39,1,0.2,0.8,0.6,0.4,,,,,,,,,,,,,,,0.3332,,0.2,0.8,0.8,0.2,0.8,0.2,0.8,0.2,,,2.6979,,0.6,0.4,0.4,0.6,0.6,0.4,0.6,0.4,1,0
,,66a8e7a8b988a204c34be465,66daf7c4e70478d2ba52f9c3,2024-09-06_14h59.08.486,mdp,2024.2.1,Win32,59.88023952,66d7945b1baad48e845df3ce,,,,,,,,,,,,,,,,,,,,,1120.6783,1120.6783,1120.68,1121.3272,1,0,right,0.1158,,1121.3285,1123.0604,1,0,right,1123.0618,1123.677,1,1,right,0,1123.6771,1123.6772,1123.6786,1125.1766,0,40,40,40,1,0.2,0.8,0.6,0.4,,,,,,,,,,,,,,,1.2088,,0.2,0.8,0.8,0.2,0.8,0.2,0.8,0.2,,,0.0836,,0.6,0.4,0.4,0.6,0.6,0.4,0.6,0.4,1,0
,,66a8e7a8b988a204c34be465,66daf7c4e70478d2ba52f9c3,2024-09-06_14h59.08.486,mdp,2024.2.1,Win32,59.88023952,66d7945b1baad48e845df3ce,,,,,,,,,,,,,,,,,,,,,1125.1771,1125.1771,1125.178,1126.31,1,0,right,0.5957,,1126.3114,1127.427,1,0,right,1127.4291,1128.4104,1,1,right,0,1128.4106,1128.4106,1128.4116,1129.9098,0,41,41,41,1,0.2,0.8,0.6,0.4,,,,,,,,,,,,,,,0.6093,,0.4,0.6,0.6,0.4,0.8,0.2,0.8,0.2,,,0.4471,,0.6,0.4,0.4,0.6,0.6,0.4,0.6,0.4,1,0
,,66a8e7a8b988a204c34be465,66daf7c4e70478d2ba52f9c3,2024-09-06_14h59.08.486,mdp,2024.2.1,Win32,59.88023952,66d7945b1baad48e845df3ce,,,,,,,,,,,,,,,,,,,,,1129.9105,1129.9105,1129.9121,1131.0264,1,1,right,0.5772,,1131.0275,1132.0932,1,0,right,1132.094,1133.1272,1,0,right,1,1133.1273,1133.1273,1133.1286,1134.6263,0,42,42,42,1,0.2,0.8,0.6,0.4,,,,,,,,,,,,,,,0.5313,,0.4,0.6,0.6,0.4,0.8,0.2,0.8,0.2,,,0.5008,,0.6,0.4,0.4,0.6,0.6,0.4,0.6,0.4,1,0
,,66a8e7a8b988a204c34be465,66daf7c4e70478d2ba52f9c3,2024-09-06_14h59.08.486,mdp,2024.2.1,Win32,59.88023952,66d7945b1baad48e845df3ce,,,,,,,,,,,,,,,,,,,,,1134.6268,1134.6269,1134.6282,1135.4603,1,0,right,0.3021,,1135.4621,1137.4263,1,1,right,1137.4274,1139.193,1,0,right,1,1139.1931,1139.1931,1139.1941,1140.6925,0,43,43,43,1,0.2,0.8,0.6,0.4,,,,,,,,,,,,,,,1.4341,,0.4,0.6,0.6,0.4,0.8,0.2,0.8,0.2,,,1.2341,,0.6,0.4,0.4,0.6,0.6,0.4,0.6,0.4,1,0
,,66a8e7a8b988a204c34be465,66daf7c4e70478d2ba52f9c3,2024-09-06_14h59.08.486,mdp,2024.2.1,Win32,59.88023952,66d7945b1baad48e845df3ce,,,,,,,,,,,,,,,,,,,,,1140.6931,1140.6931,1140.694,1141.6934,1,1,right,0.4678,,1141.6946,1142.8096,1,0,right,1142.8107,1143.8432,1,0,right,1,1143.8434,1143.8434,1143.8443,1145.3422,0,44,44,44,1,0.2,0.8,0.6,0.4,,,,,,,,,,,,,,,0.5834,,0.4,0.6,0.6,0.4,0.8,0.2,0.8,0.2,,,0.5003,,0.6,0.4,0.4,0.6,0.6,0.4,0.6,0.4,1,0
,,66a8e7a8b988a204c34be465,66daf7c4e70478d2ba52f9c3,2024-09-06_14h59.08.486,mdp,2024.2.1,Win32,59.88023952,66d7945b1baad48e845df3ce,,,,,,,,,,,,,,,,,,,,,1145.3426,1145.3426,1145.3432,1145.8924,1,1,right,0.0163,,1145.8936,1146.8929,1,0,right,1146.8936,1147.8589,1,1,right,0,1147.8591,1147.8591,1147.8603,1149.3596,0,45,45,45,1,0.2,0.8,0.6,0.4,,,,,,,,,,,,,,,0.4675,,0.4,0.6,0.6,0.4,0.8,0.2,0.8,0.2,,,0.434,,0.6,0.4,0.4,0.6,0.6,0.4,0.6,0.4,1,0
,,66a8e7a8b988a204c34be465,66daf7c4e70478d2ba52f9c3,2024-09-06_14h59.08.486,mdp,2024.2.1,Win32,59.88023952,66d7945b1baad48e845df3ce,,,,,,,,,,,,,,,,,,,,,1149.3603,1149.3603,1149.3621,1150.393,1,1,right,0.5007,,1150.3945,1151.3928,1,0,right,1151.394,1152.4599,1,1,right,0,1152.46,1152.46,1152.4619,1153.9585,0,46,46,46,1,0.2,0.8,0.6,0.4,,,,,,,,,,,,,,,0.468,,0.4,0.6,0.6,0.4,0.8,0.2,0.8,0.2,,,0.5351,,0.6,0.4,0.4,0.6,0.6,0.4,0.6,0.4,1,0
,,66a8e7a8b988a204c34be465,66daf7c4e70478d2ba52f9c3,2024-09-06_14h59.08.486,mdp,2024.2.1,Win32,59.88023952,66d7945b1baad48e845df3ce,,,,,,,,,,,,,,,,,,,,,1153.9596,1153.9596,1153.9603,1154.9754,1,0,right,0.4827,,1154.9766,1155.9919,1,0,right,1155.9936,1157.1097,1,1,right,0,1157.1097,1157.1097,1157.111,1158.6094,0,47,47,47,1,0.2,0.8,0.6,0.4,,,,,,,,,,,,,,,0.4836,,0.4,0.6,0.6,0.4,0.8,0.2,0.8,0.2,,,0.6016,,0.8,0.2,0.2,0.8,0.6,0.4,0.6,0.4,1,0
,,66a8e7a8b988a204c34be465,66daf7c4e70478d2ba52f9c3,2024-09-06_14h59.08.486,mdp,2024.2.1,Win32,59.88023952,66d7945b1baad48e845df3ce,,,,,,,,,,,,,,,,,,,,,1158.6103,1158.6103,1158.6119,1159.6099,1,0,right,0.4677,,1159.6116,1160.6433,1,0,right,1160.6452,1161.7262,1,1,right,0,1161.7263,1161.7263,1161.7272,1163.2262,0,48,48,48,1,0.2,0.8,0.6,0.4,,,,,,,,,,,,,,,0.5005,,0.4,0.6,0.6,0.4,0.8,0.2,0.8,0.2,,,0.5505,,0.8,0.2,0.2,0.8,0.6,0.4,0.6,0.4,1,0
,,66a8e7a8b988a204c34be465,66daf7c4e70478d2ba52f9c3,2024-09-06_14h59.08.486,mdp,2024.2.1,Win32,59.88023952,66d7945b1baad48e845df3ce,,,,,,,,,,,,,,,,,,,,,1163.2269,1163.2269,1163.2285,1164.2104,1,0,right,0.451,,1164.2122,1165.2092,1,0,right,1165.2101,1166.2599,1,1,right,0,1166.26,1166.26,1166.2617,1167.7588,0,49,49,49,1,0.2,0.8,0.6,0.4,,,,,,,,,,,,,,,0.4669,,0.4,0.6,0.6,0.4,0.8,0.2,0.8,0.2,,,0.5182,,0.8,0.2,0.2,0.8,0.6,0.4,0.6,0.4,1,0
,,66a8e7a8b988a204c34be465,66daf7c4e70478d2ba52f9c3,2024-09-06_14h59.08.486,mdp,2024.2.1,Win32,59.88023952,66d7945b1baad48e845df3ce,,,,,,,,,,,,,,,,,,,,,,,,,,,,,,,,,,,,,,,,,,,,,,,,,,,,,,,,1167.7592,1226.2745,0,3,3,6,1,imgs/rabbit.png,imgs/squirrel.png,imgs/dog.png,imgs/elephant.png,imgs/giraffe.png,,,,,,,,,,,,,,,,,,,,,,,,
,,66a8e7a8b988a204c34be465,66daf7c4e70478d2ba52f9c3,2024-09-06_14h59.08.486,mdp,2024.2.1,Win32,59.88023952,66d7945b1baad48e845df3ce,,,,,,,,,,,,,,1,seqs/st1seq11.csv,1226.3015,1229.0923,space,2.2672,,1229.0996,1229.0996,1229.1017,1232.7221,1,0,right,3.0906,,1232.7495,1232.7509,1,1,,1232.7526,1232.7538,1,0,,1,1232.754,1232.7541,1232.7556,1234.2576,0,0,0,0,1,0.8,0.2,0.4,0.6,1,0,,,,,,,,,,,,,,,,,,,,,,,,,,,,,,,,,,,,
,,66a8e7a8b988a204c34be465,66daf7c4e70478d2ba52f9c3,2024-09-06_14h59.08.486,mdp,2024.2.1,Win32,59.88023952,66d7945b1baad48e845df3ce,,,,,,,,,,,,,,,,,,,,,1234.258,1234.258,1234.2592,1235.8052,1,0,right,1.0164,,1235.8061,1235.8067,1,0,,1235.8074,1235.8081,1,0,,1,1235.8081,1235.8082,1235.8086,1237.3051,0,1,1,1,1,0.6,0.4,0.8,0.2,1,0,,,,,,,,,,,,,,,,,,,,,,,,,,,,,,,,,,,,
,,66a8e7a8b988a204c34be465,66daf7c4e70478d2ba52f9c3,2024-09-06_14h59.08.486,mdp,2024.2.1,Win32,59.88023952,66d7945b1baad48e845df3ce,,,,,,,,,,,,,,,,,,,,,1237.3055,1237.3055,1237.3064,1238.5919,1,0,right,0.7604,,1238.593,1238.5939,1,0,,1238.5945,1238.5956,1,1,,1,1238.5956,1238.5957,1238.5965,1240.0883,0,2,2,2,1,0.2,0.8,0.6,0.4,1,0,,,,,,,,,,,,,,,,,,,,,,,,,,,,,,,,,,,,
,,66a8e7a8b988a204c34be465,66daf7c4e70478d2ba52f9c3,2024-09-06_14h59.08.486,mdp,2024.2.1,Win32,59.88023952,66d7945b1baad48e845df3ce,,,,,,,,,,,,,,,,,,,,,1240.0889,1240.0889,1240.0906,1241.0891,1,0,right,0.4775,,1241.0908,1241.092,1,1,,1241.0928,1241.0938,1,0,,1,1241.0938,1241.0938,1241.0948,1242.5886,0,3,3,3,1,0.2,0.8,0.6,0.4,1,0,,,,,,,,,,,,,,,,,,,,,,,,,,,,,,,,,,,,
,,66a8e7a8b988a204c34be465,66daf7c4e70478d2ba52f9c3,2024-09-06_14h59.08.486,mdp,2024.2.1,Win32,59.88023952,66d7945b1baad48e845df3ce,,,,,,,,,,,,,,,,,,,,,1242.5896,1242.5897,1242.5916,1243.6223,1,1,right,0.501,,1243.6238,1243.6249,1,0,,1243.6259,1243.6272,1,0,,0,1243.6272,1243.6272,1243.6282,1245.1205,0,4,4,4,1,0.2,0.8,0.6,0.4,1,0,,,,,,,,,,,,,,,,,,,,,,,,,,,,,,,,,,,,
,,66a8e7a8b988a204c34be465,66daf7c4e70478d2ba52f9c3,2024-09-06_14h59.08.486,mdp,2024.2.1,Win32,59.88023952,66d7945b1baad48e845df3ce,,,,,,,,,,,,,,,,,,,,,1245.1211,1245.1211,1245.1223,1246.2044,1,0,right,0.5524,,1246.2063,1246.2084,1,0,,1246.2095,1246.2104,1,0,,1,1246.2105,1246.2105,1246.2112,1247.7041,0,5,5,5,1,0.2,0.8,0.6,0.4,1,0,,,,,,,,,,,,,,,,,,,,,,,,,,,,,,,,,,,,
,,66a8e7a8b988a204c34be465,66daf7c4e70478d2ba52f9c3,2024-09-06_14h59.08.486,mdp,2024.2.1,Win32,59.88023952,66d7945b1baad48e845df3ce,,,,,,,,,,,,,,,,,,,,,1247.7045,1247.7046,1247.7064,1248.3709,1,0,right,0.14,,1248.3729,1248.375,1,0,,1248.3762,1248.3771,1,0,,1,1248.3772,1248.3772,1248.378,1249.8706,0,6,6,6,1,0.2,0.8,0.6,0.4,1,0,,,,,,,,,,,,,,,,,,,,,,,,,,,,,,,,,,,,
,,66a8e7a8b988a204c34be465,66daf7c4e70478d2ba52f9c3,2024-09-06_14h59.08.486,mdp,2024.2.1,Win32,59.88023952,66d7945b1baad48e845df3ce,,,,,,,,,,,,,,,,,,,,,1249.8714,1249.8714,1249.8728,1250.7374,1,0,right,0.3374,,1250.7387,1250.7407,1,0,,1250.742,1250.7431,1,1,,1,1250.7431,1250.7431,1250.7439,1252.2368,0,7,7,7,1,0.2,0.8,0.6,0.4,1,0,,,,,,,,,,,,,,,,,,,,,,,,,,,,,,,,,,,,
,,66a8e7a8b988a204c34be465,66daf7c4e70478d2ba52f9c3,2024-09-06_14h59.08.486,mdp,2024.2.1,Win32,59.88023952,66d7945b1baad48e845df3ce,,,,,,,,,,,,,,,,,,,,,1252.2372,1252.2372,1252.2388,1254.1201,1,0,right,1.3547,,1254.1213,1254.1226,1,1,,1254.123,1254.1233,1,1,,1,1254.1234,1254.1234,1254.1236,1255.6203,0,8,8,8,1,0.2,0.8,0.6,0.4,1,0,,,,,,,,,,,,,,,,,,,,,,,,,,,,,,,,,,,,
,,66a8e7a8b988a204c34be465,66daf7c4e70478d2ba52f9c3,2024-09-06_14h59.08.486,mdp,2024.2.1,Win32,59.88023952,66d7945b1baad48e845df3ce,,,,,,,,,,,,,,,,,,,,,1255.6209,1255.6209,1255.6223,1256.8542,1,1,right,0.7102,,1256.8559,1256.8568,1,1,,1256.8576,1256.8583,1,1,,0,1256.8583,1256.8583,1256.8589,1258.3531,0,9,9,9,1,0.6,0.4,0.2,0.8,1,0,,,,,,,,,,,,,,,,,,,,,,,,,,,,,,,,,,,,
,,66a8e7a8b988a204c34be465,66daf7c4e70478d2ba52f9c3,2024-09-06_14h59.08.486,mdp,2024.2.1,Win32,59.88023952,66d7945b1baad48e845df3ce,,,,,,,,,,,,,,,,,,,,,1258.3538,1258.3538,1258.3553,1259.2872,1,1,right,0.4031,,1259.2887,1259.2906,1,1,,1259.2916,1259.2927,1,1,,0,1259.2927,1259.2927,1259.2937,1260.7867,0,10,10,10,1,0.6,0.4,0.2,0.8,1,0,,,,,,,,,,,,,,,,,,,,,,,,,,,,,,,,,,,,
,,66a8e7a8b988a204c34be465,66daf7c4e70478d2ba52f9c3,2024-09-06_14h59.08.486,mdp,2024.2.1,Win32,59.88023952,66d7945b1baad48e845df3ce,,,,,,,,,,,,,,,,,,,,,1260.7873,1260.7873,1260.789,1261.8366,1,1,right,0.5345,,1261.838,1261.8397,1,1,,1261.8407,1261.8414,1,0,,0,1261.8414,1261.8414,1261.842,1263.3367,0,11,11,11,1,0.8,0.2,0.8,0.2,1,0,,,,,,,,,,,,,,,,,,,,,,,,,,,,,,,,,,,,
,,66a8e7a8b988a204c34be465,66daf7c4e70478d2ba52f9c3,2024-09-06_14h59.08.486,mdp,2024.2.1,Win32,59.88023952,66d7945b1baad48e845df3ce,,,,,,,,,,,,,,,,,,,,,1263.3371,1263.3372,1263.3385,1264.2868,1,0,right,0.4193,,1264.2886,1264.2899,1,0,,1264.2906,1264.291,1,0,,1,1264.291,1264.291,1264.2916,1265.7862,0,12,12,12,1,0.8,0.2,0.8,0.2,1,0,,,,,,,,,,,,,,,,,,,,,,,,,,,,,,,,,,,,
,,66a8e7a8b988a204c34be465,66daf7c4e70478d2ba52f9c3,2024-09-06_14h59.08.486,mdp,2024.2.1,Win32,59.88023952,66d7945b1baad48e845df3ce,,,,,,,,,,,,,,,,,,,,,1265.7867,1265.7867,1265.7878,1266.6699,1,1,right,0.3571,,1266.6715,1266.6732,1,0,,1266.6741,1266.675,1,0,,0,1266.675,1266.675,1266.6757,1268.1692,0,13,13,13,1,0.2,0.8,0.6,0.4,1,0,,,,,,,,,,,,,,,,,,,,,,,,,,,,,,,,,,,,
,,66a8e7a8b988a204c34be465,66daf7c4e70478d2ba52f9c3,2024-09-06_14h59.08.486,mdp,2024.2.1,Win32,59.88023952,66d7945b1baad48e845df3ce,,,,,,,,,,,,,,,,,,,,,1268.1697,1268.1697,1268.171,1269.2191,1,0,right,0.5284,,1269.2201,1269.2216,1,1,,1269.2222,1269.2226,1,1,,1,1269.2226,1269.2226,1269.223,1270.7196,0,14,14,14,1,0.2,0.8,0.6,0.4,1,0,,,,,,,,,,,,,,,,,,,,,,,,,,,,,,,,,,,,
,,66a8e7a8b988a204c34be465,66daf7c4e70478d2ba52f9c3,2024-09-06_14h59.08.486,mdp,2024.2.1,Win32,59.88023952,66d7945b1baad48e845df3ce,,,,,,,,,,,,,,,,,,,,,1270.7202,1270.7202,1270.7216,1271.487,1,1,right,0.2377,,1271.4883,1271.4899,1,0,,1271.4907,1271.4914,1,1,,0,1271.4915,1271.4915,1271.492,1272.9861,0,15,15,15,1,0.2,0.8,0.6,0.4,1,0,,,,,,,,,,,,,,,,,,,,,,,,,,,,,,,,,,,,
,,66a8e7a8b988a204c34be465,66daf7c4e70478d2ba52f9c3,2024-09-06_14h59.08.486,mdp,2024.2.1,Win32,59.88023952,66d7945b1baad48e845df3ce,,,,,,,,,,,,,,,,,,,,,1272.9872,1272.9872,1272.9892,1273.9191,1,0,right,0.4047,,1273.9202,1273.9218,1,1,,1273.9608,1273.962,1,0,,1,1273.9621,1273.9621,1273.963,1275.4528,0,16,16,16,1,0.2,0.8,0.6,0.4,1,0,,,,,,,,,,,,,,,,,,,,,,,,,,,,,,,,,,,,
,,66a8e7a8b988a204c34be465,66daf7c4e70478d2ba52f9c3,2024-09-06_14h59.08.486,mdp,2024.2.1,Win32,59.88023952,66d7945b1baad48e845df3ce,,,,,,,,,,,,,,,,,,,,,1275.4532,1275.4533,1275.4553,1276.2028,1,0,right,0.217,,1276.2035,1276.205,1,0,,1276.2057,1276.2063,1,0,,1,1276.2064,1276.2064,1276.2067,1277.7023,0,17,17,17,1,0.2,0.8,0.6,0.4,1,0,,,,,,,,,,,,,,,,,,,,,,,,,,,,,,,,,,,,
,,66a8e7a8b988a204c34be465,66daf7c4e70478d2ba52f9c3,2024-09-06_14h59.08.486,mdp,2024.2.1,Win32,59.88023952,66d7945b1baad48e845df3ce,,,,,,,,,,,,,,,,,,,,,1277.7027,1277.7027,1277.704,1278.5692,1,1,right,0.3397,,1278.5708,1278.5725,1,0,,1278.5737,1278.5747,1,1,,0,1278.5748,1278.5748,1278.5756,1280.0692,0,18,18,18,1,0.2,0.8,0.6,0.4,1,0,,,,,,,,,,,,,,,,,,,,,,,,,,,,,,,,,,,,
,,66a8e7a8b988a204c34be465,66daf7c4e70478d2ba52f9c3,2024-09-06_14h59.08.486,mdp,2024.2.1,Win32,59.88023952,66d7945b1baad48e845df3ce,,,,,,,,,,,,,,,,,,,,,1280.0696,1280.0697,1280.0719,1281.1195,1,0,right,0.5232,,1281.1224,1281.1244,1,0,,1281.1256,1281.1266,1,0,,1,1281.1266,1281.1267,1281.1273,1282.6191,0,19,19,19,1,0.2,0.8,0.6,0.4,1,0,,,,,,,,,,,,,,,,,,,,,,,,,,,,,,,,,,,,
,,66a8e7a8b988a204c34be465,66daf7c4e70478d2ba52f9c3,2024-09-06_14h59.08.486,mdp,2024.2.1,Win32,59.88023952,66d7945b1baad48e845df3ce,,,,,,,,,,,,,,,,,,,,,1282.6197,1282.6197,1282.6225,1283.4857,1,0,right,0.3368,,1283.4874,1283.4888,1,0,,1283.4899,1283.4911,1,0,,1,1283.4912,1283.4912,1283.4923,1284.9916,0,20,20,20,1,0.4,0.6,0.8,0.2,1,0,,,,,,,,,,,,,,,,,,,,,,,,,,,,,,,,,,,,
,,66a8e7a8b988a204c34be465,66daf7c4e70478d2ba52f9c3,2024-09-06_14h59.08.486,mdp,2024.2.1,Win32,59.88023952,66d7945b1baad48e845df3ce,,,,,,,,,,,,,,,,,,,,,1284.9921,1284.9921,1284.9932,1285.8349,1,0,right,0.3045,,1285.8363,1285.8369,1,0,,1285.8382,1285.8387,1,1,,1,1285.8387,1285.8387,1285.8391,1287.3349,0,21,21,21,1,0.6,0.4,0.6,0.4,1,0,,,,,,,,,,,,,,,,,,,,,,,,,,,,,,,,,,,,
,,66a8e7a8b988a204c34be465,66daf7c4e70478d2ba52f9c3,2024-09-06_14h59.08.486,mdp,2024.2.1,Win32,59.88023952,66d7945b1baad48e845df3ce,,,,,,,,,,,,,,,,,,,,,1287.3352,1287.3352,1287.3362,1288.2018,1,1,right,0.3176,,1288.2026,1288.2037,1,0,,1288.2049,1288.2054,1,1,,0,1288.2055,1288.2055,1288.2057,1289.7064,0,22,22,22,1,0.6,0.4,0.6,0.4,1,0,,,,,,,,,,,,,,,,,,,,,,,,,,,,,,,,,,,,
,,66a8e7a8b988a204c34be465,66daf7c4e70478d2ba52f9c3,2024-09-06_14h59.08.486,mdp,2024.2.1,Win32,59.88023952,66d7945b1baad48e845df3ce,,,,,,,,,,,,,,,,,,,,,1289.7069,1289.7069,1289.7078,1290.6352,1,0,right,0.4205,,1290.637,1290.6389,1,0,,1290.6401,1290.6413,1,1,,1,1290.6413,1290.6413,1290.6419,1292.1354,0,23,23,23,1,0.6,0.4,0.6,0.4,1,0,,,,,,,,,,,,,,,,,,,,,,,,,,,,,,,,,,,,
,,66a8e7a8b988a204c34be465,66daf7c4e70478d2ba52f9c3,2024-09-06_14h59.08.486,mdp,2024.2.1,Win32,59.88023952,66d7945b1baad48e845df3ce,,,,,,,,,,,,,,,,,,,,,1292.1358,1292.1358,1292.1371,1293.0595,1,1,right,0.4014,,1293.0605,1293.0614,1,0,,1293.0621,1293.0628,1,1,,0,1293.0628,1293.0628,1293.0632,1294.5515,0,24,24,24,1,0.6,0.4,0.6,0.4,1,0,,,,,,,,,,,,,,,,,,,,,,,,,,,,,,,,,,,,
,,66a8e7a8b988a204c34be465,66daf7c4e70478d2ba52f9c3,2024-09-06_14h59.08.486,mdp,2024.2.1,Win32,59.88023952,66d7945b1baad48e845df3ce,,,,,,,,,,,,,,,,,,,,,1294.552,1294.552,1294.5537,1295.4521,1,0,right,0.362,,1295.4545,1295.4559,1,1,,1295.4572,1295.4583,1,1,,1,1295.4583,1295.4583,1295.459,1296.951,0,25,25,25,1,0.6,0.4,0.6,0.4,1,0,,,,,,,,,,,,,,,,,,,,,,,,,,,,,,,,,,,,
,,66a8e7a8b988a204c34be465,66daf7c4e70478d2ba52f9c3,2024-09-06_14h59.08.486,mdp,2024.2.1,Win32,59.88023952,66d7945b1baad48e845df3ce,,,,,,,,,,,,,,,,,,,,,1296.9514,1296.9514,1296.9523,1299.9513,1,0,right,2.4631,,1299.9524,1299.9533,1,1,,1299.9543,1299.9552,1,1,,1,1299.9553,1299.9553,1299.9559,1301.4515,0,26,26,26,1,0.6,0.4,0.6,0.4,1,0,,,,,,,,,,,,,,,,,,,,,,,,,,,,,,,,,,,,
,,66a8e7a8b988a204c34be465,66daf7c4e70478d2ba52f9c3,2024-09-06_14h59.08.486,mdp,2024.2.1,Win32,59.88023952,66d7945b1baad48e845df3ce,,,,,,,,,,,,,,,,,,,,,1301.452,1301.4521,1301.4532,1303.7182,1,0,right,1.7393,,1303.7198,1303.7219,1,0,,1303.7229,1303.7241,1,0,,1,1303.7241,1303.7241,1303.7249,1305.2173,0,27,27,27,1,0.6,0.4,0.6,0.4,1,0,,,,,,,,,,,,,,,,,,,,,,,,,,,,,,,,,,,,
,,66a8e7a8b988a204c34be465,66daf7c4e70478d2ba52f9c3,2024-09-06_14h59.08.486,mdp,2024.2.1,Win32,59.88023952,66d7945b1baad48e845df3ce,,,,,,,,,,,,,,,,,,,,,1305.218,1305.218,1305.2197,1305.9014,1,0,right,0.1513,,1305.9029,1305.9047,1,1,,1305.9055,1305.9062,1,0,,1,1305.9062,1305.9062,1305.9068,1307.4005,0,28,28,28,1,0.6,0.4,0.6,0.4,1,0,,,,,,,,,,,,,,,,,,,,,,,,,,,,,,,,,,,,
,,66a8e7a8b988a204c34be465,66daf7c4e70478d2ba52f9c3,2024-09-06_14h59.08.486,mdp,2024.2.1,Win32,59.88023952,66d7945b1baad48e845df3ce,,,,,,,,,,,,,,,,,,,,,1307.4392,1307.4392,1307.44,1308.2514,1,1,right,0.2949,,1308.253,1308.2552,1,0,,1308.257,1308.2583,1,1,,0,1308.2583,1308.2583,1308.2592,1309.7509,0,29,29,29,1,0.6,0.4,0.6,0.4,1,0,,,,,,,,,,,,,,,,,,,,,,,,,,,,,,,,,,,,
,,66a8e7a8b988a204c34be465,66daf7c4e70478d2ba52f9c3,2024-09-06_14h59.08.486,mdp,2024.2.1,Win32,59.88023952,66d7945b1baad48e845df3ce,,,,,,,,,,,,,,,,,,,,,1309.7514,1309.7515,1309.7528,1310.7507,1,0,right,0.478,,1310.7522,1310.7529,1,1,,1310.7536,1310.7545,1,1,,1,1310.7547,1310.7547,1310.7551,1312.2507,0,30,30,30,1,0.6,0.4,0.6,0.4,1,0,,,,,,,,,,,,,,,,,,,,,,,,,,,,,,,,,,,,
,,66a8e7a8b988a204c34be465,66daf7c4e70478d2ba52f9c3,2024-09-06_14h59.08.486,mdp,2024.2.1,Win32,59.88023952,66d7945b1baad48e845df3ce,,,,,,,,,,,,,,,,,,,,,1312.2513,1312.2513,1312.253,1313.0836,1,1,right,0.3031,,1313.0848,1313.0856,1,1,,1313.0862,1313.0869,1,0,,0,1313.087,1313.087,1313.0885,1314.5839,0,31,31,31,1,0.6,0.4,0.6,0.4,1,0,,,,,,,,,,,,,,,,,,,,,,,,,,,,,,,,,,,,
,,66a8e7a8b988a204c34be465,66daf7c4e70478d2ba52f9c3,2024-09-06_14h59.08.486,mdp,2024.2.1,Win32,59.88023952,66d7945b1baad48e845df3ce,,,,,,,,,,,,,,,,,,,,,1314.585,1314.5851,1314.5872,1315.517,1,1,right,0.3988,,1315.5185,1315.5193,1,1,,1315.5201,1315.5215,1,0,,0,1315.5215,1315.5215,1315.5221,1317.0168,0,32,32,32,1,0.6,0.4,0.6,0.4,1,0,,,,,,,,,,,,,,,,,,,,,,,,,,,,,,,,,,,,
,,66a8e7a8b988a204c34be465,66daf7c4e70478d2ba52f9c3,2024-09-06_14h59.08.486,mdp,2024.2.1,Win32,59.88023952,66d7945b1baad48e845df3ce,,,,,,,,,,,,,,,,,,,,,1317.0176,1317.0176,1317.019,1317.9506,1,0,right,0.4027,,1317.9522,1317.9534,1,0,,1317.9556,1317.9563,1,1,,1,1317.9563,1317.9563,1317.9569,1319.4499,0,33,33,33,1,0.6,0.4,0.6,0.4,1,0,,,,,,,,,,,,,,,,,,,,,,,,,,,,,,,,,,,,
,,66a8e7a8b988a204c34be465,66daf7c4e70478d2ba52f9c3,2024-09-06_14h59.08.486,mdp,2024.2.1,Win32,59.88023952,66d7945b1baad48e845df3ce,,,,,,,,,,,,,,,,,,,,,1319.4504,1319.4504,1319.4519,1320.2504,1,0,right,0.2682,,1320.2521,1320.2532,1,1,,1320.2548,1320.2559,1,0,,1,1320.256,1320.256,1320.2572,1321.7498,0,34,34,34,1,0.6,0.4,0.6,0.4,1,0,,,,,,,,,,,,,,,,,,,,,,,,,,,,,,,,,,,,
,,66a8e7a8b988a204c34be465,66daf7c4e70478d2ba52f9c3,2024-09-06_14h59.08.486,mdp,2024.2.1,Win32,59.88023952,66d7945b1baad48e845df3ce,,,,,,,,,,,,,,,,,,,,,1321.7501,1321.7501,1321.751,1322.6165,1,1,right,0.3328,,1322.618,1322.619,1,0,,1322.6197,1322.6205,1,0,,0,1322.6205,1322.6205,1322.6213,1324.1165,0,35,35,35,1,0.6,0.4,0.6,0.4,1,0,,,,,,,,,,,,,,,,,,,,,,,,,,,,,,,,,,,,
,,66a8e7a8b988a204c34be465,66daf7c4e70478d2ba52f9c3,2024-09-06_14h59.08.486,mdp,2024.2.1,Win32,59.88023952,66d7945b1baad48e845df3ce,,,,,,,,,,,,,,,,,,,,,1324.117,1324.117,1324.119,1325.0832,1,0,right,0.4308,,1325.0846,1325.0856,1,1,,1325.0863,1325.0868,1,0,,1,1325.087,1325.087,1325.0877,1326.5835,0,36,36,36,1,0.6,0.4,0.6,0.4,1,0,,,,,,,,,,,,,,,,,,,,,,,,,,,,,,,,,,,,
,,66a8e7a8b988a204c34be465,66daf7c4e70478d2ba52f9c3,2024-09-06_14h59.08.486,mdp,2024.2.1,Win32,59.88023952,66d7945b1baad48e845df3ce,,,,,,,,,,,,,,,,,,,,,1326.5842,1326.5842,1326.5856,1327.4162,1,1,right,0.3084,,1327.4175,1327.4181,1,1,,1327.4186,1327.4191,1,0,,0,1327.4191,1327.4191,1327.4195,1328.9167,0,37,37,37,1,0.8,0.2,0.2,0.8,1,0,,,,,,,,,,,,,,,,,,,,,,,,,,,,,,,,,,,,
,,66a8e7a8b988a204c34be465,66daf7c4e70478d2ba52f9c3,2024-09-06_14h59.08.486,mdp,2024.2.1,Win32,59.88023952,66d7945b1baad48e845df3ce,,,,,,,,,,,,,,,,,,,,,1328.9172,1328.9172,1328.9186,1329.8332,1,1,right,0.3908,,1329.8345,1329.8352,1,1,,1329.8361,1329.8366,1,1,,0,1329.8366,1329.8366,1329.8372,1331.3332,0,38,38,38,1,0.8,0.2,0.2,0.8,1,0,,,,,,,,,,,,,,,,,,,,,,,,,,,,,,,,,,,,
,,66a8e7a8b988a204c34be465,66daf7c4e70478d2ba52f9c3,2024-09-06_14h59.08.486,mdp,2024.2.1,Win32,59.88023952,66d7945b1baad48e845df3ce,,,,,,,,,,,,,,,,,,,,,1331.3339,1331.3339,1331.3356,1332.25,1,1,right,0.39,,1332.2515,1332.2524,1,1,,1332.253,1332.2537,1,1,,0,1332.2537,1332.2537,1332.2544,1333.7493,0,39,39,39,1,0.8,0.2,0.2,0.8,1,0,,,,,,,,,,,,,,,,,,,,,,,,,,,,,,,,,,,,
