init_exp.started,init_exp.stopped,participant,session,date,expName,psychopyVersion,OS,frameRate,study_id,disp_instruction.started,disp_instruction.stopped,instruction.thisRepN,instruction.thisTrialN,instruction.thisN,instruction.thisIndex,instruction.ran,instimg_path,consent.started,consent.stopped,key_resp_3.keys,key_resp_3.rt,key_resp_3.duration,n_steps,sequence_path,init_block.started,init_block.stopped,key_resp.keys,key_resp.rt,key_resp.duration,init_trials.started,init_trials.stopped,step0.started,step0.stopped,act0,s1,res0.keys,res0.rt,res0.duration,step1.started,step1.stopped,act1,s2,res1.keys,step2.started,step2.stopped,act2,s3,res2.keys,rew,reward_comp.started,reward_comp.stopped,reward_disp.started,reward_disp.stopped,trials.thisRepN,trials.thisTrialN,trials.thisN,trials.thisIndex,trials.ran,s00a0s10,s00a0s11,s00a1s10,s00a1s11,rew10,rew11,break_block.started,break_block.stopped,block.thisRepN,block.thisTrialN,block.thisN,block.thisIndex,block.ran,s00path,s10path,s11path,s20path,s21path,res1.rt,res1.duration,s10a0s20,s10a0s21,s10a1s20,s10a1s21,s11a0s20,s11a0s21,s11a1s20,s11a1s21,rew20,rew21,res2.rt,res2.duration,s20a0s30,s20a0s31,s20a1s30,s20a1s31,s21a0s30,s21a0s31,s21a1s30,s21a1s31,rew30,rew31
0.0003,0.0015,66aa651e21c9af8ebcd8081e,66fc9974b4165711b6f3b19c,2024-10-02_01h56.03.620,mdp,2024.2.1,Win32,59.88023952,66fa4ebf79326e780c390304,,,,,,,,,,,,,,,,,,,,,,,,,,,,,,,,,,,,,,,,,,,,,,,,,,,,,,,,,,,,,,,,,,,,,,,,,,,,,,,,,,,,,,,,,,,
,,66aa651e21c9af8ebcd8081e,66fc9974b4165711b6f3b19c,2024-10-02_01h56.03.620,mdp,2024.2.1,Win32,59.88023952,66fa4ebf79326e780c390304,0.0052,36.618,0,0,0,0,1,rlnn_exp/rlnn_exp.001.png,,,,,,,,,,,,,,,,,,,,,,,,,,,,,,,,,,,,,,,,,,,,,,,,,,,,,,,,,,,,,,,,,,,,,,,,,,,,,,,,,,,
,,66aa651e21c9af8ebcd8081e,66fc9974b4165711b6f3b19c,2024-10-02_01h56.03.620,mdp,2024.2.1,Win32,59.88023952,66fa4ebf79326e780c390304,36.6187,51.9709,0,1,1,1,1,rlnn_exp/rlnn_exp.002.png,,,,,,,,,,,,,,,,,,,,,,,,,,,,,,,,,,,,,,,,,,,,,,,,,,,,,,,,,,,,,,,,,,,,,,,,,,,,,,,,,,,
,,66aa651e21c9af8ebcd8081e,66fc9974b4165711b6f3b19c,2024-10-02_01h56.03.620,mdp,2024.2.1,Win32,59.88023952,66fa4ebf79326e780c390304,51.9715,79.1469,0,2,2,2,1,rlnn_exp/rlnn_exp.003.png,,,,,,,,,,,,,,,,,,,,,,,,,,,,,,,,,,,,,,,,,,,,,,,,,,,,,,,,,,,,,,,,,,,,,,,,,,,,,,,,,,,
,,66aa651e21c9af8ebcd8081e,66fc9974b4165711b6f3b19c,2024-10-02_01h56.03.620,mdp,2024.2.1,Win32,59.88023952,66fa4ebf79326e780c390304,79.1476,121.8267,0,3,3,3,1,rlnn_exp/rlnn_exp.004.png,,,,,,,,,,,,,,,,,,,,,,,,,,,,,,,,,,,,,,,,,,,,,,,,,,,,,,,,,,,,,,,,,,,,,,,,,,,,,,,,,,,
,,66aa651e21c9af8ebcd8081e,66fc9974b4165711b6f3b19c,2024-10-02_01h56.03.620,mdp,2024.2.1,Win32,59.88023952,66fa4ebf79326e780c390304,,,,,,,,,121.8271,146.3722,y,14.5051,,,,,,,,,,,,,,,,,,,,,,,,,,,,,,,,,,,,,,,,,,,,,,,,,,,,,,,,,,,,,,,,,,,,,,,,,,,,,,,
,,66aa651e21c9af8ebcd8081e,66fc9974b4165711b6f3b19c,2024-10-02_01h56.03.620,mdp,2024.2.1,Win32,59.88023952,66fa4ebf79326e780c390304,,,,,,,,,,,,,,1,seqs/st1seq16.csv,146.3763,150.1358,space,3.231,,150.1389,150.1391,150.1394,157.6955,1,1,right,7.0119,,157.6961,157.6982,,1,,157.6985,157.6996,,1,,0,157.6997,157.6998,157.7001,159.1945,0,0,0,0,1,0.8,0.2,0.2,0.8,1,0,,,,,,,,,,,,,,,,,,,,,,,,,,,,,,,,,,,,
,,66aa651e21c9af8ebcd8081e,66fc9974b4165711b6f3b19c,2024-10-02_01h56.03.620,mdp,2024.2.1,Win32,59.88023952,66fa4ebf79326e780c390304,,,,,,,,,,,,,,,,,,,,,159.1951,159.1951,159.1961,160.5928,0,0,left,0.8655,,160.594,160.5951,,0,,160.5959,160.5965,,0,,1,160.5966,160.5966,160.597,162.0921,0,1,1,1,1,0.8,0.2,0.2,0.8,1,0,,,,,,,,,,,,,,,,,,,,,,,,,,,,,,,,,,,,
,,66aa651e21c9af8ebcd8081e,66fc9974b4165711b6f3b19c,2024-10-02_01h56.03.620,mdp,2024.2.1,Win32,59.88023952,66fa4ebf79326e780c390304,,,,,,,,,,,,,,,,,,,,,162.0925,162.0925,162.094,164.2231,0,0,left,1.6076,,164.2242,164.2251,,0,,164.2258,164.2262,,1,,1,164.2262,164.2262,164.2267,165.7223,0,2,2,2,1,0.6,0.4,0.4,0.6,1,0,,,,,,,,,,,,,,,,,,,,,,,,,,,,,,,,,,,,
,,66aa651e21c9af8ebcd8081e,66fc9974b4165711b6f3b19c,2024-10-02_01h56.03.620,mdp,2024.2.1,Win32,59.88023952,66fa4ebf79326e780c390304,,,,,,,,,,,,,,,,,,,,,165.7227,165.7227,165.7239,167.7707,0,0,left,1.5162,,167.7716,167.7729,,0,,167.7737,167.7743,,0,,1,167.7744,167.7744,167.7749,169.2687,0,3,3,3,1,0.6,0.4,0.4,0.6,1,0,,,,,,,,,,,,,,,,,,,,,,,,,,,,,,,,,,,,
,,66aa651e21c9af8ebcd8081e,66fc9974b4165711b6f3b19c,2024-10-02_01h56.03.620,mdp,2024.2.1,Win32,59.88023952,66fa4ebf79326e780c390304,,,,,,,,,,,,,,,,,,,,,169.2691,169.2691,169.2703,170.4674,0,0,left,0.6676,,170.4684,170.4693,,0,,170.4699,170.4705,,1,,1,170.4705,170.4705,170.4709,171.9663,0,4,4,4,1,0.6,0.4,0.4,0.6,1,0,,,,,,,,,,,,,,,,,,,,,,,,,,,,,,,,,,,,
,,66aa651e21c9af8ebcd8081e,66fc9974b4165711b6f3b19c,2024-10-02_01h56.03.620,mdp,2024.2.1,Win32,59.88023952,66fa4ebf79326e780c390304,,,,,,,,,,,,,,,,,,,,,171.9668,171.9668,171.9681,173.3149,0,1,left,0.8173,,173.316,173.317,,1,,173.3177,173.3183,,0,,0,173.3183,173.3183,173.3187,174.8141,0,5,5,5,1,0.6,0.4,0.4,0.6,1,0,,,,,,,,,,,,,,,,,,,,,,,,,,,,,,,,,,,,
,,66aa651e21c9af8ebcd8081e,66fc9974b4165711b6f3b19c,2024-10-02_01h56.03.620,mdp,2024.2.1,Win32,59.88023952,66fa4ebf79326e780c390304,,,,,,,,,,,,,,,,,,,,,174.8144,174.8144,174.8155,175.8633,1,1,right,0.5165,,175.8643,175.8652,,1,,175.8659,175.8665,,0,,0,175.8665,175.8665,175.867,177.3617,0,6,6,6,1,0.6,0.4,0.4,0.6,1,0,,,,,,,,,,,,,,,,,,,,,,,,,,,,,,,,,,,,
,,66aa651e21c9af8ebcd8081e,66fc9974b4165711b6f3b19c,2024-10-02_01h56.03.620,mdp,2024.2.1,Win32,59.88023952,66fa4ebf79326e780c390304,,,,,,,,,,,,,,,,,,,,,177.3622,177.3622,177.3636,179.0437,0,0,left,1.1581,,179.0448,179.0459,,0,,179.0466,179.047,,0,,1,179.0471,179.0471,179.0475,180.5421,0,7,7,7,1,0.6,0.4,0.4,0.6,1,0,,,,,,,,,,,,,,,,,,,,,,,,,,,,,,,,,,,,
,,66aa651e21c9af8ebcd8081e,66fc9974b4165711b6f3b19c,2024-10-02_01h56.03.620,mdp,2024.2.1,Win32,59.88023952,66fa4ebf79326e780c390304,,,,,,,,,,,,,,,,,,,,,180.5425,180.5425,180.5435,181.9243,0,0,left,0.8496,,181.9253,181.9264,,0,,181.9272,181.9278,,0,,1,181.9278,181.9278,181.9282,183.423,0,8,8,8,1,0.6,0.4,0.4,0.6,1,0,,,,,,,,,,,,,,,,,,,,,,,,,,,,,,,,,,,,
,,66aa651e21c9af8ebcd8081e,66fc9974b4165711b6f3b19c,2024-10-02_01h56.03.620,mdp,2024.2.1,Win32,59.88023952,66fa4ebf79326e780c390304,,,,,,,,,,,,,,,,,,,,,183.4234,183.4234,183.4244,186.8698,0,1,left,2.9233,,186.8706,186.8716,,1,,186.8722,186.8727,,1,,0,186.8727,186.8727,186.8731,188.3687,0,9,9,9,1,0.2,0.8,0.6,0.4,1,0,,,,,,,,,,,,,,,,,,,,,,,,,,,,,,,,,,,,
,,66aa651e21c9af8ebcd8081e,66fc9974b4165711b6f3b19c,2024-10-02_01h56.03.620,mdp,2024.2.1,Win32,59.88023952,66fa4ebf79326e780c390304,,,,,,,,,,,,,,,,,,,,,188.3691,188.3691,188.37,189.5176,1,0,right,0.6254,,189.5186,189.5193,,0,,189.5198,189.5202,,1,,1,189.5203,189.5203,189.5206,191.0164,0,10,10,10,1,0.2,0.8,0.6,0.4,1,0,,,,,,,,,,,,,,,,,,,,,,,,,,,,,,,,,,,,
,,66aa651e21c9af8ebcd8081e,66fc9974b4165711b6f3b19c,2024-10-02_01h56.03.620,mdp,2024.2.1,Win32,59.88023952,66fa4ebf79326e780c390304,,,,,,,,,,,,,,,,,,,,,191.0169,191.0169,191.0178,193.4143,0,0,left,1.8657,,193.4155,193.4166,,0,,193.4173,193.4178,,0,,1,193.4178,193.4178,193.4182,194.9195,0,11,11,11,1,0.8,0.2,0.4,0.6,1,0,,,,,,,,,,,,,,,,,,,,,,,,,,,,,,,,,,,,
,,66aa651e21c9af8ebcd8081e,66fc9974b4165711b6f3b19c,2024-10-02_01h56.03.620,mdp,2024.2.1,Win32,59.88023952,66fa4ebf79326e780c390304,,,,,,,,,,,,,,,,,,,,,194.9199,194.92,194.9208,196.2284,1,0,right,0.7828,,196.2293,196.2301,,0,,196.2307,196.2313,,0,,1,196.2313,196.2313,196.2317,197.7271,0,12,12,12,1,0.4,0.6,0.8,0.2,1,0,,,,,,,,,,,,,,,,,,,,,,,,,,,,,,,,,,,,
,,66aa651e21c9af8ebcd8081e,66fc9974b4165711b6f3b19c,2024-10-02_01h56.03.620,mdp,2024.2.1,Win32,59.88023952,66fa4ebf79326e780c390304,,,,,,,,,,,,,,,,,,,,,197.7274,197.7274,197.7283,198.7766,0,0,left,0.5193,,198.7776,198.7783,,0,,198.7789,198.7794,,0,,1,198.7794,198.7794,198.7798,200.2747,0,13,13,13,1,0.8,0.2,0.4,0.6,1,0,,,,,,,,,,,,,,,,,,,,,,,,,,,,,,,,,,,,
,,66aa651e21c9af8ebcd8081e,66fc9974b4165711b6f3b19c,2024-10-02_01h56.03.620,mdp,2024.2.1,Win32,59.88023952,66fa4ebf79326e780c390304,,,,,,,,,,,,,,,,,,,,,200.2751,200.2751,200.2762,201.4574,1,0,right,0.6517,,201.4585,201.4595,,1,,201.4602,201.4608,,1,,1,201.4608,201.4608,201.4611,202.9557,0,14,14,14,1,0.8,0.2,0.4,0.6,1,0,,,,,,,,,,,,,,,,,,,,,,,,,,,,,,,,,,,,
,,66aa651e21c9af8ebcd8081e,66fc9974b4165711b6f3b19c,2024-10-02_01h56.03.620,mdp,2024.2.1,Win32,59.88023952,66fa4ebf79326e780c390304,,,,,,,,,,,,,,,,,,,,,202.956,202.956,202.957,203.9554,0,0,left,0.4578,,203.9565,203.9573,,0,,203.9581,203.9585,,0,,1,203.9585,203.9585,203.9589,205.4538,0,15,15,15,1,0.8,0.2,0.4,0.6,1,0,,,,,,,,,,,,,,,,,,,,,,,,,,,,,,,,,,,,
,,66aa651e21c9af8ebcd8081e,66fc9974b4165711b6f3b19c,2024-10-02_01h56.03.620,mdp,2024.2.1,Win32,59.88023952,66fa4ebf79326e780c390304,,,,,,,,,,,,,,,,,,,,,205.4541,205.4541,205.455,207.0521,1,1,right,1.0759,,207.0534,207.0542,,0,,207.0547,207.0553,,0,,0,207.0553,207.0553,207.0557,208.5513,0,16,16,16,1,0.2,0.8,0.6,0.4,1,0,,,,,,,,,,,,,,,,,,,,,,,,,,,,,,,,,,,,
,,66aa651e21c9af8ebcd8081e,66fc9974b4165711b6f3b19c,2024-10-02_01h56.03.620,mdp,2024.2.1,Win32,59.88023952,66fa4ebf79326e780c390304,,,,,,,,,,,,,,,,,,,,,208.5519,208.5519,208.5528,209.7004,0,0,left,0.6179,,209.7015,209.7022,,0,,209.7029,209.7036,,1,,1,209.7036,209.7036,209.7041,211.1991,0,17,17,17,1,0.6,0.4,0.4,0.6,1,0,,,,,,,,,,,,,,,,,,,,,,,,,,,,,,,,,,,,
,,66aa651e21c9af8ebcd8081e,66fc9974b4165711b6f3b19c,2024-10-02_01h56.03.620,mdp,2024.2.1,Win32,59.88023952,66fa4ebf79326e780c390304,,,,,,,,,,,,,,,,,,,,,211.1994,211.1995,211.2003,212.0983,1,1,right,0.3736,,212.0996,212.1003,,0,,212.101,212.1014,,0,,0,212.1015,212.1015,212.1021,213.5968,0,18,18,18,1,0.6,0.4,0.4,0.6,1,0,,,,,,,,,,,,,,,,,,,,,,,,,,,,,,,,,,,,
,,66aa651e21c9af8ebcd8081e,66fc9974b4165711b6f3b19c,2024-10-02_01h56.03.620,mdp,2024.2.1,Win32,59.88023952,66fa4ebf79326e780c390304,,,,,,,,,,,,,,,,,,,,,213.5971,213.5971,213.5981,214.8458,0,1,left,0.7008,,214.8469,214.8477,,0,,214.8484,214.8489,,0,,0,214.8489,214.8489,214.8493,216.3441,0,19,19,19,1,0.6,0.4,0.4,0.6,1,0,,,,,,,,,,,,,,,,,,,,,,,,,,,,,,,,,,,,
,,66aa651e21c9af8ebcd8081e,66fc9974b4165711b6f3b19c,2024-10-02_01h56.03.620,mdp,2024.2.1,Win32,59.88023952,66fa4ebf79326e780c390304,,,,,,,,,,,,,,,,,,,,,216.3445,216.3446,216.3456,218.429,1,1,right,1.5629,,218.4298,218.4306,,1,,218.4309,218.4317,,0,,0,218.4317,218.4317,218.4321,219.9246,0,20,20,20,1,0.6,0.4,0.4,0.6,1,0,,,,,,,,,,,,,,,,,,,,,,,,,,,,,,,,,,,,
,,66aa651e21c9af8ebcd8081e,66fc9974b4165711b6f3b19c,2024-10-02_01h56.03.620,mdp,2024.2.1,Win32,59.88023952,66fa4ebf79326e780c390304,,,,,,,,,,,,,,,,,,,,,219.9249,219.9249,219.9259,221.0068,0,0,left,0.5503,,221.0078,221.0086,,0,,221.0093,221.0098,,0,,1,221.0098,221.0098,221.0102,222.5122,0,21,21,21,1,0.8,0.2,0.6,0.4,1,0,,,,,,,,,,,,,,,,,,,,,,,,,,,,,,,,,,,,
,,66aa651e21c9af8ebcd8081e,66fc9974b4165711b6f3b19c,2024-10-02_01h56.03.620,mdp,2024.2.1,Win32,59.88023952,66fa4ebf79326e780c390304,,,,,,,,,,,,,,,,,,,,,222.5126,222.5126,222.5133,223.6048,0,1,left,0.5711,,223.606,223.6069,,0,,223.6076,223.6083,,0,,0,223.6083,223.6083,223.609,225.1035,0,22,22,22,1,0.8,0.2,0.6,0.4,1,0,,,,,,,,,,,,,,,,,,,,,,,,,,,,,,,,,,,,
,,66aa651e21c9af8ebcd8081e,66fc9974b4165711b6f3b19c,2024-10-02_01h56.03.620,mdp,2024.2.1,Win32,59.88023952,66fa4ebf79326e780c390304,,,,,,,,,,,,,,,,,,,,,225.1038,225.1038,225.1047,229.333,1,1,right,3.6978,,229.334,229.3348,,0,,229.3354,229.336,,0,,0,229.336,229.336,229.3363,230.8319,0,23,23,23,1,0.8,0.2,0.6,0.4,1,0,,,,,,,,,,,,,,,,,,,,,,,,,,,,,,,,,,,,
,,66aa651e21c9af8ebcd8081e,66fc9974b4165711b6f3b19c,2024-10-02_01h56.03.620,mdp,2024.2.1,Win32,59.88023952,66fa4ebf79326e780c390304,,,,,,,,,,,,,,,,,,,,,230.8323,230.8323,230.8332,232.0141,0,0,left,0.6496,,232.015,232.0159,,0,,232.0165,232.0171,,0,,1,232.0171,232.0171,232.0175,233.5131,0,24,24,24,1,0.8,0.2,0.6,0.4,1,0,,,,,,,,,,,,,,,,,,,,,,,,,,,,,,,,,,,,
,,66aa651e21c9af8ebcd8081e,66fc9974b4165711b6f3b19c,2024-10-02_01h56.03.620,mdp,2024.2.1,Win32,59.88023952,66fa4ebf79326e780c390304,,,,,,,,,,,,,,,,,,,,,233.5134,233.5134,233.5142,234.5451,0,0,left,0.5011,,234.5461,234.5469,,0,,234.5476,234.5482,,0,,1,234.5482,234.5482,234.5487,236.0435,0,25,25,25,1,0.8,0.2,0.6,0.4,1,0,,,,,,,,,,,,,,,,,,,,,,,,,,,,,,,,,,,,
,,66aa651e21c9af8ebcd8081e,66fc9974b4165711b6f3b19c,2024-10-02_01h56.03.620,mdp,2024.2.1,Win32,59.88023952,66fa4ebf79326e780c390304,,,,,,,,,,,,,,,,,,,,,236.044,236.044,236.0449,237.0096,0,0,left,0.4342,,237.0106,237.0114,,0,,237.0121,237.0125,,0,,1,237.0125,237.0125,237.0128,238.5083,0,26,26,26,1,0.8,0.2,0.6,0.4,1,0,,,,,,,,,,,,,,,,,,,,,,,,,,,,,,,,,,,,
,,66aa651e21c9af8ebcd8081e,66fc9974b4165711b6f3b19c,2024-10-02_01h56.03.620,mdp,2024.2.1,Win32,59.88023952,66fa4ebf79326e780c390304,,,,,,,,,,,,,,,,,,,,,238.5087,238.5087,238.5099,239.4904,0,0,left,0.4577,,239.4916,239.4925,,0,,239.4932,239.4936,,0,,1,239.4936,239.4937,239.494,240.9896,0,27,27,27,1,0.8,0.2,0.6,0.4,1,0,,,,,,,,,,,,,,,,,,,,,,,,,,,,,,,,,,,,
,,66aa651e21c9af8ebcd8081e,66fc9974b4165711b6f3b19c,2024-10-02_01h56.03.620,mdp,2024.2.1,Win32,59.88023952,66fa4ebf79326e780c390304,,,,,,,,,,,,,,,,,,,,,240.9899,240.9899,240.9907,242.4385,0,0,left,0.9217,,242.4393,242.4402,,0,,242.4408,242.4415,,1,,1,242.4415,242.4415,242.4418,243.9369,0,28,28,28,1,0.8,0.2,0.6,0.4,1,0,,,,,,,,,,,,,,,,,,,,,,,,,,,,,,,,,,,,
,,66aa651e21c9af8ebcd8081e,66fc9974b4165711b6f3b19c,2024-10-02_01h56.03.620,mdp,2024.2.1,Win32,59.88023952,66fa4ebf79326e780c390304,,,,,,,,,,,,,,,,,,,,,243.9374,243.9374,243.9384,245.4361,0,0,left,0.9665,,245.4371,245.4379,,1,,245.4386,245.439,,1,,1,245.439,245.439,245.4395,246.9343,0,29,29,29,1,0.4,0.6,0.8,0.2,1,0,,,,,,,,,,,,,,,,,,,,,,,,,,,,,,,,,,,,
,,66aa651e21c9af8ebcd8081e,66fc9974b4165711b6f3b19c,2024-10-02_01h56.03.620,mdp,2024.2.1,Win32,59.88023952,66fa4ebf79326e780c390304,,,,,,,,,,,,,,,,,,,,,246.9346,246.9346,246.9355,248.1496,0,0,left,0.6774,,248.1507,248.1516,,0,,248.1524,248.1528,,0,,1,248.1528,248.1528,248.1533,249.649,0,30,30,30,1,0.4,0.6,0.8,0.2,1,0,,,,,,,,,,,,,,,,,,,,,,,,,,,,,,,,,,,,
,,66aa651e21c9af8ebcd8081e,66fc9974b4165711b6f3b19c,2024-10-02_01h56.03.620,mdp,2024.2.1,Win32,59.88023952,66fa4ebf79326e780c390304,,,,,,,,,,,,,,,,,,,,,249.6494,249.6494,249.6502,251.2305,0,0,left,1.0494,,251.2315,251.2326,,0,,251.2332,251.2337,,1,,1,251.2337,251.2337,251.2341,252.7292,0,31,31,31,1,0.6,0.4,0.4,0.6,1,0,,,,,,,,,,,,,,,,,,,,,,,,,,,,,,,,,,,,
,,66aa651e21c9af8ebcd8081e,66fc9974b4165711b6f3b19c,2024-10-02_01h56.03.620,mdp,2024.2.1,Win32,59.88023952,66fa4ebf79326e780c390304,,,,,,,,,,,,,,,,,,,,,252.7296,252.7296,252.7303,254.6946,0,0,left,1.4393,,254.6958,254.6967,,0,,254.6975,254.698,,0,,1,254.698,254.698,254.6983,256.1933,0,32,32,32,1,0.6,0.4,0.4,0.6,1,0,,,,,,,,,,,,,,,,,,,,,,,,,,,,,,,,,,,,
,,66aa651e21c9af8ebcd8081e,66fc9974b4165711b6f3b19c,2024-10-02_01h56.03.620,mdp,2024.2.1,Win32,59.88023952,66fa4ebf79326e780c390304,,,,,,,,,,,,,,,,,,,,,256.1937,256.1937,256.1949,257.3419,0,0,left,0.6167,,257.3428,257.3438,,1,,257.3446,257.345,,0,,1,257.345,257.345,257.3453,258.8405,0,33,33,33,1,0.6,0.4,0.4,0.6,1,0,,,,,,,,,,,,,,,,,,,,,,,,,,,,,,,,,,,,
,,66aa651e21c9af8ebcd8081e,66fc9974b4165711b6f3b19c,2024-10-02_01h56.03.620,mdp,2024.2.1,Win32,59.88023952,66fa4ebf79326e780c390304,,,,,,,,,,,,,,,,,,,,,258.8409,258.8409,258.8417,259.84,0,1,left,0.4703,,259.841,259.8418,,0,,259.8425,259.8429,,0,,0,259.843,259.843,259.8433,261.3389,0,34,34,34,1,0.6,0.4,0.4,0.6,1,0,,,,,,,,,,,,,,,,,,,,,,,,,,,,,,,,,,,,
,,66aa651e21c9af8ebcd8081e,66fc9974b4165711b6f3b19c,2024-10-02_01h56.03.620,mdp,2024.2.1,Win32,59.88023952,66fa4ebf79326e780c390304,,,,,,,,,,,,,,,,,,,,,261.3393,261.3393,261.3409,263.2366,1,1,right,1.3649,,263.2377,263.2385,,1,,263.2391,263.2397,,0,,0,263.2398,263.2398,263.2404,264.7354,0,35,35,35,1,0.6,0.4,0.4,0.6,1,0,,,,,,,,,,,,,,,,,,,,,,,,,,,,,,,,,,,,
,,66aa651e21c9af8ebcd8081e,66fc9974b4165711b6f3b19c,2024-10-02_01h56.03.620,mdp,2024.2.1,Win32,59.88023952,66fa4ebf79326e780c390304,,,,,,,,,,,,,,,,,,,,,264.7357,264.7357,264.7367,265.7011,0,1,left,0.4383,,265.7029,265.7036,,1,,265.7045,265.7051,,1,,0,265.7053,265.7053,265.7058,267.2001,0,36,36,36,1,0.6,0.4,0.4,0.6,1,0,,,,,,,,,,,,,,,,,,,,,,,,,,,,,,,,,,,,
,,66aa651e21c9af8ebcd8081e,66fc9974b4165711b6f3b19c,2024-10-02_01h56.03.620,mdp,2024.2.1,Win32,59.88023952,66fa4ebf79326e780c390304,,,,,,,,,,,,,,,,,,,,,267.2005,267.2005,267.2014,268.4323,1,0,right,0.7007,,268.4332,268.434,,1,,268.4346,268.4351,,0,,1,268.4351,268.4351,268.4357,269.9308,0,37,37,37,1,0.6,0.4,0.4,0.6,1,0,,,,,,,,,,,,,,,,,,,,,,,,,,,,,,,,,,,,
,,66aa651e21c9af8ebcd8081e,66fc9974b4165711b6f3b19c,2024-10-02_01h56.03.620,mdp,2024.2.1,Win32,59.88023952,66fa4ebf79326e780c390304,,,,,,,,,,,,,,,,,,,,,269.9313,269.9313,269.9322,270.9469,0,0,left,0.4901,,270.9479,270.9488,,0,,270.9494,270.9499,,0,,1,270.9499,270.9499,270.9502,272.4455,0,38,38,38,1,0.6,0.4,0.4,0.6,1,0,,,,,,,,,,,,,,,,,,,,,,,,,,,,,,,,,,,,
,,66aa651e21c9af8ebcd8081e,66fc9974b4165711b6f3b19c,2024-10-02_01h56.03.620,mdp,2024.2.1,Win32,59.88023952,66fa4ebf79326e780c390304,,,,,,,,,,,,,,,,,,,,,272.4457,272.4457,272.4466,273.3947,0,0,left,0.4261,,273.3957,273.3966,,1,,273.3973,273.398,,1,,1,273.398,273.398,273.3984,274.8935,0,39,39,39,1,0.2,0.8,0.8,0.2,1,0,,,,,,,,,,,,,,,,,,,,,,,,,,,,,,,,,,,,
,,66aa651e21c9af8ebcd8081e,66fc9974b4165711b6f3b19c,2024-10-02_01h56.03.620,mdp,2024.2.1,Win32,59.88023952,66fa4ebf79326e780c390304,,,,,,,,,,,,,,,,,,,,,274.8939,274.8939,274.8962,275.8091,0,1,left,0.3857,,275.8101,275.8109,,1,,275.8114,275.812,,1,,0,275.812,275.812,275.8124,277.3077,0,40,40,40,1,0.2,0.8,0.8,0.2,1,0,,,,,,,,,,,,,,,,,,,,,,,,,,,,,,,,,,,,
,,66aa651e21c9af8ebcd8081e,66fc9974b4165711b6f3b19c,2024-10-02_01h56.03.620,mdp,2024.2.1,Win32,59.88023952,66fa4ebf79326e780c390304,,,,,,,,,,,,,,,,,,,,,277.3081,277.3081,277.3089,278.3737,0,1,left,0.5372,,278.3747,278.3755,,0,,278.3761,278.3767,,0,,0,278.3767,278.3767,278.377,279.8725,0,41,41,41,1,0.2,0.8,0.8,0.2,1,0,,,,,,,,,,,,,,,,,,,,,,,,,,,,,,,,,,,,
,,66aa651e21c9af8ebcd8081e,66fc9974b4165711b6f3b19c,2024-10-02_01h56.03.620,mdp,2024.2.1,Win32,59.88023952,66fa4ebf79326e780c390304,,,,,,,,,,,,,,,,,,,,,279.8729,279.873,279.8741,280.8217,0,1,left,0.4167,,280.8227,280.8235,,0,,280.8241,280.8249,,1,,0,280.8249,280.8249,280.8253,282.32,0,42,42,42,1,0.2,0.8,0.8,0.2,1,0,,,,,,,,,,,,,,,,,,,,,,,,,,,,,,,,,,,,
,,66aa651e21c9af8ebcd8081e,66fc9974b4165711b6f3b19c,2024-10-02_01h56.03.620,mdp,2024.2.1,Win32,59.88023952,66fa4ebf79326e780c390304,,,,,,,,,,,,,,,,,,,,,282.3203,282.3203,282.3218,283.1695,1,0,right,0.325,,283.1705,283.1711,,0,,283.172,283.1726,,0,,1,283.1727,283.1727,283.1731,284.6678,0,43,43,43,1,0.2,0.8,0.8,0.2,1,0,,,,,,,,,,,,,,,,,,,,,,,,,,,,,,,,,,,,
,,66aa651e21c9af8ebcd8081e,66fc9974b4165711b6f3b19c,2024-10-02_01h56.03.620,mdp,2024.2.1,Win32,59.88023952,66fa4ebf79326e780c390304,,,,,,,,,,,,,,,,,,,,,284.6681,284.6681,284.669,285.534,1,0,right,0.3343,,285.5352,285.536,,0,,285.5365,285.537,,0,,1,285.537,285.537,285.5375,287.0329,0,44,44,44,1,0.2,0.8,0.8,0.2,1,0,,,,,,,,,,,,,,,,,,,,,,,,,,,,,,,,,,,,
,,66aa651e21c9af8ebcd8081e,66fc9974b4165711b6f3b19c,2024-10-02_01h56.03.620,mdp,2024.2.1,Win32,59.88023952,66fa4ebf79326e780c390304,,,,,,,,,,,,,,,,,,,,,287.0332,287.0332,287.034,287.9988,1,0,right,0.4334,,287.9998,288.0005,,0,,288.0014,288.0017,,0,,1,288.0017,288.0017,288.0021,289.4968,0,45,45,45,1,0.2,0.8,0.8,0.2,1,0,,,,,,,,,,,,,,,,,,,,,,,,,,,,,,,,,,,,
,,66aa651e21c9af8ebcd8081e,66fc9974b4165711b6f3b19c,2024-10-02_01h56.03.620,mdp,2024.2.1,Win32,59.88023952,66fa4ebf79326e780c390304,,,,,,,,,,,,,,,,,,,,,289.4972,289.4972,289.498,290.3302,1,0,right,0.308,,290.3313,290.332,,0,,290.3327,290.3331,,0,,1,290.3331,290.3331,290.3335,291.8287,0,46,46,46,1,0.2,0.8,0.8,0.2,1,0,,,,,,,,,,,,,,,,,,,,,,,,,,,,,,,,,,,,
,,66aa651e21c9af8ebcd8081e,66fc9974b4165711b6f3b19c,2024-10-02_01h56.03.620,mdp,2024.2.1,Win32,59.88023952,66fa4ebf79326e780c390304,,,,,,,,,,,,,,,,,,,,,291.8291,291.8291,291.83,292.7677,1,1,right,0.4167,,292.7684,292.769,,1,,292.7694,292.7699,,0,,0,292.7699,292.7699,292.7702,294.2594,0,47,47,47,1,0.2,0.8,0.8,0.2,1,0,,,,,,,,,,,,,,,,,,,,,,,,,,,,,,,,,,,,
,,66aa651e21c9af8ebcd8081e,66fc9974b4165711b6f3b19c,2024-10-02_01h56.03.620,mdp,2024.2.1,Win32,59.88023952,66fa4ebf79326e780c390304,,,,,,,,,,,,,,,,,,,,,294.2598,294.2598,294.2606,295.1922,1,0,right,0.4086,,295.1932,295.1943,,0,,295.1951,295.1957,,0,,1,295.1957,295.1958,295.1962,296.6908,0,48,48,48,1,0.2,0.8,0.8,0.2,1,0,,,,,,,,,,,,,,,,,,,,,,,,,,,,,,,,,,,,
,,66aa651e21c9af8ebcd8081e,66fc9974b4165711b6f3b19c,2024-10-02_01h56.03.620,mdp,2024.2.1,Win32,59.88023952,66fa4ebf79326e780c390304,,,,,,,,,,,,,,,,,,,,,296.6911,296.6911,296.6919,297.723,1,0,right,0.5095,,297.7239,297.7247,,1,,297.7253,297.7259,,0,,1,297.726,297.726,297.7263,299.2222,0,49,49,49,1,0.2,0.8,0.8,0.2,1,0,,,,,,,,,,,,,,,,,,,,,,,,,,,,,,,,,,,,
,,66aa651e21c9af8ebcd8081e,66fc9974b4165711b6f3b19c,2024-10-02_01h56.03.620,mdp,2024.2.1,Win32,59.88023952,66fa4ebf79326e780c390304,,,,,,,,,,,,,,,,,,,,,,,,,,,,,,,,,,,,,,,,,,,,,,,,,,,,,,,,299.2226,357.7378,0,0,0,7,1,imgs/elephant.png,imgs/dog.png,imgs/squirrel.png,imgs/goat.png,imgs/lion.png,,,,,,,,,,,,,,,,,,,,,,,,
,,66aa651e21c9af8ebcd8081e,66fc9974b4165711b6f3b19c,2024-10-02_01h56.03.620,mdp,2024.2.1,Win32,59.88023952,66fa4ebf79326e780c390304,,,,,,,,,,,,,,2,seqs/st2seq34.csv,357.7386,399.551,space,41.2832,,399.5569,399.5569,399.5578,407.9938,0,1,left,7.9008,,407.9947,413.8556,0,1,left,413.8565,413.8571,,1,,0,413.8571,413.8572,413.8576,415.3541,0,0,0,0,1,0.6,0.4,0.6,0.4,,,,,,,,,,,,,,,5.325,,0.6,0.4,0.8,0.2,0.2,0.8,0.2,0.8,1,0,,,,,,,,,,,,
,,66aa651e21c9af8ebcd8081e,66fc9974b4165711b6f3b19c,2024-10-02_01h56.03.620,mdp,2024.2.1,Win32,59.88023952,66fa4ebf79326e780c390304,,,,,,,,,,,,,,,,,,,,,415.3544,415.3544,415.3552,419.2172,1,0,right,3.3357,,419.2182,425.0621,1,0,right,425.0629,425.0636,,0,,1,425.0636,425.0636,425.0641,426.5609,0,1,1,1,1,0.6,0.4,0.6,0.4,,,,,,,,,,,,,,,5.318,,0.6,0.4,0.8,0.2,0.2,0.8,0.2,0.8,1,0,,,,,,,,,,,,
,,66aa651e21c9af8ebcd8081e,66fc9974b4165711b6f3b19c,2024-10-02_01h56.03.620,mdp,2024.2.1,Win32,59.88023952,66fa4ebf79326e780c390304,,,,,,,,,,,,,,,,,,,,,426.5613,426.5613,426.562,432.356,1,1,right,5.2633,,432.3569,449.6072,1,1,right,449.6082,449.6089,,1,,0,449.609,449.609,449.6095,451.106,0,2,2,2,1,0.6,0.4,0.6,0.4,,,,,,,,,,,,,,,16.7149,,0.6,0.4,0.8,0.2,0.2,0.8,0.2,0.8,1,0,,,,,,,,,,,,
,,66aa651e21c9af8ebcd8081e,66fc9974b4165711b6f3b19c,2024-10-02_01h56.03.620,mdp,2024.2.1,Win32,59.88023952,66fa4ebf79326e780c390304,,,,,,,,,,,,,,,,,,,,,451.1064,451.1064,451.1073,463.6619,0,1,left,12.035,,463.6628,468.2078,0,1,left,468.2087,468.2092,,1,,0,468.2093,468.2093,468.2098,469.7065,0,3,3,3,1,0.6,0.4,0.6,0.4,,,,,,,,,,,,,,,4.0131,,0.6,0.4,0.8,0.2,0.2,0.8,0.2,0.8,1,0,,,,,,,,,,,,
,,66aa651e21c9af8ebcd8081e,66fc9974b4165711b6f3b19c,2024-10-02_01h56.03.620,mdp,2024.2.1,Win32,59.88023952,66fa4ebf79326e780c390304,,,,,,,,,,,,,,,,,,,,,469.7068,469.7068,469.7075,473.603,1,0,right,3.365,,473.6037,476.1842,1,0,right,476.1851,476.1857,,0,,1,476.1858,476.1858,476.1863,477.683,0,4,4,4,1,0.6,0.4,0.6,0.4,,,,,,,,,,,,,,,2.0516,,0.6,0.4,0.8,0.2,0.2,0.8,0.2,0.8,1,0,,,,,,,,,,,,
,,66aa651e21c9af8ebcd8081e,66fc9974b4165711b6f3b19c,2024-10-02_01h56.03.620,mdp,2024.2.1,Win32,59.88023952,66fa4ebf79326e780c390304,,,,,,,,,,,,,,,,,,,,,477.6833,477.6833,477.6841,478.8152,1,0,right,0.6037,,478.8161,480.2805,1,0,right,480.2812,480.2819,,0,,1,480.2819,480.2819,480.2825,481.7791,0,5,5,5,1,0.6,0.4,0.6,0.4,,,,,,,,,,,,,,,0.9355,,0.6,0.4,0.8,0.2,0.2,0.8,0.2,0.8,1,0,,,,,,,,,,,,
,,66aa651e21c9af8ebcd8081e,66fc9974b4165711b6f3b19c,2024-10-02_01h56.03.620,mdp,2024.2.1,Win32,59.88023952,66fa4ebf79326e780c390304,,,,,,,,,,,,,,,,,,,,,481.7795,481.7795,481.7802,482.7618,1,1,right,0.4574,,482.7624,492.3701,0,1,left,492.3708,492.3714,,0,,0,492.3714,492.3714,492.3721,493.8687,0,6,6,6,1,0.6,0.4,0.6,0.4,,,,,,,,,,,,,,,9.0712,,0.6,0.4,0.8,0.2,0.2,0.8,0.2,0.8,1,0,,,,,,,,,,,,
,,66aa651e21c9af8ebcd8081e,66fc9974b4165711b6f3b19c,2024-10-02_01h56.03.620,mdp,2024.2.1,Win32,59.88023952,66fa4ebf79326e780c390304,,,,,,,,,,,,,,,,,,,,,493.8691,493.8691,493.87,496.683,1,1,right,2.2872,,496.6838,498.0984,1,1,right,498.0992,498.0997,,1,,0,498.0998,498.0998,498.1002,499.5972,0,7,7,7,1,0.6,0.4,0.6,0.4,,,,,,,,,,,,,,,0.8843,,0.6,0.4,0.8,0.2,0.2,0.8,0.2,0.8,1,0,,,,,,,,,,,,
,,66aa651e21c9af8ebcd8081e,66fc9974b4165711b6f3b19c,2024-10-02_01h56.03.620,mdp,2024.2.1,Win32,59.88023952,66fa4ebf79326e780c390304,,,,,,,,,,,,,,,,,,,,,499.5975,499.5976,499.5985,503.6602,0,1,left,3.541,,503.661,505.026,0,0,left,505.0267,505.0274,,1,,1,505.0275,505.0275,505.0281,506.5242,0,8,8,8,1,0.6,0.4,0.6,0.4,,,,,,,,,,,,,,,0.8328,,0.6,0.4,0.8,0.2,0.2,0.8,0.2,0.8,1,0,,,,,,,,,,,,
,,66aa651e21c9af8ebcd8081e,66fc9974b4165711b6f3b19c,2024-10-02_01h56.03.620,mdp,2024.2.1,Win32,59.88023952,66fa4ebf79326e780c390304,,,,,,,,,,,,,,,,,,,,,506.5245,506.5245,506.5252,514.4175,0,1,left,7.3663,,514.4183,515.883,0,1,left,515.8839,515.8845,,1,,0,515.8846,515.8846,515.8851,517.3816,0,9,9,9,1,0.6,0.4,0.6,0.4,,,,,,,,,,,,,,,0.943,,0.6,0.4,0.8,0.2,0.2,0.8,0.2,0.8,1,0,,,,,,,,,,,,
,,66aa651e21c9af8ebcd8081e,66fc9974b4165711b6f3b19c,2024-10-02_01h56.03.620,mdp,2024.2.1,Win32,59.88023952,66fa4ebf79326e780c390304,,,,,,,,,,,,,,,,,,,,,517.3819,517.3819,517.3825,519.0801,0,1,left,1.1662,,519.0807,521.4948,1,0,right,521.4959,521.4966,,0,,1,521.4966,521.4966,521.4973,522.9933,0,10,10,10,1,0.6,0.4,0.6,0.4,,,,,,,,,,,,,,,1.8907,,0.8,0.2,0.2,0.8,0.2,0.8,0.2,0.8,1,0,,,,,,,,,,,,
,,66aa651e21c9af8ebcd8081e,66fc9974b4165711b6f3b19c,2024-10-02_01h56.03.620,mdp,2024.2.1,Win32,59.88023952,66fa4ebf79326e780c390304,,,,,,,,,,,,,,,,,,,,,522.9936,522.9936,522.9943,524.7085,0,1,left,1.1925,,524.7092,525.8242,1,1,right,525.8251,525.8256,,0,,0,525.8256,525.8256,525.8263,527.323,0,11,11,11,1,0.6,0.4,0.6,0.4,,,,,,,,,,,,,,,0.5871,,0.8,0.2,0.2,0.8,0.2,0.8,0.2,0.8,1,0,,,,,,,,,,,,
,,66aa651e21c9af8ebcd8081e,66fc9974b4165711b6f3b19c,2024-10-02_01h56.03.620,mdp,2024.2.1,Win32,59.88023952,66fa4ebf79326e780c390304,,,,,,,,,,,,,,,,,,,,,527.3233,527.3233,527.324,528.2387,0,0,left,0.3887,,528.2395,530.8032,0,1,left,530.8039,530.8044,,0,,0,530.8044,530.8044,530.8049,532.3018,0,12,12,12,1,0.8,0.2,0.2,0.8,,,,,,,,,,,,,,,2.0277,,0.8,0.2,0.2,0.8,0.2,0.8,0.2,0.8,1,0,,,,,,,,,,,,
,,66aa651e21c9af8ebcd8081e,66fc9974b4165711b6f3b19c,2024-10-02_01h56.03.620,mdp,2024.2.1,Win32,59.88023952,66fa4ebf79326e780c390304,,,,,,,,,,,,,,,,,,,,,532.3022,532.3022,532.3029,533.4675,0,0,left,0.633,,533.4681,534.5168,1,1,right,534.5176,534.5181,,1,,0,534.5181,534.5181,534.5186,536.0153,0,13,13,13,1,0.8,0.2,0.2,0.8,,,,,,,,,,,,,,,0.5279,,0.8,0.2,0.2,0.8,0.2,0.8,0.2,0.8,1,0,,,,,,,,,,,,
,,66aa651e21c9af8ebcd8081e,66fc9974b4165711b6f3b19c,2024-10-02_01h56.03.620,mdp,2024.2.1,Win32,59.88023952,66fa4ebf79326e780c390304,,,,,,,,,,,,,,,,,,,,,536.0156,536.0156,536.0163,538.9128,0,0,left,2.3658,,538.9137,540.2117,0,0,left,540.2125,540.2131,,1,,1,540.2131,540.2131,540.2138,541.7105,0,14,14,14,1,0.8,0.2,0.2,0.8,,,,,,,,,,,,,,,0.7727,,0.8,0.2,0.2,0.8,0.2,0.8,0.2,0.8,1,0,,,,,,,,,,,,
,,66aa651e21c9af8ebcd8081e,66fc9974b4165711b6f3b19c,2024-10-02_01h56.03.620,mdp,2024.2.1,Win32,59.88023952,66fa4ebf79326e780c390304,,,,,,,,,,,,,,,,,,,,,541.7109,541.711,541.712,542.9596,0,1,left,0.7181,,542.9604,544.5415,1,1,right,544.5424,544.5431,,1,,0,544.5432,544.5432,544.5439,546.0402,0,15,15,15,1,0.8,0.2,0.2,0.8,,,,,,,,,,,,,,,1.0463,,0.4,0.6,0.8,0.2,0.2,0.8,0.2,0.8,1,0,,,,,,,,,,,,
,,66aa651e21c9af8ebcd8081e,66fc9974b4165711b6f3b19c,2024-10-02_01h56.03.620,mdp,2024.2.1,Win32,59.88023952,66fa4ebf79326e780c390304,,,,,,,,,,,,,,,,,,,,,546.0406,546.0406,546.0415,547.0725,0,0,left,0.505,,547.0734,548.7712,0,1,left,548.772,548.7726,,1,,0,548.7726,548.7726,548.7729,550.2697,0,16,16,16,1,0.8,0.2,0.2,0.8,,,,,,,,,,,,,,,1.163,,0.4,0.6,0.8,0.2,0.2,0.8,0.2,0.8,1,0,,,,,,,,,,,,
,,66aa651e21c9af8ebcd8081e,66fc9974b4165711b6f3b19c,2024-10-02_01h56.03.620,mdp,2024.2.1,Win32,59.88023952,66fa4ebf79326e780c390304,,,,,,,,,,,,,,,,,,,,,550.2701,550.2701,550.2708,555.5317,0,0,left,4.7395,,555.5327,557.3137,0,0,left,557.3148,557.3155,,1,,1,557.3155,557.3155,557.316,558.8121,0,17,17,17,1,0.8,0.2,0.2,0.8,,,,,,,,,,,,,,,1.2493,,0.4,0.6,0.8,0.2,0.2,0.8,0.2,0.8,1,0,,,,,,,,,,,,
,,66aa651e21c9af8ebcd8081e,66fc9974b4165711b6f3b19c,2024-10-02_01h56.03.620,mdp,2024.2.1,Win32,59.88023952,66fa4ebf79326e780c390304,,,,,,,,,,,,,,,,,,,,,558.8126,558.8126,558.8134,570.6021,0,0,left,11.2602,,570.6031,572.9002,1,1,right,572.9011,572.9019,,0,,0,572.9019,572.9019,572.9024,574.3988,0,18,18,18,1,0.8,0.2,0.2,0.8,,,,,,,,,,,,,,,1.7655,,0.4,0.6,0.8,0.2,0.2,0.8,0.2,0.8,1,0,,,,,,,,,,,,
,,66aa651e21c9af8ebcd8081e,66fc9974b4165711b6f3b19c,2024-10-02_01h56.03.620,mdp,2024.2.1,Win32,59.88023952,66fa4ebf79326e780c390304,,,,,,,,,,,,,,,,,,,,,574.3992,574.3992,574.3999,578.4286,0,0,left,3.4987,,578.4294,579.9104,0,1,left,579.9114,579.9121,,0,,0,579.9121,579.9121,579.9125,581.4092,0,19,19,19,1,0.8,0.2,0.2,0.8,,,,,,,,,,,,,,,0.952,,0.4,0.6,0.8,0.2,0.2,0.8,0.2,0.8,1,0,,,,,,,,,,,,
,,66aa651e21c9af8ebcd8081e,66fc9974b4165711b6f3b19c,2024-10-02_01h56.03.620,mdp,2024.2.1,Win32,59.88023952,66fa4ebf79326e780c390304,,,,,,,,,,,,,,,,,,,,,581.4095,581.4095,581.4103,584.4065,0,0,left,2.4753,,584.4074,585.6055,0,0,left,585.6064,585.6071,,0,,1,585.6071,585.6071,585.6076,587.1042,0,20,20,20,1,0.8,0.2,0.2,0.8,,,,,,,,,,,,,,,0.6715,,0.4,0.6,0.8,0.2,0.2,0.8,0.2,0.8,1,0,,,,,,,,,,,,
,,66aa651e21c9af8ebcd8081e,66fc9974b4165711b6f3b19c,2024-10-02_01h56.03.620,mdp,2024.2.1,Win32,59.88023952,66fa4ebf79326e780c390304,,,,,,,,,,,,,,,,,,,,,587.1046,587.1046,587.1053,590.5015,0,0,left,2.8718,,590.5024,591.6834,1,0,right,591.6841,591.6848,,1,,1,591.6848,591.6848,591.6855,593.1825,0,21,21,21,1,0.8,0.2,0.2,0.8,,,,,,,,,,,,,,,0.6497,,0.4,0.6,0.8,0.2,0.2,0.8,0.2,0.8,1,0,,,,,,,,,,,,
,,66aa651e21c9af8ebcd8081e,66fc9974b4165711b6f3b19c,2024-10-02_01h56.03.620,mdp,2024.2.1,Win32,59.88023952,66fa4ebf79326e780c390304,,,,,,,,,,,,,,,,,,,,,593.1827,593.1827,593.1835,596.3797,0,0,left,2.6728,,596.3805,598.5443,0,1,left,598.5453,598.5461,,1,,0,598.5461,598.5461,598.5467,600.0432,0,22,22,22,1,0.8,0.2,0.2,0.8,,,,,,,,,,,,,,,1.6421,,0.4,0.6,0.8,0.2,0.2,0.8,0.2,0.8,1,0,,,,,,,,,,,,
,,66aa651e21c9af8ebcd8081e,66fc9974b4165711b6f3b19c,2024-10-02_01h56.03.620,mdp,2024.2.1,Win32,59.88023952,66fa4ebf79326e780c390304,,,,,,,,,,,,,,,,,,,,,600.0434,600.0435,600.0442,601.5917,0,0,left,1.0158,,601.5927,602.8405,1,1,right,602.8412,602.8419,,0,,0,602.8419,602.8419,602.8423,604.3394,0,23,23,23,1,0.8,0.2,0.2,0.8,,,,,,,,,,,,,,,0.7269,,0.4,0.6,0.8,0.2,0.2,0.8,0.2,0.8,1,0,,,,,,,,,,,,
,,66aa651e21c9af8ebcd8081e,66fc9974b4165711b6f3b19c,2024-10-02_01h56.03.620,mdp,2024.2.1,Win32,59.88023952,66fa4ebf79326e780c390304,,,,,,,,,,,,,,,,,,,,,604.3397,604.3397,604.3405,606.5872,0,0,left,1.7232,,606.5881,607.7365,0,0,left,607.7373,607.738,,1,,1,607.738,607.738,607.7386,609.2351,0,24,24,24,1,0.8,0.2,0.2,0.8,,,,,,,,,,,,,,,0.6209,,0.4,0.6,0.8,0.2,0.2,0.8,0.2,0.8,1,0,,,,,,,,,,,,
,,66aa651e21c9af8ebcd8081e,66fc9974b4165711b6f3b19c,2024-10-02_01h56.03.620,mdp,2024.2.1,Win32,59.88023952,66fa4ebf79326e780c390304,,,,,,,,,,,,,,,,,,,,,609.2355,609.2355,609.2363,617.0616,0,1,left,7.2992,,617.0624,619.8092,1,1,right,619.8101,619.8107,,1,,0,619.8107,619.8107,619.8112,621.308,0,25,25,25,1,0.8,0.2,0.2,0.8,,,,,,,,,,,,,,,2.2154,,0.4,0.6,0.8,0.2,0.2,0.8,0.2,0.8,1,0,,,,,,,,,,,,
,,66aa651e21c9af8ebcd8081e,66fc9974b4165711b6f3b19c,2024-10-02_01h56.03.620,mdp,2024.2.1,Win32,59.88023952,66fa4ebf79326e780c390304,,,,,,,,,,,,,,,,,,,,,621.3084,621.3084,621.3092,622.673,0,0,left,0.832,,622.674,625.9208,1,0,right,625.9217,625.9223,,0,,1,625.9223,625.9223,625.9227,627.4193,0,26,26,26,1,0.8,0.2,0.2,0.8,,,,,,,,,,,,,,,2.7089,,0.4,0.6,0.8,0.2,0.2,0.8,0.2,0.8,1,0,,,,,,,,,,,,
,,66aa651e21c9af8ebcd8081e,66fc9974b4165711b6f3b19c,2024-10-02_01h56.03.620,mdp,2024.2.1,Win32,59.88023952,66fa4ebf79326e780c390304,,,,,,,,,,,,,,,,,,,,,627.4196,627.4196,627.4204,636.3115,0,0,left,8.3631,,636.3125,638.4596,1,0,right,638.4605,638.4611,,0,,1,638.4612,638.4612,638.4615,639.9584,0,27,27,27,1,0.8,0.2,0.2,0.8,,,,,,,,,,,,,,,1.6227,,0.4,0.6,0.8,0.2,0.6,0.4,0.8,0.2,1,0,,,,,,,,,,,,
,,66aa651e21c9af8ebcd8081e,66fc9974b4165711b6f3b19c,2024-10-02_01h56.03.620,mdp,2024.2.1,Win32,59.88023952,66fa4ebf79326e780c390304,,,,,,,,,,,,,,,,,,,,,639.9588,639.9588,639.9596,643.039,0,0,left,2.5578,,643.0401,645.7366,0,0,left,645.7375,645.7382,,0,,1,645.7382,645.7382,645.7388,647.2353,0,28,28,28,1,0.8,0.2,0.2,0.8,,,,,,,,,,,,,,,2.1661,,0.4,0.6,0.8,0.2,0.6,0.4,0.8,0.2,1,0,,,,,,,,,,,,
,,66aa651e21c9af8ebcd8081e,66fc9974b4165711b6f3b19c,2024-10-02_01h56.03.620,mdp,2024.2.1,Win32,59.88023952,66fa4ebf79326e780c390304,,,,,,,,,,,,,,,,,,,,,647.2357,647.2357,647.2363,655.8776,0,0,left,8.1125,,655.8784,658.159,1,1,right,658.1598,658.1604,,1,,0,658.1604,658.1604,658.1608,659.6577,0,29,29,29,1,0.8,0.2,0.2,0.8,,,,,,,,,,,,,,,1.7506,,0.8,0.2,0.2,0.8,0.6,0.4,0.8,0.2,1,0,,,,,,,,,,,,
,,66aa651e21c9af8ebcd8081e,66fc9974b4165711b6f3b19c,2024-10-02_01h56.03.620,mdp,2024.2.1,Win32,59.88023952,66fa4ebf79326e780c390304,,,,,,,,,,,,,,,,,,,,,659.6581,659.6581,659.659,661.5228,0,0,left,1.3404,,661.5236,662.6384,0,0,left,662.6394,662.6402,,0,,1,662.6402,662.6402,662.6407,664.1371,0,30,30,30,1,0.8,0.2,0.2,0.8,,,,,,,,,,,,,,,0.5835,,0.8,0.2,0.2,0.8,0.6,0.4,0.8,0.2,1,0,,,,,,,,,,,,
,,66aa651e21c9af8ebcd8081e,66fc9974b4165711b6f3b19c,2024-10-02_01h56.03.620,mdp,2024.2.1,Win32,59.88023952,66fa4ebf79326e780c390304,,,,,,,,,,,,,,,,,,,,,664.1374,664.1374,664.1382,666.9183,0,0,left,2.2502,,666.9193,668.7663,1,1,right,668.7671,668.7677,,0,,0,668.7677,668.7677,668.7682,670.2653,0,31,31,31,1,0.8,0.2,0.2,0.8,,,,,,,,,,,,,,,1.3249,,0.8,0.2,0.2,0.8,0.6,0.4,0.8,0.2,1,0,,,,,,,,,,,,
,,66aa651e21c9af8ebcd8081e,66fc9974b4165711b6f3b19c,2024-10-02_01h56.03.620,mdp,2024.2.1,Win32,59.88023952,66fa4ebf79326e780c390304,,,,,,,,,,,,,,,,,,,,,670.2658,670.2658,670.2667,671.181,0,1,left,0.3923,,671.1817,672.8798,1,0,right,672.8806,672.8814,,0,,1,672.8814,672.8814,672.8821,674.3784,0,32,32,32,1,0.8,0.2,0.2,0.8,,,,,,,,,,,,,,,1.1626,,0.6,0.4,0.8,0.2,0.6,0.4,0.8,0.2,1,0,,,,,,,,,,,,
,,66aa651e21c9af8ebcd8081e,66fc9974b4165711b6f3b19c,2024-10-02_01h56.03.620,mdp,2024.2.1,Win32,59.88023952,66fa4ebf79326e780c390304,,,,,,,,,,,,,,,,,,,,,674.3787,674.3787,674.3794,679.7404,0,0,left,4.8343,,679.7412,681.4554,0,0,left,681.4564,681.4571,,0,,1,681.4571,681.4571,681.4577,682.9542,0,33,33,33,1,0.8,0.2,0.2,0.8,,,,,,,,,,,,,,,1.187,,0.6,0.4,0.8,0.2,0.6,0.4,0.8,0.2,1,0,,,,,,,,,,,,
,,66aa651e21c9af8ebcd8081e,66fc9974b4165711b6f3b19c,2024-10-02_01h56.03.620,mdp,2024.2.1,Win32,59.88023952,66fa4ebf79326e780c390304,,,,,,,,,,,,,,,,,,,,,682.9545,682.9545,682.9552,684.1863,0,0,left,0.7105,,684.1871,685.4187,0,1,left,685.4198,685.4205,,0,,0,685.4205,685.4205,685.4209,686.9174,0,34,34,34,1,0.8,0.2,0.2,0.8,,,,,,,,,,,,,,,0.7011,,0.6,0.4,0.8,0.2,0.6,0.4,0.8,0.2,1,0,,,,,,,,,,,,
,,66aa651e21c9af8ebcd8081e,66fc9974b4165711b6f3b19c,2024-10-02_01h56.03.620,mdp,2024.2.1,Win32,59.88023952,66fa4ebf79326e780c390304,,,,,,,,,,,,,,,,,,,,,686.9177,686.9177,686.9185,688.0165,0,0,left,0.5671,,688.0174,689.1821,0,0,left,689.183,689.1836,,0,,1,689.1836,689.1836,689.1841,690.6808,0,35,35,35,1,0.8,0.2,0.2,0.8,,,,,,,,,,,,,,,0.6346,,0.6,0.4,0.8,0.2,0.6,0.4,0.8,0.2,1,0,,,,,,,,,,,,
,,66aa651e21c9af8ebcd8081e,66fc9974b4165711b6f3b19c,2024-10-02_01h56.03.620,mdp,2024.2.1,Win32,59.88023952,66fa4ebf79326e780c390304,,,,,,,,,,,,,,,,,,,,,690.6812,690.6812,690.6821,691.6963,0,0,left,0.4914,,691.6972,692.7788,0,0,left,692.7797,692.7805,,1,,1,692.7805,692.7805,692.7813,694.2778,0,36,36,36,1,0.8,0.2,0.2,0.8,,,,,,,,,,,,,,,0.5504,,0.6,0.4,0.8,0.2,0.8,0.2,0.4,0.6,1,0,,,,,,,,,,,,
,,66aa651e21c9af8ebcd8081e,66fc9974b4165711b6f3b19c,2024-10-02_01h56.03.620,mdp,2024.2.1,Win32,59.88023952,66fa4ebf79326e780c390304,,,,,,,,,,,,,,,,,,,,,694.2782,694.2782,694.279,695.5765,0,0,left,0.7712,,695.5775,697.0917,1,0,right,697.0926,697.0934,,0,,1,697.0934,697.0934,697.0941,698.5905,0,37,37,37,1,0.8,0.2,0.2,0.8,,,,,,,,,,,,,,,0.9881,,0.6,0.4,0.8,0.2,0.8,0.2,0.4,0.6,1,0,,,,,,,,,,,,
,,66aa651e21c9af8ebcd8081e,66fc9974b4165711b6f3b19c,2024-10-02_01h56.03.620,mdp,2024.2.1,Win32,59.88023952,66fa4ebf79326e780c390304,,,,,,,,,,,,,,,,,,,,,698.5909,698.5909,698.5917,699.7455,0,0,left,0.6331,,699.7463,701.5547,1,1,right,701.5558,701.5566,,0,,0,701.5567,701.5567,701.5573,703.0533,0,38,38,38,1,0.8,0.2,0.2,0.8,,,,,,,,,,,,,,,1.2881,,0.2,0.8,0.6,0.4,0.8,0.2,0.4,0.6,1,0,,,,,,,,,,,,
,,66aa651e21c9af8ebcd8081e,66fc9974b4165711b6f3b19c,2024-10-02_01h56.03.620,mdp,2024.2.1,Win32,59.88023952,66fa4ebf79326e780c390304,,,,,,,,,,,,,,,,,,,,,703.0537,703.0537,703.0546,704.0025,0,1,left,0.4179,,704.0036,705.801,1,0,right,705.8021,705.8033,,0,,1,705.8033,705.8033,705.8038,707.2994,0,39,39,39,1,0.8,0.2,0.2,0.8,,,,,,,,,,,,,,,1.2498,,0.2,0.8,0.6,0.4,0.8,0.2,0.4,0.6,1,0,,,,,,,,,,,,
,,66aa651e21c9af8ebcd8081e,66fc9974b4165711b6f3b19c,2024-10-02_01h56.03.620,mdp,2024.2.1,Win32,59.88023952,66fa4ebf79326e780c390304,,,,,,,,,,,,,,,,,,,,,707.2995,707.2995,707.3005,708.5652,0,0,left,0.7341,,708.5662,709.7643,1,1,right,709.7652,709.7661,,1,,0,709.7662,709.7662,709.7668,711.2651,0,40,40,40,1,0.8,0.2,0.2,0.8,,,,,,,,,,,,,,,0.65,,0.2,0.8,0.6,0.4,0.8,0.2,0.4,0.6,1,0,,,,,,,,,,,,
,,66aa651e21c9af8ebcd8081e,66fc9974b4165711b6f3b19c,2024-10-02_01h56.03.620,mdp,2024.2.1,Win32,59.88023952,66fa4ebf79326e780c390304,,,,,,,,,,,,,,,,,,,,,711.2654,711.2654,711.2664,712.6283,0,0,left,0.8327,,712.6293,713.7605,1,0,right,713.7615,713.7622,,1,,1,713.7622,713.7622,713.763,715.2652,0,41,41,41,1,0.8,0.2,0.2,0.8,,,,,,,,,,,,,,,0.5999,,0.2,0.8,0.6,0.4,0.8,0.2,0.4,0.6,1,0,,,,,,,,,,,,
,,66aa651e21c9af8ebcd8081e,66fc9974b4165711b6f3b19c,2024-10-02_01h56.03.620,mdp,2024.2.1,Win32,59.88023952,66fa4ebf79326e780c390304,,,,,,,,,,,,,,,,,,,,,715.2656,715.2657,715.2665,716.6579,0,1,left,0.8658,,716.6589,717.6071,1,0,right,717.6079,717.6087,,0,,1,717.6087,717.6087,717.6095,719.1058,0,42,42,42,1,0.8,0.2,0.2,0.8,,,,,,,,,,,,,,,0.405,,0.2,0.8,0.6,0.4,0.8,0.2,0.4,0.6,1,0,,,,,,,,,,,,
,,66aa651e21c9af8ebcd8081e,66fc9974b4165711b6f3b19c,2024-10-02_01h56.03.620,mdp,2024.2.1,Win32,59.88023952,66fa4ebf79326e780c390304,,,,,,,,,,,,,,,,,,,,,719.1062,719.1062,719.1073,720.0385,0,0,left,0.4019,,720.0396,721.2039,1,0,right,721.2054,721.2061,,1,,1,721.2061,721.2061,721.2068,722.7025,0,43,43,43,1,0.8,0.2,0.2,0.8,,,,,,,,,,,,,,,0.625,,0.2,0.8,0.6,0.4,0.8,0.2,0.4,0.6,1,0,,,,,,,,,,,,
,,66aa651e21c9af8ebcd8081e,66fc9974b4165711b6f3b19c,2024-10-02_01h56.03.620,mdp,2024.2.1,Win32,59.88023952,66fa4ebf79326e780c390304,,,,,,,,,,,,,,,,,,,,,722.7029,722.7029,722.7037,723.7519,0,0,left,0.5173,,723.7528,724.751,1,0,right,724.752,724.7527,,0,,1,724.7528,724.7529,724.7535,726.2496,0,44,44,44,1,0.8,0.2,0.2,0.8,,,,,,,,,,,,,,,0.468,,0.2,0.8,0.6,0.4,0.8,0.2,0.4,0.6,1,0,,,,,,,,,,,,
,,66aa651e21c9af8ebcd8081e,66fc9974b4165711b6f3b19c,2024-10-02_01h56.03.620,mdp,2024.2.1,Win32,59.88023952,66fa4ebf79326e780c390304,,,,,,,,,,,,,,,,,,,,,726.25,726.25,726.251,727.249,0,0,left,0.4702,,727.25,728.3147,1,0,right,728.3156,728.3166,,1,,1,728.3167,728.3167,728.3174,729.8133,0,45,45,45,1,0.8,0.2,0.2,0.8,,,,,,,,,,,,,,,0.5333,,0.2,0.8,0.6,0.4,0.8,0.2,0.4,0.6,1,0,,,,,,,,,,,,
,,66aa651e21c9af8ebcd8081e,66fc9974b4165711b6f3b19c,2024-10-02_01h56.03.620,mdp,2024.2.1,Win32,59.88023952,66fa4ebf79326e780c390304,,,,,,,,,,,,,,,,,,,,,729.8136,729.8136,729.8144,730.7128,0,0,left,0.3664,,730.7136,731.6618,1,0,right,731.6627,731.6635,,1,,1,731.6635,731.6635,731.6643,733.1604,0,46,46,46,1,0.8,0.2,0.2,0.8,,,,,,,,,,,,,,,0.4214,,0.2,0.8,0.6,0.4,0.8,0.2,0.4,0.6,1,0,,,,,,,,,,,,
,,66aa651e21c9af8ebcd8081e,66fc9974b4165711b6f3b19c,2024-10-02_01h56.03.620,mdp,2024.2.1,Win32,59.88023952,66fa4ebf79326e780c390304,,,,,,,,,,,,,,,,,,,,,733.1607,733.1607,733.1617,735.3253,0,0,left,1.6397,,735.3264,736.2077,1,1,right,736.2086,736.2094,,0,,0,736.2094,736.2094,736.21,737.7063,0,47,47,47,1,0.8,0.2,0.2,0.8,,,,,,,,,,,,,,,0.3498,,0.2,0.8,0.6,0.4,0.8,0.2,0.4,0.6,1,0,,,,,,,,,,,,
,,66aa651e21c9af8ebcd8081e,66fc9974b4165711b6f3b19c,2024-10-02_01h56.03.620,mdp,2024.2.1,Win32,59.88023952,66fa4ebf79326e780c390304,,,,,,,,,,,,,,,,,,,,,737.7068,737.7069,737.7082,739.2051,0,0,left,0.9659,,739.2061,740.0542,0,1,left,740.0553,740.0561,,1,,0,740.0561,740.0562,740.057,741.5529,0,48,48,48,1,0.8,0.2,0.2,0.8,,,,,,,,,,,,,,,0.3163,,0.2,0.8,0.6,0.4,0.8,0.2,0.4,0.6,1,0,,,,,,,,,,,,
,,66aa651e21c9af8ebcd8081e,66fc9974b4165711b6f3b19c,2024-10-02_01h56.03.620,mdp,2024.2.1,Win32,59.88023952,66fa4ebf79326e780c390304,,,,,,,,,,,,,,,,,,,,,741.5535,741.5535,741.5544,742.2025,1,1,right,0.1251,,742.2034,744.8169,1,0,right,744.8179,744.8187,,0,,1,744.8188,744.8188,744.8194,746.3154,0,49,49,49,1,0.8,0.2,0.2,0.8,,,,,,,,,,,,,,,2.0659,,0.2,0.8,0.6,0.4,0.6,0.4,0.8,0.2,1,0,,,,,,,,,,,,
,,66aa651e21c9af8ebcd8081e,66fc9974b4165711b6f3b19c,2024-10-02_01h56.03.620,mdp,2024.2.1,Win32,59.88023952,66fa4ebf79326e780c390304,,,,,,,,,,,,,,,,,,,,,,,,,,,,,,,,,,,,,,,,,,,,,,,,,,,,,,,,746.3155,803.0449,0,1,1,5,1,imgs/dog.png,imgs/goat.png,imgs/elephant.png,imgs/rabbit.png,imgs/kangaroo.png,,,,,,,,,,,,,,,,,,,,,,,,
,,66aa651e21c9af8ebcd8081e,66fc9974b4165711b6f3b19c,2024-10-02_01h56.03.620,mdp,2024.2.1,Win32,59.88023952,66fa4ebf79326e780c390304,,,,,,,,,,,,,,3,seqs/st3seq7.csv,803.0595,851.9735,space,48.3924,,851.9948,851.9948,851.9958,858.8406,1,1,right,6.3114,,858.8417,868.4093,1,0,right,868.4103,875.8921,1,1,right,0,875.8922,875.8922,875.8929,877.3846,0,0,0,0,1,0.6,0.4,0.4,0.6,,,,,,,,,,,,,,,9.0291,,0.2,0.8,0.2,0.8,0.8,0.2,0.4,0.6,,,6.9437,,0.2,0.8,0.6,0.4,0.6,0.4,0.2,0.8,1,0
,,66aa651e21c9af8ebcd8081e,66fc9974b4165711b6f3b19c,2024-10-02_01h56.03.620,mdp,2024.2.1,Win32,59.88023952,66fa4ebf79326e780c390304,,,,,,,,,,,,,,,,,,,,,877.3852,877.3852,877.3862,893.0209,1,1,right,15.1086,,893.0218,904.7942,1,1,right,904.7953,912.4875,0,1,left,0,912.4876,912.4876,912.4884,913.9861,0,1,1,1,1,0.6,0.4,0.4,0.6,,,,,,,,,,,,,,,11.2249,,0.2,0.8,0.2,0.8,0.8,0.2,0.4,0.6,,,7.1505,,0.2,0.8,0.6,0.4,0.6,0.4,0.2,0.8,1,0
,,66aa651e21c9af8ebcd8081e,66fc9974b4165711b6f3b19c,2024-10-02_01h56.03.620,mdp,2024.2.1,Win32,59.88023952,66fa4ebf79326e780c390304,,,,,,,,,,,,,,,,,,,,,913.9866,913.9866,913.9876,919.0319,1,1,right,4.5139,,919.0329,928.1905,1,0,right,928.1916,934.4348,0,1,left,0,934.4349,934.4349,934.4362,935.9334,0,2,2,2,1,0.6,0.4,0.4,0.6,,,,,,,,,,,,,,,8.6356,,0.2,0.8,0.2,0.8,0.8,0.2,0.4,0.6,,,5.6953,,0.2,0.8,0.6,0.4,0.6,0.4,0.2,0.8,1,0
,,66aa651e21c9af8ebcd8081e,66fc9974b4165711b6f3b19c,2024-10-02_01h56.03.620,mdp,2024.2.1,Win32,59.88023952,66fa4ebf79326e780c390304,,,,,,,,,,,,,,,,,,,,,935.9339,935.9339,935.9349,940.5629,1,1,right,4.1024,,940.5641,944.8094,1,0,right,944.8103,947.7402,0,1,left,0,947.7403,947.7403,947.7412,949.2388,0,3,3,3,1,0.6,0.4,0.4,0.6,,,,,,,,,,,,,,,3.7144,,0.2,0.8,0.2,0.8,0.8,0.2,0.4,0.6,,,2.398,,0.2,0.8,0.6,0.4,0.6,0.4,0.2,0.8,1,0
,,66aa651e21c9af8ebcd8081e,66fc9974b4165711b6f3b19c,2024-10-02_01h56.03.620,mdp,2024.2.1,Win32,59.88023952,66fa4ebf79326e780c390304,,,,,,,,,,,,,,,,,,,,,949.2393,949.2394,949.2403,964.4256,1,0,right,14.6549,,964.4265,971.103,1,1,right,971.1039,976.8481,0,0,left,1,976.8482,976.8482,976.8491,978.3465,0,4,4,4,1,0.6,0.4,0.4,0.6,,,,,,,,,,,,,,,6.1327,,0.2,0.8,0.2,0.8,0.8,0.2,0.4,0.6,,,5.1998,,0.2,0.8,0.6,0.4,0.6,0.4,0.2,0.8,1,0
,,66aa651e21c9af8ebcd8081e,66fc9974b4165711b6f3b19c,2024-10-02_01h56.03.620,mdp,2024.2.1,Win32,59.88023952,66fa4ebf79326e780c390304,,,,,,,,,,,,,,,,,,,,,978.347,978.347,978.3483,985.7735,1,1,right,6.8941,,985.7744,992.884,0,0,left,992.8849,1007.4714,0,1,left,0,1007.4715,1007.4715,1007.4726,1008.9699,0,5,5,5,1,0.6,0.4,0.4,0.6,,,,,,,,,,,,,,,6.5675,,0.2,0.8,0.2,0.8,0.8,0.2,0.4,0.6,,,14.0456,,0.2,0.8,0.6,0.4,0.6,0.4,0.2,0.8,1,0
,,66aa651e21c9af8ebcd8081e,66fc9974b4165711b6f3b19c,2024-10-02_01h56.03.620,mdp,2024.2.1,Win32,59.88023952,66fa4ebf79326e780c390304,,,,,,,,,,,,,,,,,,,,,1008.9703,1008.9703,1008.9713,1016.5299,1,1,right,7.0269,,1016.5309,1021.5921,0,1,left,1021.5931,1023.3906,1,1,right,0,1023.3907,1023.3907,1023.3914,1024.8896,0,6,6,6,1,0.6,0.4,0.4,0.6,,,,,,,,,,,,,,,4.5376,,0.2,0.8,0.2,0.8,0.8,0.2,0.4,0.6,,,1.2553,,0.2,0.8,0.6,0.4,0.6,0.4,0.2,0.8,1,0
,,66aa651e21c9af8ebcd8081e,66fc9974b4165711b6f3b19c,2024-10-02_01h56.03.620,mdp,2024.2.1,Win32,59.88023952,66fa4ebf79326e780c390304,,,,,,,,,,,,,,,,,,,,,1024.8901,1024.8902,1024.8911,1026.5715,1,1,right,1.1499,,1026.5723,1028.8027,0,0,left,1028.8038,1029.885,0,1,left,0,1029.885,1029.885,1029.8858,1031.3839,0,7,7,7,1,0.6,0.4,0.4,0.6,,,,,,,,,,,,,,,1.6987,,0.2,0.8,0.2,0.8,0.8,0.2,0.4,0.6,,,0.5336,,0.8,0.2,0.4,0.6,0.6,0.4,0.2,0.8,1,0
,,66aa651e21c9af8ebcd8081e,66fc9974b4165711b6f3b19c,2024-10-02_01h56.03.620,mdp,2024.2.1,Win32,59.88023952,66fa4ebf79326e780c390304,,,,,,,,,,,,,,,,,,,,,1031.3843,1031.3843,1031.3853,1033.8319,1,1,right,1.9151,,1033.833,1035.8801,0,0,left,1035.8809,1036.8293,1,1,right,0,1036.8293,1036.8293,1036.8303,1038.3275,0,8,8,8,1,0.6,0.4,0.4,0.6,,,,,,,,,,,,,,,1.5156,,0.2,0.8,0.2,0.8,0.8,0.2,0.4,0.6,,,0.4242,,0.8,0.2,0.4,0.6,0.6,0.4,0.2,0.8,1,0
,,66aa651e21c9af8ebcd8081e,66fc9974b4165711b6f3b19c,2024-10-02_01h56.03.620,mdp,2024.2.1,Win32,59.88023952,66fa4ebf79326e780c390304,,,,,,,,,,,,,,,,,,,,,1038.3279,1038.3279,1038.3286,1041.2087,1,1,right,2.3545,,1041.2097,1043.6235,1,1,right,1043.6245,1047.5197,1,1,right,0,1047.5199,1047.5199,1047.5207,1049.0183,0,9,9,9,1,0.6,0.4,0.4,0.6,,,,,,,,,,,,,,,1.8826,,0.2,0.8,0.2,0.8,0.8,0.2,0.4,0.6,,,3.3472,,0.8,0.2,0.4,0.6,0.6,0.4,0.2,0.8,1,0
,,66aa651e21c9af8ebcd8081e,66fc9974b4165711b6f3b19c,2024-10-02_01h56.03.620,mdp,2024.2.1,Win32,59.88023952,66fa4ebf79326e780c390304,,,,,,,,,,,,,,,,,,,,,1049.0187,1049.0187,1049.0197,1053.9809,0,1,left,4.4351,,1053.9819,1085.7039,1,0,right,1085.7049,1094.912,0,0,left,1,1094.912,1094.912,1094.9129,1096.411,0,10,10,10,1,0.6,0.4,0.4,0.6,,,,,,,,,,,,,,,31.1911,,0.2,0.8,0.2,0.8,0.8,0.2,0.4,0.6,,,8.6619,,0.8,0.2,0.4,0.6,0.6,0.4,0.2,0.8,1,0
,,66aa651e21c9af8ebcd8081e,66fc9974b4165711b6f3b19c,2024-10-02_01h56.03.620,mdp,2024.2.1,Win32,59.88023952,66fa4ebf79326e780c390304,,,,,,,,,,,,,,,,,,,,,1096.4117,1096.4117,1096.4126,1103.9374,1,0,right,7.002,,1103.9385,1108.5837,1,1,right,1108.5846,1113.3121,0,0,left,1,1113.3123,1113.3123,1113.3135,1114.8115,0,11,11,11,1,0.6,0.4,0.4,0.6,,,,,,,,,,,,,,,4.0961,,0.2,0.8,0.2,0.8,0.8,0.2,0.4,0.6,,,4.1788,,0.8,0.2,0.4,0.6,0.8,0.2,0.8,0.2,1,0
,,66aa651e21c9af8ebcd8081e,66fc9974b4165711b6f3b19c,2024-10-02_01h56.03.620,mdp,2024.2.1,Win32,59.88023952,66fa4ebf79326e780c390304,,,,,,,,,,,,,,,,,,,,,1114.812,1114.812,1114.8129,1122.6045,1,1,right,7.2612,,1122.6056,1130.3979,1,0,right,1130.3988,1134.3942,0,0,left,1,1134.3943,1134.3943,1134.3952,1135.8929,0,12,12,12,1,0.6,0.4,0.4,0.6,,,,,,,,,,,,,,,7.2447,,0.2,0.8,0.2,0.8,0.8,0.2,0.4,0.6,,,3.4563,,0.8,0.2,0.4,0.6,0.8,0.2,0.8,0.2,1,0
,,66aa651e21c9af8ebcd8081e,66fc9974b4165711b6f3b19c,2024-10-02_01h56.03.620,mdp,2024.2.1,Win32,59.88023952,66fa4ebf79326e780c390304,,,,,,,,,,,,,,,,,,,,,1135.8936,1135.8936,1135.8945,1139.1231,1,0,right,2.7028,,1139.1243,1143.7192,1,1,right,1143.7202,1146.1672,0,0,left,1,1146.1672,1146.1672,1146.168,1147.6657,0,13,13,13,1,0.6,0.4,0.4,0.6,,,,,,,,,,,,,,,4.0492,,0.2,0.8,0.2,0.8,0.8,0.2,0.4,0.6,,,1.9003,,0.8,0.2,0.4,0.6,0.8,0.2,0.8,0.2,1,0
,,66aa651e21c9af8ebcd8081e,66fc9974b4165711b6f3b19c,2024-10-02_01h56.03.620,mdp,2024.2.1,Win32,59.88023952,66fa4ebf79326e780c390304,,,,,,,,,,,,,,,,,,,,,1147.6661,1147.6662,1147.6671,1150.2466,1,0,right,2.0485,,1150.2477,1153.4609,1,1,right,1153.4617,1155.326,0,0,left,1,1155.3261,1155.3261,1155.3269,1156.8243,0,14,14,14,1,0.6,0.4,0.4,0.6,,,,,,,,,,,,,,,2.688,,0.2,0.8,0.2,0.8,0.8,0.2,0.4,0.6,,,1.3324,,0.8,0.2,0.4,0.6,0.8,0.2,0.8,0.2,1,0
,,66aa651e21c9af8ebcd8081e,66fc9974b4165711b6f3b19c,2024-10-02_01h56.03.620,mdp,2024.2.1,Win32,59.88023952,66fa4ebf79326e780c390304,,,,,,,,,,,,,,,,,,,,,1156.8247,1156.8247,1156.8256,1158.5228,1,1,right,1.1661,,1158.5239,1161.2872,1,1,right,1161.2882,1165.8999,0,0,left,1,1165.8999,1165.8999,1165.9011,1167.3987,0,15,15,15,1,0.6,0.4,0.4,0.6,,,,,,,,,,,,,,,2.2154,,0.2,0.8,0.2,0.8,0.8,0.2,0.4,0.6,,,4.0895,,0.8,0.2,0.4,0.6,0.8,0.2,0.8,0.2,1,0
,,66aa651e21c9af8ebcd8081e,66fc9974b4165711b6f3b19c,2024-10-02_01h56.03.620,mdp,2024.2.1,Win32,59.88023952,66fa4ebf79326e780c390304,,,,,,,,,,,,,,,,,,,,,1167.3993,1167.3993,1167.4002,1169.786,1,0,right,1.8653,,1169.7868,1172.028,1,1,right,1172.0289,1174.609,0,0,left,1,1174.6091,1174.6091,1174.6099,1176.1074,0,16,16,16,1,0.6,0.4,0.4,0.6,,,,,,,,,,,,,,,1.704,,0.2,0.8,0.2,0.8,0.8,0.2,0.4,0.6,,,2.0698,,0.8,0.2,0.4,0.6,0.8,0.2,0.8,0.2,1,0
,,66aa651e21c9af8ebcd8081e,66fc9974b4165711b6f3b19c,2024-10-02_01h56.03.620,mdp,2024.2.1,Win32,59.88023952,66fa4ebf79326e780c390304,,,,,,,,,,,,,,,,,,,,,1176.1079,1176.1079,1176.1089,1177.906,1,1,right,1.2694,,1177.9071,1179.8209,1,0,right,1179.8219,1182.219,0,1,left,0,1182.219,1182.2191,1182.2201,1183.7176,0,17,17,17,1,0.6,0.4,0.4,0.6,,,,,,,,,,,,,,,1.3744,,0.2,0.8,0.2,0.8,0.8,0.2,0.4,0.6,,,1.8528,,0.8,0.2,0.4,0.6,0.8,0.2,0.8,0.2,1,0
,,66aa651e21c9af8ebcd8081e,66fc9974b4165711b6f3b19c,2024-10-02_01h56.03.620,mdp,2024.2.1,Win32,59.88023952,66fa4ebf79326e780c390304,,,,,,,,,,,,,,,,,,,,,1183.7179,1183.7179,1183.7188,1190.4951,1,0,right,6.2469,,1190.4961,1197.6889,1,1,right,1197.6898,1199.3708,0,0,left,1,1199.3709,1199.3709,1199.3719,1200.8693,0,18,18,18,1,0.6,0.4,0.4,0.6,,,,,,,,,,,,,,,6.6492,,0.2,0.8,0.2,0.8,0.8,0.2,0.4,0.6,,,1.1415,,0.8,0.2,0.4,0.6,0.8,0.2,0.8,0.2,1,0
,,66aa651e21c9af8ebcd8081e,66fc9974b4165711b6f3b19c,2024-10-02_01h56.03.620,mdp,2024.2.1,Win32,59.88023952,66fa4ebf79326e780c390304,,,,,,,,,,,,,,,,,,,,,1200.8698,1200.8698,1200.8707,1202.4013,1,0,right,1.0038,,1202.4023,1204.8992,1,1,right,1204.9003,1206.1815,0,0,left,1,1206.1815,1206.1816,1206.1824,1207.6802,0,19,19,19,1,0.6,0.4,0.4,0.6,,,,,,,,,,,,,,,1.9744,,0.2,0.8,0.2,0.8,0.6,0.4,0.8,0.2,,,0.7333,,0.8,0.2,0.4,0.6,0.8,0.2,0.8,0.2,1,0
,,66aa651e21c9af8ebcd8081e,66fc9974b4165711b6f3b19c,2024-10-02_01h56.03.620,mdp,2024.2.1,Win32,59.88023952,66fa4ebf79326e780c390304,,,,,,,,,,,,,,,,,,,,,1207.6808,1207.6808,1207.6817,1210.4444,1,0,right,2.2318,,1210.4453,1212.6151,1,1,right,1212.616,1214.0248,0,0,left,1,1214.0248,1214.0248,1214.0258,1215.5235,0,20,20,20,1,0.6,0.4,0.4,0.6,,,,,,,,,,,,,,,1.6483,,0.2,0.8,0.2,0.8,0.6,0.4,0.8,0.2,,,0.8916,,0.8,0.2,0.4,0.6,0.8,0.2,0.8,0.2,1,0
,,66aa651e21c9af8ebcd8081e,66fc9974b4165711b6f3b19c,2024-10-02_01h56.03.620,mdp,2024.2.1,Win32,59.88023952,66fa4ebf79326e780c390304,,,,,,,,,,,,,,,,,,,,,1215.5238,1215.5238,1215.5246,1216.9221,1,0,right,0.8666,,1216.9231,1218.8703,1,1,right,1218.8712,1220.5022,0,0,left,1,1220.5023,1220.5023,1220.5033,1222.001,0,21,21,21,1,0.6,0.4,0.4,0.6,,,,,,,,,,,,,,,1.4158,,0.2,0.8,0.2,0.8,0.6,0.4,0.8,0.2,,,1.0995,,0.8,0.2,0.4,0.6,0.8,0.2,0.8,0.2,1,0
,,66aa651e21c9af8ebcd8081e,66fc9974b4165711b6f3b19c,2024-10-02_01h56.03.620,mdp,2024.2.1,Win32,59.88023952,66fa4ebf79326e780c390304,,,,,,,,,,,,,,,,,,,,,1222.0014,1222.0014,1222.0025,1224.2155,1,1,right,1.6879,,1224.2164,1226.4139,1,0,right,1226.4149,1228.7785,0,0,left,1,1228.7786,1228.7786,1228.7795,1230.2772,0,22,22,22,1,0.2,0.8,0.6,0.4,,,,,,,,,,,,,,,1.6488,,0.2,0.8,0.2,0.8,0.6,0.4,0.8,0.2,,,1.8154,,0.8,0.2,0.4,0.6,0.8,0.2,0.8,0.2,1,0
,,66aa651e21c9af8ebcd8081e,66fc9974b4165711b6f3b19c,2024-10-02_01h56.03.620,mdp,2024.2.1,Win32,59.88023952,66fa4ebf79326e780c390304,,,,,,,,,,,,,,,,,,,,,1230.2776,1230.2776,1230.2788,1231.6592,1,0,right,0.8587,,1231.6602,1234.0072,1,1,right,1234.0081,1237.5709,0,1,left,0,1237.571,1237.571,1237.5718,1239.0695,0,23,23,23,1,0.2,0.8,0.6,0.4,,,,,,,,,,,,,,,1.808,,0.2,0.8,0.2,0.8,0.6,0.4,0.8,0.2,,,3.0186,,0.8,0.2,0.4,0.6,0.8,0.2,0.8,0.2,1,0
,,66aa651e21c9af8ebcd8081e,66fc9974b4165711b6f3b19c,2024-10-02_01h56.03.620,mdp,2024.2.1,Win32,59.88023952,66fa4ebf79326e780c390304,,,,,,,,,,,,,,,,,,,,,1239.0699,1239.0699,1239.0709,1248.478,1,0,right,8.885,,1248.479,1255.5884,1,0,right,1255.5896,1260.8171,0,1,left,0,1260.8172,1260.8172,1260.8181,1262.3157,0,24,24,24,1,0.2,0.8,0.6,0.4,,,,,,,,,,,,,,,6.5811,,0.2,0.8,0.2,0.8,0.6,0.4,0.8,0.2,,,4.6826,,0.8,0.2,0.4,0.6,0.8,0.2,0.8,0.2,1,0
,,66aa651e21c9af8ebcd8081e,66fc9974b4165711b6f3b19c,2024-10-02_01h56.03.620,mdp,2024.2.1,Win32,59.88023952,66fa4ebf79326e780c390304,,,,,,,,,,,,,,,,,,,,,1262.3163,1262.3163,1262.3178,1264.4475,1,1,right,1.5989,,1264.4485,1266.1793,1,0,right,1266.1802,1267.8277,0,1,left,0,1267.8277,1267.8277,1267.8285,1269.3263,0,25,25,25,1,0.2,0.8,0.6,0.4,,,,,,,,,,,,,,,1.1888,,0.2,0.8,0.2,0.8,0.6,0.4,0.8,0.2,,,1.1168,,0.8,0.2,0.4,0.6,0.8,0.2,0.8,0.2,1,0
,,66aa651e21c9af8ebcd8081e,66fc9974b4165711b6f3b19c,2024-10-02_01h56.03.620,mdp,2024.2.1,Win32,59.88023952,66fa4ebf79326e780c390304,,,,,,,,,,,,,,,,,,,,,1269.3267,1269.3267,1269.3275,1273.3228,1,1,right,3.468,,1273.3239,1275.005,1,0,right,1275.0058,1277.0531,1,1,right,0,1277.0531,1277.0531,1277.0542,1278.5516,0,26,26,26,1,0.2,0.8,0.6,0.4,,,,,,,,,,,,,,,1.1491,,0.2,0.8,0.2,0.8,0.6,0.4,0.8,0.2,,,1.5153,,0.8,0.2,0.4,0.6,0.8,0.2,0.8,0.2,1,0
,,66aa651e21c9af8ebcd8081e,66fc9974b4165711b6f3b19c,2024-10-02_01h56.03.620,mdp,2024.2.1,Win32,59.88023952,66fa4ebf79326e780c390304,,,,,,,,,,,,,,,,,,,,,1278.552,1278.552,1278.5529,1280.0173,1,1,right,0.9407,,1280.0183,1281.5823,1,0,right,1281.5832,1282.665,0,0,left,1,1282.665,1282.665,1282.6659,1284.1636,0,27,27,27,1,0.2,0.8,0.6,0.4,,,,,,,,,,,,,,,1.0328,,0.2,0.8,0.2,0.8,0.6,0.4,0.8,0.2,,,0.5572,,0.8,0.2,0.4,0.6,0.8,0.2,0.8,0.2,1,0
,,66aa651e21c9af8ebcd8081e,66fc9974b4165711b6f3b19c,2024-10-02_01h56.03.620,mdp,2024.2.1,Win32,59.88023952,66fa4ebf79326e780c390304,,,,,,,,,,,,,,,,,,,,,1284.1641,1284.1641,1284.1649,1284.9796,1,0,right,0.2921,,1284.9809,1286.7778,1,1,right,1286.7788,1288.2767,0,0,left,1,1288.2768,1288.2768,1288.278,1289.7751,0,28,28,28,1,0.2,0.8,0.6,0.4,,,,,,,,,,,,,,,1.2544,,0.2,0.8,0.2,0.8,0.6,0.4,0.8,0.2,,,0.9503,,0.8,0.2,0.4,0.6,0.8,0.2,0.8,0.2,1,0
,,66aa651e21c9af8ebcd8081e,66fc9974b4165711b6f3b19c,2024-10-02_01h56.03.620,mdp,2024.2.1,Win32,59.88023952,66fa4ebf79326e780c390304,,,,,,,,,,,,,,,,,,,,,1289.7755,1289.7755,1289.7764,1291.1241,1,0,right,0.8263,,1291.1251,1292.6395,1,1,right,1292.6403,1293.9385,0,0,left,1,1293.9385,1293.9385,1293.9395,1295.4369,0,29,29,29,1,0.2,0.8,0.6,0.4,,,,,,,,,,,,,,,0.986,,0.2,0.8,0.2,0.8,0.6,0.4,0.8,0.2,,,0.7665,,0.8,0.2,0.4,0.6,0.8,0.2,0.8,0.2,1,0
,,66aa651e21c9af8ebcd8081e,66fc9974b4165711b6f3b19c,2024-10-02_01h56.03.620,mdp,2024.2.1,Win32,59.88023952,66fa4ebf79326e780c390304,,,,,,,,,,,,,,,,,,,,,1295.4372,1295.4372,1295.4381,1296.1698,1,0,right,0.2003,,1296.1709,1298.3011,1,1,right,1298.3019,1299.3503,0,0,left,1,1299.3504,1299.3504,1299.3519,1300.8487,0,30,30,30,1,0.2,0.8,0.6,0.4,,,,,,,,,,,,,,,1.6085,,0.2,0.8,0.2,0.8,0.6,0.4,0.8,0.2,,,0.5206,,0.8,0.2,0.4,0.6,0.8,0.2,0.8,0.2,1,0
,,66aa651e21c9af8ebcd8081e,66fc9974b4165711b6f3b19c,2024-10-02_01h56.03.620,mdp,2024.2.1,Win32,59.88023952,66fa4ebf79326e780c390304,,,,,,,,,,,,,,,,,,,,,1300.8493,1300.8493,1300.8503,1303.7629,1,1,right,2.392,,1303.7639,1306.111,1,0,right,1306.112,1307.4431,0,0,left,1,1307.4432,1307.4433,1307.4442,1308.9314,0,31,31,31,1,0.2,0.8,0.6,0.4,,,,,,,,,,,,,,,1.7977,,0.2,0.8,0.2,0.8,0.6,0.4,0.8,0.2,,,0.7891,,0.8,0.2,0.4,0.6,0.8,0.2,0.8,0.2,1,0
,,66aa651e21c9af8ebcd8081e,66fc9974b4165711b6f3b19c,2024-10-02_01h56.03.620,mdp,2024.2.1,Win32,59.88023952,66fa4ebf79326e780c390304,,,,,,,,,,,,,,,,,,,,,1308.9317,1308.9318,1308.9324,1311.1235,1,1,right,1.6698,,1311.1245,1312.7719,1,0,right,1312.7728,1313.9874,1,0,right,1,1313.9875,1313.9875,1313.9884,1315.486,0,32,32,32,1,0.2,0.8,0.6,0.4,,,,,,,,,,,,,,,1.1155,,0.2,0.8,0.2,0.8,0.6,0.4,0.8,0.2,,,0.6841,,0.8,0.2,0.4,0.6,0.8,0.2,0.8,0.2,1,0
,,66aa651e21c9af8ebcd8081e,66fc9974b4165711b6f3b19c,2024-10-02_01h56.03.620,mdp,2024.2.1,Win32,59.88023952,66fa4ebf79326e780c390304,,,,,,,,,,,,,,,,,,,,,1315.4864,1315.4864,1315.4871,1336.6844,1,1,right,20.6703,,1336.6854,1340.631,1,0,right,1340.6318,1350.5118,0,0,left,1,1350.5119,1350.5119,1350.5127,1352.0043,0,33,33,33,1,0.2,0.8,0.6,0.4,,,,,,,,,,,,,,,3.4135,,0.2,0.8,0.2,0.8,0.6,0.4,0.8,0.2,,,9.3584,,0.8,0.2,0.4,0.6,0.8,0.2,0.8,0.2,1,0
,,66aa651e21c9af8ebcd8081e,66fc9974b4165711b6f3b19c,2024-10-02_01h56.03.620,mdp,2024.2.1,Win32,59.88023952,66fa4ebf79326e780c390304,,,,,,,,,,,,,,,,,,,,,1352.0049,1352.0049,1352.0058,1359.248,1,1,right,6.7133,,1359.249,1364.7931,1,0,right,1364.7941,1365.7758,0,0,left,1,1365.776,1365.776,1365.777,1367.2744,0,34,34,34,1,0.2,0.8,0.6,0.4,,,,,,,,,,,,,,,5.0229,,0.2,0.8,0.2,0.8,0.6,0.4,0.8,0.2,,,0.4429,,0.8,0.2,0.4,0.6,0.8,0.2,0.8,0.2,1,0
,,66aa651e21c9af8ebcd8081e,66fc9974b4165711b6f3b19c,2024-10-02_01h56.03.620,mdp,2024.2.1,Win32,59.88023952,66fa4ebf79326e780c390304,,,,,,,,,,,,,,,,,,,,,1367.2749,1367.2749,1367.2757,1373.1525,1,1,right,5.3456,,1373.1535,1375.4345,1,0,right,1375.4355,1376.4164,0,0,left,1,1376.4165,1376.4165,1376.4176,1377.915,0,35,35,35,1,0.2,0.8,0.6,0.4,,,,,,,,,,,,,,,1.7478,,0.2,0.8,0.2,0.8,0.6,0.4,0.8,0.2,,,0.4533,,0.8,0.2,0.4,0.6,0.8,0.2,0.8,0.2,1,0
,,66aa651e21c9af8ebcd8081e,66fc9974b4165711b6f3b19c,2024-10-02_01h56.03.620,mdp,2024.2.1,Win32,59.88023952,66fa4ebf79326e780c390304,,,,,,,,,,,,,,,,,,,,,1377.9155,1377.9155,1377.9164,1379.4805,1,0,right,1.0327,,1379.4817,1385.5752,1,1,right,1385.5763,1386.6911,0,1,left,0,1386.6912,1386.6912,1386.6923,1388.1894,0,36,36,36,1,0.2,0.8,0.6,0.4,,,,,,,,,,,,,,,5.5536,,0.2,0.8,0.2,0.8,0.6,0.4,0.8,0.2,,,0.573,,0.8,0.2,0.4,0.6,0.8,0.2,0.8,0.2,1,0
,,66aa651e21c9af8ebcd8081e,66fc9974b4165711b6f3b19c,2024-10-02_01h56.03.620,mdp,2024.2.1,Win32,59.88023952,66fa4ebf79326e780c390304,,,,,,,,,,,,,,,,,,,,,1388.1898,1388.1898,1388.1907,1422.9925,1,0,right,34.2805,,1422.9937,1424.2249,1,0,right,1424.226,1427.8551,1,0,right,1,1427.8551,1427.8551,1427.856,1429.3536,0,37,37,37,1,0.2,0.8,0.6,0.4,,,,,,,,,,,,,,,0.7,,0.8,0.2,0.4,0.6,0.6,0.4,0.8,0.2,,,3.083,,0.8,0.2,0.4,0.6,0.8,0.2,0.8,0.2,1,0
,,66aa651e21c9af8ebcd8081e,66fc9974b4165711b6f3b19c,2024-10-02_01h56.03.620,mdp,2024.2.1,Win32,59.88023952,66fa4ebf79326e780c390304,,,,,,,,,,,,,,,,,,,,,1429.354,1429.354,1429.3549,1431.2856,1,0,right,1.4057,,1431.2867,1432.5012,1,1,right,1432.5021,1434.3833,0,0,left,1,1434.3833,1434.3833,1434.3842,1435.8819,0,38,38,38,1,0.2,0.8,0.6,0.4,,,,,,,,,,,,,,,0.6838,,0.8,0.2,0.4,0.6,0.6,0.4,0.8,0.2,,,1.3389,,0.8,0.2,0.4,0.6,0.8,0.2,0.8,0.2,1,0
,,66aa651e21c9af8ebcd8081e,66fc9974b4165711b6f3b19c,2024-10-02_01h56.03.620,mdp,2024.2.1,Win32,59.88023952,66fa4ebf79326e780c390304,,,,,,,,,,,,,,,,,,,,,1435.8823,1435.8823,1435.8834,1436.914,1,1,right,0.5065,,1436.9151,1438.0855,1,0,right,1438.0863,1439.911,0,0,left,1,1439.911,1439.911,1439.912,1441.41,0,39,39,39,1,0.2,0.8,0.6,0.4,,,,,,,,,,,,,,,0.6327,,0.8,0.2,0.4,0.6,0.6,0.4,0.8,0.2,,,1.283,,0.8,0.2,0.4,0.6,0.8,0.2,0.8,0.2,1,0
,,66aa651e21c9af8ebcd8081e,66fc9974b4165711b6f3b19c,2024-10-02_01h56.03.620,mdp,2024.2.1,Win32,59.88023952,66fa4ebf79326e780c390304,,,,,,,,,,,,,,,,,,,,,1441.4105,1441.4105,1441.4114,1443.0583,1,0,right,1.1158,,1443.0597,1444.3241,1,1,right,1444.3249,1445.4064,0,0,left,1,1445.4064,1445.4064,1445.4073,1446.9053,0,40,40,40,1,0.2,0.8,0.6,0.4,,,,,,,,,,,,,,,0.7176,,0.8,0.2,0.4,0.6,0.6,0.4,0.8,0.2,,,0.5343,,0.8,0.2,0.4,0.6,0.8,0.2,0.8,0.2,1,0
,,66aa651e21c9af8ebcd8081e,66fc9974b4165711b6f3b19c,2024-10-02_01h56.03.620,mdp,2024.2.1,Win32,59.88023952,66fa4ebf79326e780c390304,,,,,,,,,,,,,,,,,,,,,1446.9057,1446.9058,1446.9065,1448.6868,1,0,right,1.2592,,1448.6876,1450.8357,1,1,right,1450.8366,1451.8509,0,0,left,1,1451.851,1451.851,1451.8519,1453.349,0,41,41,41,1,0.2,0.8,0.6,0.4,,,,,,,,,,,,,,,1.618,,0.8,0.2,0.4,0.6,0.6,0.4,0.8,0.2,,,0.4887,,0.8,0.2,0.4,0.6,0.8,0.2,0.8,0.2,1,0
,,66aa651e21c9af8ebcd8081e,66fc9974b4165711b6f3b19c,2024-10-02_01h56.03.620,mdp,2024.2.1,Win32,59.88023952,66fa4ebf79326e780c390304,,,,,,,,,,,,,,,,,,,,,1453.3495,1453.3495,1453.3508,1453.9157,1,1,right,0.0443,,1453.9167,1455.0143,1,0,right,1455.0151,1456.946,0,0,left,1,1456.946,1456.946,1456.947,1458.4448,0,42,42,42,1,0.2,0.8,0.6,0.4,,,,,,,,,,,,,,,0.561,,0.8,0.2,0.4,0.6,0.6,0.4,0.8,0.2,,,1.409,,0.8,0.2,0.4,0.6,0.8,0.2,0.8,0.2,1,0
,,66aa651e21c9af8ebcd8081e,66fc9974b4165711b6f3b19c,2024-10-02_01h56.03.620,mdp,2024.2.1,Win32,59.88023952,66fa4ebf79326e780c390304,,,,,,,,,,,,,,,,,,,,,1458.4451,1458.4451,1458.446,1460.1771,1,1,right,1.1991,,1460.178,1461.6924,1,0,right,1461.6934,1462.6247,1,0,right,1,1462.6247,1462.6247,1462.6257,1464.1234,0,43,43,43,1,0.2,0.8,0.6,0.4,,,,,,,,,,,,,,,0.9898,,0.8,0.2,0.4,0.6,0.6,0.4,0.8,0.2,,,0.4068,,0.6,0.4,0.8,0.2,0.8,0.2,0.8,0.2,1,0
,,66aa651e21c9af8ebcd8081e,66fc9974b4165711b6f3b19c,2024-10-02_01h56.03.620,mdp,2024.2.1,Win32,59.88023952,66fa4ebf79326e780c390304,,,,,,,,,,,,,,,,,,,,,1464.1238,1464.1238,1464.1247,1465.1223,1,1,right,0.4711,,1465.1232,1466.705,1,0,right,1466.7061,1468.3039,0,1,left,0,1468.3039,1468.3039,1468.3049,1469.8024,0,44,44,44,1,0.2,0.8,0.6,0.4,,,,,,,,,,,,,,,1.0726,,0.8,0.2,0.4,0.6,0.6,0.4,0.8,0.2,,,1.0659,,0.6,0.4,0.8,0.2,0.8,0.2,0.8,0.2,1,0
,,66aa651e21c9af8ebcd8081e,66fc9974b4165711b6f3b19c,2024-10-02_01h56.03.620,mdp,2024.2.1,Win32,59.88023952,66fa4ebf79326e780c390304,,,,,,,,,,,,,,,,,,,,,1469.8028,1469.8028,1469.8036,1471.001,1,1,right,0.667,,1471.0023,1471.8339,1,1,right,1471.835,1472.7325,1,0,right,1,1472.7326,1472.7326,1472.7335,1474.2316,0,45,45,45,1,0.2,0.8,0.6,0.4,,,,,,,,,,,,,,,0.3006,,0.8,0.2,0.4,0.6,0.6,0.4,0.8,0.2,,,0.3565,,0.6,0.4,0.8,0.2,0.8,0.2,0.8,0.2,1,0
,,66aa651e21c9af8ebcd8081e,66fc9974b4165711b6f3b19c,2024-10-02_01h56.03.620,mdp,2024.2.1,Win32,59.88023952,66fa4ebf79326e780c390304,,,,,,,,,,,,,,,,,,,,,1474.2321,1474.2321,1474.2329,1475.4968,1,0,right,0.7364,,1475.4979,1476.5131,1,1,right,1476.5142,1478.3613,1,0,right,1,1478.3614,1478.3614,1478.3624,1479.8597,0,46,46,46,1,0.2,0.8,0.6,0.4,,,,,,,,,,,,,,,0.474,,0.8,0.2,0.4,0.6,0.6,0.4,0.8,0.2,,,1.3032,,0.6,0.4,0.8,0.2,0.8,0.2,0.8,0.2,1,0
,,66aa651e21c9af8ebcd8081e,66fc9974b4165711b6f3b19c,2024-10-02_01h56.03.620,mdp,2024.2.1,Win32,59.88023952,66fa4ebf79326e780c390304,,,,,,,,,,,,,,,,,,,,,1479.8601,1479.8601,1479.8611,1480.9754,1,1,right,0.5837,,1480.9763,1481.8247,1,0,right,1481.8257,1482.8741,0,0,left,1,1482.8742,1482.8742,1482.8752,1484.3728,0,47,47,47,1,0.2,0.8,0.6,0.4,,,,,,,,,,,,,,,0.3001,,0.8,0.2,0.4,0.6,0.6,0.4,0.8,0.2,,,0.5083,,0.6,0.4,0.8,0.2,0.8,0.2,0.8,0.2,1,0
,,66aa651e21c9af8ebcd8081e,66fc9974b4165711b6f3b19c,2024-10-02_01h56.03.620,mdp,2024.2.1,Win32,59.88023952,66fa4ebf79326e780c390304,,,,,,,,,,,,,,,,,,,,,1484.3732,1484.3732,1484.3742,1485.2714,1,0,right,0.3765,,1485.2724,1486.0708,1,1,right,1486.0718,1486.787,0,0,left,1,1486.7871,1486.7871,1486.7881,1488.2755,0,48,48,48,1,0.2,0.8,0.6,0.4,,,,,,,,,,,,,,,0.2582,,0.6,0.4,0.2,0.8,0.6,0.4,0.8,0.2,,,0.1844,,0.6,0.4,0.8,0.2,0.8,0.2,0.8,0.2,1,0
,,66aa651e21c9af8ebcd8081e,66fc9974b4165711b6f3b19c,2024-10-02_01h56.03.620,mdp,2024.2.1,Win32,59.88023952,66fa4ebf79326e780c390304,,,,,,,,,,,,,,,,,,,,,1488.2759,1488.2759,1488.2769,1490.8835,1,1,right,2.0814,,1490.8845,1491.6659,1,0,right,1491.6673,1492.416,0,0,left,1,1492.416,1492.416,1492.4169,1493.9147,0,49,49,49,1,0.2,0.8,0.6,0.4,,,,,,,,,,,,,,,0.2329,,0.6,0.4,0.2,0.8,0.6,0.4,0.8,0.2,,,0.2008,,0.6,0.4,0.8,0.2,0.8,0.2,0.8,0.2,1,0
,,66aa651e21c9af8ebcd8081e,66fc9974b4165711b6f3b19c,2024-10-02_01h56.03.620,mdp,2024.2.1,Win32,59.88023952,66fa4ebf79326e780c390304,,,,,,,,,,,,,,,,,,,,,,,,,,,,,,,,,,,,,,,,,,,,,,,,,,,,,,,,1493.915,1552.4297,0,2,2,1,1,imgs/rabbit.png,imgs/squirrel.png,imgs/dog.png,imgs/elephant.png,imgs/giraffe.png,,,,,,,,,,,,,,,,,,,,,,,,
,,66aa651e21c9af8ebcd8081e,66fc9974b4165711b6f3b19c,2024-10-02_01h56.03.620,mdp,2024.2.1,Win32,59.88023952,66fa4ebf79326e780c390304,,,,,,,,,,,,,,3,seqs/st3seq20.csv,1552.4302,1559.3236,space,6.3658,,1559.3289,1559.3289,1559.3297,1565.3017,1,1,right,5.4296,,1565.3027,1570.5136,1,0,right,1570.5146,1575.1265,1,0,right,1,1575.1265,1575.1265,1575.1274,1576.6251,0,0,0,0,1,0.2,0.8,0.4,0.6,,,,,,,,,,,,,,,4.6728,,0.4,0.6,0.6,0.4,0.8,0.2,0.6,0.4,,,4.064,,0.4,0.6,0.8,0.2,0.2,0.8,0.4,0.6,1,0
,,66aa651e21c9af8ebcd8081e,66fc9974b4165711b6f3b19c,2024-10-02_01h56.03.620,mdp,2024.2.1,Win32,59.88023952,66fa4ebf79326e780c390304,,,,,,,,,,,,,,,,,,,,,1576.6256,1576.6256,1576.6271,1583.1529,1,1,right,5.9961,,1583.154,1586.3832,1,0,right,1586.3843,1588.2982,1,0,right,1,1588.2983,1588.2983,1588.2992,1589.797,0,1,1,1,1,0.2,0.8,0.4,0.6,,,,,,,,,,,,,,,2.706,,0.4,0.6,0.6,0.4,0.8,0.2,0.6,0.4,,,1.3867,,0.4,0.6,0.8,0.2,0.2,0.8,0.4,0.6,1,0
,,66aa651e21c9af8ebcd8081e,66fc9974b4165711b6f3b19c,2024-10-02_01h56.03.620,mdp,2024.2.1,Win32,59.88023952,66fa4ebf79326e780c390304,,,,,,,,,,,,,,,,,,,,,1589.7974,1589.7974,1589.7986,1593.9265,1,0,right,3.6034,,1593.9274,1599.4885,1,0,right,1599.4896,1603.5182,1,0,right,1,1603.5183,1603.5183,1603.5192,1605.0172,0,2,2,2,1,0.2,0.8,0.4,0.6,,,,,,,,,,,,,,,5.012,,0.4,0.6,0.6,0.4,0.8,0.2,0.6,0.4,,,3.4977,,0.4,0.6,0.8,0.2,0.2,0.8,0.4,0.6,1,0
,,66aa651e21c9af8ebcd8081e,66fc9974b4165711b6f3b19c,2024-10-02_01h56.03.620,mdp,2024.2.1,Win32,59.88023952,66fa4ebf79326e780c390304,,,,,,,,,,,,,,,,,,,,,1605.0176,1605.0176,1605.0184,1611.8613,1,1,right,6.3111,,1611.8623,1614.4089,1,0,right,1614.4097,1617.3062,1,0,right,1,1617.3063,1617.3063,1617.3074,1618.8049,0,3,3,3,1,0.2,0.8,0.4,0.6,,,,,,,,,,,,,,,1.9985,,0.4,0.6,0.6,0.4,0.8,0.2,0.6,0.4,,,2.3645,,0.4,0.6,0.8,0.2,0.2,0.8,0.4,0.6,1,0
,,66aa651e21c9af8ebcd8081e,66fc9974b4165711b6f3b19c,2024-10-02_01h56.03.620,mdp,2024.2.1,Win32,59.88023952,66fa4ebf79326e780c390304,,,,,,,,,,,,,,,,,,,,,1618.8053,1618.8054,1618.8061,1624.2836,1,0,right,4.9492,,1624.2849,1626.3652,1,0,right,1626.366,1629.9619,1,1,right,0,1629.962,1629.962,1629.9629,1631.461,0,4,4,4,1,0.2,0.8,0.4,0.6,,,,,,,,,,,,,,,1.5412,,0.4,0.6,0.6,0.4,0.8,0.2,0.6,0.4,,,3.0738,,0.4,0.6,0.8,0.2,0.2,0.8,0.4,0.6,1,0
,,66aa651e21c9af8ebcd8081e,66fc9974b4165711b6f3b19c,2024-10-02_01h56.03.620,mdp,2024.2.1,Win32,59.88023952,66fa4ebf79326e780c390304,,,,,,,,,,,,,,,,,,,,,1631.4615,1631.4615,1631.4624,1660.1193,1,0,right,28.1288,,1660.1203,1661.5845,1,0,right,1661.5856,1663.3328,1,0,right,1,1663.3329,1663.3329,1663.3339,1664.8317,0,5,5,5,1,0.2,0.8,0.4,0.6,,,,,,,,,,,,,,,0.9334,,0.4,0.6,0.6,0.4,0.8,0.2,0.6,0.4,,,1.2155,,0.4,0.6,0.8,0.2,0.8,0.2,0.2,0.8,1,0
,,66aa651e21c9af8ebcd8081e,66fc9974b4165711b6f3b19c,2024-10-02_01h56.03.620,mdp,2024.2.1,Win32,59.88023952,66fa4ebf79326e780c390304,,,,,,,,,,,,,,,,,,,,,1664.8322,1664.8322,1664.833,1669.7773,1,0,right,4.4178,,1669.7782,1672.6583,1,1,right,1672.6592,1678.4531,1,0,right,1,1678.4532,1678.4532,1678.4541,1679.9518,0,6,6,6,1,0.2,0.8,0.4,0.6,,,,,,,,,,,,,,,2.3482,,0.4,0.6,0.6,0.4,0.8,0.2,0.6,0.4,,,5.2459,,0.4,0.6,0.8,0.2,0.8,0.2,0.2,0.8,1,0
,,66aa651e21c9af8ebcd8081e,66fc9974b4165711b6f3b19c,2024-10-02_01h56.03.620,mdp,2024.2.1,Win32,59.88023952,66fa4ebf79326e780c390304,,,,,,,,,,,,,,,,,,,,,1679.9523,1679.9523,1679.953,1686.0963,1,0,right,5.6208,,1686.0974,1687.4784,1,1,right,1687.4796,1692.0744,1,1,right,0,1692.0745,1692.0745,1692.0754,1693.5733,0,7,7,7,1,0.2,0.8,0.4,0.6,,,,,,,,,,,,,,,0.8589,,0.4,0.6,0.6,0.4,0.8,0.2,0.6,0.4,,,4.073,,0.4,0.6,0.8,0.2,0.8,0.2,0.2,0.8,1,0
,,66aa651e21c9af8ebcd8081e,66fc9974b4165711b6f3b19c,2024-10-02_01h56.03.620,mdp,2024.2.1,Win32,59.88023952,66fa4ebf79326e780c390304,,,,,,,,,,,,,,,,,,,,,1693.5738,1693.5739,1693.5752,1703.0316,1,1,right,8.9278,,1703.0327,1706.4952,1,0,right,1706.4962,1708.0605,1,0,right,1,1708.0607,1708.0607,1708.0617,1709.5594,0,8,8,8,1,0.2,0.8,0.4,0.6,,,,,,,,,,,,,,,2.9164,,0.4,0.6,0.6,0.4,0.8,0.2,0.6,0.4,,,1.0222,,0.4,0.6,0.8,0.2,0.8,0.2,0.2,0.8,1,0
,,66aa651e21c9af8ebcd8081e,66fc9974b4165711b6f3b19c,2024-10-02_01h56.03.620,mdp,2024.2.1,Win32,59.88023952,66fa4ebf79326e780c390304,,,,,,,,,,,,,,,,,,,,,1709.5599,1709.5599,1709.5608,1711.0081,1,1,right,0.9232,,1711.0089,1713.3058,1,0,right,1713.307,1714.9878,1,0,right,1,1714.9879,1714.9879,1714.9889,1716.4863,0,9,9,9,1,0.2,0.8,0.4,0.6,,,,,,,,,,,,,,,1.7648,,0.4,0.6,0.6,0.4,0.8,0.2,0.6,0.4,,,1.1582,,0.4,0.6,0.8,0.2,0.8,0.2,0.2,0.8,1,0
,,66aa651e21c9af8ebcd8081e,66fc9974b4165711b6f3b19c,2024-10-02_01h56.03.620,mdp,2024.2.1,Win32,59.88023952,66fa4ebf79326e780c390304,,,,,,,,,,,,,,,,,,,,,1716.4868,1716.4868,1716.4876,1717.5857,1,0,right,0.5668,,1717.5868,1719.8671,1,1,right,1719.8681,1744.9952,1,1,right,0,1744.9953,1744.9953,1744.9963,1746.4937,0,10,10,10,1,0.2,0.8,0.4,0.6,,,,,,,,,,,,,,,1.7389,,0.2,0.8,0.4,0.6,0.8,0.2,0.6,0.4,,,24.5881,,0.4,0.6,0.8,0.2,0.8,0.2,0.2,0.8,1,0
,,66aa651e21c9af8ebcd8081e,66fc9974b4165711b6f3b19c,2024-10-02_01h56.03.620,mdp,2024.2.1,Win32,59.88023952,66fa4ebf79326e780c390304,,,,,,,,,,,,,,,,,,,,,1746.4943,1746.4943,1746.4951,1757.1678,1,1,right,10.1443,,1757.1688,1758.6666,1,0,right,1758.6677,1760.0986,1,0,right,1,1760.0987,1760.0987,1760.0995,1761.5973,0,11,11,11,1,0.4,0.6,0.2,0.8,,,,,,,,,,,,,,,0.9497,,0.2,0.8,0.4,0.6,0.8,0.2,0.6,0.4,,,0.8867,,0.4,0.6,0.8,0.2,0.8,0.2,0.2,0.8,1,0
,,66aa651e21c9af8ebcd8081e,66fc9974b4165711b6f3b19c,2024-10-02_01h56.03.620,mdp,2024.2.1,Win32,59.88023952,66fa4ebf79326e780c390304,,,,,,,,,,,,,,,,,,,,,1761.5977,1761.5977,1761.5985,1762.8796,1,1,right,0.7542,,1762.8804,1763.8784,1,1,right,1763.8791,1776.551,1,1,right,0,1776.5511,1776.5511,1776.5521,1778.0496,0,12,12,12,1,0.4,0.6,0.2,0.8,,,,,,,,,,,,,,,0.4658,,0.4,0.6,0.6,0.4,0.8,0.2,0.6,0.4,,,12.1313,,0.4,0.6,0.8,0.2,0.8,0.2,0.2,0.8,1,0
,,66aa651e21c9af8ebcd8081e,66fc9974b4165711b6f3b19c,2024-10-02_01h56.03.620,mdp,2024.2.1,Win32,59.88023952,66fa4ebf79326e780c390304,,,,,,,,,,,,,,,,,,,,,1778.05,1778.05,1778.0509,1782.8288,1,1,right,4.2475,,1782.8298,1784.2108,1,0,right,1784.2117,1785.593,1,1,right,0,1785.593,1785.593,1785.5941,1787.0919,0,13,13,13,1,0.4,0.6,0.2,0.8,,,,,,,,,,,,,,,0.8502,,0.4,0.6,0.6,0.4,0.8,0.2,0.6,0.4,,,0.8383,,0.4,0.6,0.8,0.2,0.8,0.2,0.2,0.8,1,0
,,66aa651e21c9af8ebcd8081e,66fc9974b4165711b6f3b19c,2024-10-02_01h56.03.620,mdp,2024.2.1,Win32,59.88023952,66fa4ebf79326e780c390304,,,,,,,,,,,,,,,,,,,,,1787.0923,1787.0923,1787.0931,1799.1146,1,1,right,11.49,,1799.1162,1800.68,1,1,right,1800.6812,1813.8019,0,0,left,1,1813.8019,1813.802,1813.8031,1815.3006,0,14,14,14,1,0.4,0.6,0.2,0.8,,,,,,,,,,,,,,,1.0332,,0.4,0.6,0.6,0.4,0.8,0.2,0.6,0.4,,,12.5747,,0.4,0.6,0.8,0.2,0.8,0.2,0.2,0.8,1,0
,,66aa651e21c9af8ebcd8081e,66fc9974b4165711b6f3b19c,2024-10-02_01h56.03.620,mdp,2024.2.1,Win32,59.88023952,66fa4ebf79326e780c390304,,,,,,,,,,,,,,,,,,,,,1815.301,1815.3011,1815.3019,1821.5285,1,1,right,5.6996,,1821.5296,1823.3601,1,1,right,1823.3615,1827.107,0,0,left,1,1827.1071,1827.1071,1827.108,1828.6056,0,15,15,15,1,0.4,0.6,0.2,0.8,,,,,,,,,,,,,,,1.2994,,0.4,0.6,0.6,0.4,0.8,0.2,0.6,0.4,,,3.2154,,0.4,0.6,0.8,0.2,0.8,0.2,0.2,0.8,1,0
,,66aa651e21c9af8ebcd8081e,66fc9974b4165711b6f3b19c,2024-10-02_01h56.03.620,mdp,2024.2.1,Win32,59.88023952,66fa4ebf79326e780c390304,,,,,,,,,,,,,,,,,,,,,1828.606,1828.606,1828.607,1831.7364,1,0,right,2.6016,,1831.7373,1835.8326,1,1,right,1835.8336,1838.4971,0,0,left,1,1838.4971,1838.4971,1838.4981,1839.9957,0,16,16,16,1,0.4,0.6,0.2,0.8,,,,,,,,,,,,,,,3.5478,,0.4,0.6,0.6,0.4,0.8,0.2,0.6,0.4,,,2.1315,,0.4,0.6,0.8,0.2,0.8,0.2,0.2,0.8,1,0
,,66aa651e21c9af8ebcd8081e,66fc9974b4165711b6f3b19c,2024-10-02_01h56.03.620,mdp,2024.2.1,Win32,59.88023952,66fa4ebf79326e780c390304,,,,,,,,,,,,,,,,,,,,,1839.9961,1839.9961,1839.9968,1848.3882,1,1,right,7.8695,,1848.3894,1851.3026,1,0,right,1851.3038,1853.7006,1,0,right,1,1853.7006,1853.7006,1853.7014,1855.1992,0,17,17,17,1,0.4,0.6,0.2,0.8,,,,,,,,,,,,,,,2.3677,,0.4,0.6,0.6,0.4,0.8,0.2,0.6,0.4,,,1.8489,,0.4,0.6,0.8,0.2,0.8,0.2,0.2,0.8,1,0
,,66aa651e21c9af8ebcd8081e,66fc9974b4165711b6f3b19c,2024-10-02_01h56.03.620,mdp,2024.2.1,Win32,59.88023952,66fa4ebf79326e780c390304,,,,,,,,,,,,,,,,,,,,,1855.1996,1855.1996,1855.2004,1856.548,1,1,right,0.8174,,1856.549,1857.9468,1,0,right,1857.9478,1859.6451,1,0,right,1,1859.6453,1859.6453,1859.6466,1861.1438,0,18,18,18,1,0.4,0.6,0.2,0.8,,,,,,,,,,,,,,,0.8672,,0.4,0.6,0.6,0.4,0.8,0.2,0.6,0.4,,,1.1718,,0.4,0.6,0.8,0.2,0.8,0.2,0.2,0.8,1,0
,,66aa651e21c9af8ebcd8081e,66fc9974b4165711b6f3b19c,2024-10-02_01h56.03.620,mdp,2024.2.1,Win32,59.88023952,66fa4ebf79326e780c390304,,,,,,,,,,,,,,,,,,,,,1861.1443,1861.1443,1861.1451,1862.5259,1,1,right,0.8548,,1862.5268,1864.7907,1,1,right,1864.7917,1867.8048,0,0,left,1,1867.8048,1867.8048,1867.8057,1869.3036,0,19,19,19,1,0.4,0.6,0.2,0.8,,,,,,,,,,,,,,,1.7321,,0.2,0.8,0.4,0.6,0.8,0.2,0.6,0.4,,,2.4724,,0.4,0.6,0.8,0.2,0.8,0.2,0.2,0.8,1,0
,,66aa651e21c9af8ebcd8081e,66fc9974b4165711b6f3b19c,2024-10-02_01h56.03.620,mdp,2024.2.1,Win32,59.88023952,66fa4ebf79326e780c390304,,,,,,,,,,,,,,,,,,,,,1869.3041,1869.3041,1869.3053,1880.8434,1,1,right,11.0162,,1880.8444,1882.2154,1,1,right,1882.2164,1884.3072,0,0,left,1,1884.3072,1884.3072,1884.3081,1885.806,0,20,20,20,1,0.4,0.6,0.2,0.8,,,,,,,,,,,,,,,0.8491,,0.2,0.8,0.4,0.6,0.8,0.2,0.6,0.4,,,1.5668,,0.4,0.6,0.8,0.2,0.8,0.2,0.2,0.8,1,0
,,66aa651e21c9af8ebcd8081e,66fc9974b4165711b6f3b19c,2024-10-02_01h56.03.620,mdp,2024.2.1,Win32,59.88023952,66fa4ebf79326e780c390304,,,,,,,,,,,,,,,,,,,,,1885.8065,1885.8065,1885.8075,1888.6367,1,1,right,2.2996,,1888.6376,1890.3184,1,1,right,1890.3195,1892.2833,0,1,left,0,1892.2833,1892.2833,1892.2844,1893.7823,0,21,21,21,1,0.4,0.6,0.2,0.8,,,,,,,,,,,,,,,1.151,,0.2,0.8,0.4,0.6,0.8,0.2,0.6,0.4,,,1.4317,,0.4,0.6,0.8,0.2,0.8,0.2,0.2,0.8,1,0
,,66aa651e21c9af8ebcd8081e,66fc9974b4165711b6f3b19c,2024-10-02_01h56.03.620,mdp,2024.2.1,Win32,59.88023952,66fa4ebf79326e780c390304,,,,,,,,,,,,,,,,,,,,,1893.7828,1893.7828,1893.7836,1899.5771,1,1,right,5.263,,1899.578,1901.0256,1,1,right,1901.0268,1902.9574,1,1,right,0,1902.9576,1902.9576,1902.9585,1904.4561,0,22,22,22,1,0.4,0.6,0.2,0.8,,,,,,,,,,,,,,,0.9166,,0.2,0.8,0.4,0.6,0.8,0.2,0.6,0.4,,,1.3991,,0.4,0.6,0.8,0.2,0.8,0.2,0.2,0.8,1,0
,,66aa651e21c9af8ebcd8081e,66fc9974b4165711b6f3b19c,2024-10-02_01h56.03.620,mdp,2024.2.1,Win32,59.88023952,66fa4ebf79326e780c390304,,,,,,,,,,,,,,,,,,,,,1904.4566,1904.4566,1904.4575,1906.088,1,1,right,1.1086,,1906.0888,1907.0706,1,0,right,1907.0716,1909.8014,1,0,right,1,1909.8016,1909.8016,1909.8025,1911.3002,0,23,23,23,1,0.4,0.6,0.2,0.8,,,,,,,,,,,,,,,0.4557,,0.2,0.8,0.4,0.6,0.8,0.2,0.6,0.4,,,2.185,,0.4,0.6,0.8,0.2,0.8,0.2,0.2,0.8,1,0
,,66aa651e21c9af8ebcd8081e,66fc9974b4165711b6f3b19c,2024-10-02_01h56.03.620,mdp,2024.2.1,Win32,59.88023952,66fa4ebf79326e780c390304,,,,,,,,,,,,,,,,,,,,,1911.3007,1911.3007,1911.3016,1912.6656,1,1,right,0.8368,,1912.6665,1913.7314,1,0,right,1913.7323,1915.0969,1,1,right,0,1915.097,1915.097,1915.0978,1916.5955,0,24,24,24,1,0.4,0.6,0.2,0.8,,,,,,,,,,,,,,,0.536,,0.2,0.8,0.4,0.6,0.8,0.2,0.6,0.4,,,0.8361,,0.4,0.6,0.8,0.2,0.8,0.2,0.2,0.8,1,0
,,66aa651e21c9af8ebcd8081e,66fc9974b4165711b6f3b19c,2024-10-02_01h56.03.620,mdp,2024.2.1,Win32,59.88023952,66fa4ebf79326e780c390304,,,,,,,,,,,,,,,,,,,,,1916.5958,1916.5958,1916.5969,1926.0708,1,1,right,8.9438,,1926.0717,1928.4686,1,1,right,1928.4697,1930.5835,0,0,left,1,1930.5835,1930.5835,1930.5847,1932.082,0,25,25,25,1,0.4,0.6,0.2,0.8,,,,,,,,,,,,,,,1.8741,,0.2,0.8,0.4,0.6,0.8,0.2,0.6,0.4,,,1.5663,,0.4,0.6,0.8,0.2,0.8,0.2,0.2,0.8,1,0
,,66aa651e21c9af8ebcd8081e,66fc9974b4165711b6f3b19c,2024-10-02_01h56.03.620,mdp,2024.2.1,Win32,59.88023952,66fa4ebf79326e780c390304,,,,,,,,,,,,,,,,,,,,,1932.0825,1932.0825,1932.0833,1933.9473,1,1,right,1.3384,,1933.9482,1935.296,1,1,right,1935.2969,1938.2433,0,0,left,1,1938.2434,1938.2434,1938.2446,1939.742,0,26,26,26,1,0.4,0.6,0.2,0.8,,,,,,,,,,,,,,,0.8192,,0.2,0.8,0.4,0.6,0.8,0.2,0.6,0.4,,,2.4149,,0.4,0.6,0.8,0.2,0.8,0.2,0.2,0.8,1,0
,,66aa651e21c9af8ebcd8081e,66fc9974b4165711b6f3b19c,2024-10-02_01h56.03.620,mdp,2024.2.1,Win32,59.88023952,66fa4ebf79326e780c390304,,,,,,,,,,,,,,,,,,,,,1939.7425,1939.7425,1939.7433,1942.6063,1,1,right,2.3316,,1942.6072,1945.054,1,0,right,1945.0549,1947.8182,1,0,right,1,1947.8183,1947.8183,1947.8191,1949.3173,0,27,27,27,1,0.4,0.6,0.2,0.8,,,,,,,,,,,,,,,1.9232,,0.2,0.8,0.4,0.6,0.8,0.2,0.6,0.4,,,2.2159,,0.4,0.6,0.8,0.2,0.8,0.2,0.2,0.8,1,0
,,66aa651e21c9af8ebcd8081e,66fc9974b4165711b6f3b19c,2024-10-02_01h56.03.620,mdp,2024.2.1,Win32,59.88023952,66fa4ebf79326e780c390304,,,,,,,,,,,,,,,,,,,,,1949.3177,1949.3177,1949.3186,1950.4161,1,1,right,0.5749,,1950.417,1952.3811,1,0,right,1952.3822,1954.0962,1,1,right,0,1954.0963,1954.0963,1954.0972,1955.595,0,28,28,28,1,0.4,0.6,0.2,0.8,,,,,,,,,,,,,,,1.4379,,0.2,0.8,0.4,0.6,0.8,0.2,0.6,0.4,,,1.1837,,0.4,0.6,0.8,0.2,0.8,0.2,0.2,0.8,1,0
,,66aa651e21c9af8ebcd8081e,66fc9974b4165711b6f3b19c,2024-10-02_01h56.03.620,mdp,2024.2.1,Win32,59.88023952,66fa4ebf79326e780c390304,,,,,,,,,,,,,,,,,,,,,1955.5954,1955.5954,1955.5962,1960.4574,1,1,right,4.3294,,1960.4583,1962.9216,1,1,right,1962.9228,1965.7698,0,1,left,0,1965.7698,1965.7698,1965.7706,1967.2684,0,29,29,29,1,0.4,0.6,0.2,0.8,,,,,,,,,,,,,,,1.9321,,0.2,0.8,0.4,0.6,0.8,0.2,0.6,0.4,,,2.2989,,0.4,0.6,0.8,0.2,0.8,0.2,0.2,0.8,1,0
,,66aa651e21c9af8ebcd8081e,66fc9974b4165711b6f3b19c,2024-10-02_01h56.03.620,mdp,2024.2.1,Win32,59.88023952,66fa4ebf79326e780c390304,,,,,,,,,,,,,,,,,,,,,1967.2688,1967.2688,1967.2696,1971.9806,1,1,right,4.1871,,1971.9816,1979.5577,1,0,right,1979.5588,1980.6063,1,0,right,1,1980.6063,1980.6063,1980.6073,1982.1055,0,30,30,30,1,0.4,0.6,0.2,0.8,,,,,,,,,,,,,,,7.0446,,0.2,0.8,0.4,0.6,0.2,0.8,0.8,0.2,,,0.5071,,0.4,0.6,0.8,0.2,0.8,0.2,0.2,0.8,1,0
,,66aa651e21c9af8ebcd8081e,66fc9974b4165711b6f3b19c,2024-10-02_01h56.03.620,mdp,2024.2.1,Win32,59.88023952,66fa4ebf79326e780c390304,,,,,,,,,,,,,,,,,,,,,1982.1061,1982.1061,1982.107,1984.1035,1,1,right,1.4717,,1984.1046,1985.5023,1,0,right,1985.5031,1986.4186,1,0,right,1,1986.4187,1986.4187,1986.4198,1987.9168,0,31,31,31,1,0.4,0.6,0.2,0.8,,,,,,,,,,,,,,,0.8668,,0.2,0.8,0.4,0.6,0.2,0.8,0.8,0.2,,,0.399,,0.4,0.6,0.8,0.2,0.8,0.2,0.2,0.8,1,0
,,66aa651e21c9af8ebcd8081e,66fc9974b4165711b6f3b19c,2024-10-02_01h56.03.620,mdp,2024.2.1,Win32,59.88023952,66fa4ebf79326e780c390304,,,,,,,,,,,,,,,,,,,,,1987.9173,1987.9173,1987.9184,1992.0299,1,1,right,3.5853,,1992.0307,1993.063,1,0,right,1993.0641,1994.611,1,0,right,1,1994.6111,1994.6111,1994.6119,1996.1097,0,32,32,32,1,0.4,0.6,0.2,0.8,,,,,,,,,,,,,,,0.5003,,0.2,0.8,0.4,0.6,0.2,0.8,0.8,0.2,,,1.0256,,0.4,0.6,0.8,0.2,0.8,0.2,0.2,0.8,1,0
,,66aa651e21c9af8ebcd8081e,66fc9974b4165711b6f3b19c,2024-10-02_01h56.03.620,mdp,2024.2.1,Win32,59.88023952,66fa4ebf79326e780c390304,,,,,,,,,,,,,,,,,,,,,1996.1102,1996.1102,1996.1112,1998.4407,1,1,right,1.8061,,1998.4416,1999.5233,1,0,right,1999.5244,2000.9886,1,0,right,1,2000.9887,2000.9887,2000.9896,2002.4878,0,33,33,33,1,0.8,0.2,0.4,0.6,,,,,,,,,,,,,,,0.5565,,0.2,0.8,0.4,0.6,0.2,0.8,0.8,0.2,,,0.9335,,0.4,0.6,0.8,0.2,0.8,0.2,0.2,0.8,1,0
,,66aa651e21c9af8ebcd8081e,66fc9974b4165711b6f3b19c,2024-10-02_01h56.03.620,mdp,2024.2.1,Win32,59.88023952,66fa4ebf79326e780c390304,,,,,,,,,,,,,,,,,,,,,2002.4882,2002.4882,2002.4892,2003.0201,1,0,right,0.0009,,2003.0212,2012.3625,1,0,right,2012.3634,2014.0942,1,0,right,1,2014.0943,2014.0943,2014.0952,2015.5934,0,34,34,34,1,0.8,0.2,0.4,0.6,,,,,,,,,,,,,,,8.801,,0.2,0.8,0.4,0.6,0.2,0.8,0.8,0.2,,,1.2015,,0.4,0.6,0.8,0.2,0.8,0.2,0.2,0.8,1,0
,,66aa651e21c9af8ebcd8081e,66fc9974b4165711b6f3b19c,2024-10-02_01h56.03.620,mdp,2024.2.1,Win32,59.88023952,66fa4ebf79326e780c390304,,,,,,,,,,,,,,,,,,,,,2015.5939,2015.5939,2015.5952,2021.371,1,0,right,5.2524,,2021.372,2028.8313,0,1,left,2028.8324,2033.5104,0,0,left,1,2033.5104,2033.5104,2033.5114,2035.0091,0,35,35,35,1,0.8,0.2,0.4,0.6,,,,,,,,,,,,,,,6.9295,,0.2,0.8,0.4,0.6,0.2,0.8,0.8,0.2,,,4.131,,0.4,0.6,0.8,0.2,0.8,0.2,0.2,0.8,1,0
,,66aa651e21c9af8ebcd8081e,66fc9974b4165711b6f3b19c,2024-10-02_01h56.03.620,mdp,2024.2.1,Win32,59.88023952,66fa4ebf79326e780c390304,,,,,,,,,,,,,,,,,,,,,2035.0096,2035.0096,2035.0104,2038.9886,1,0,right,3.4518,,2038.9895,2042.4193,0,0,left,2042.4206,2046.5987,1,1,right,0,2046.5988,2046.5988,2046.5998,2048.0977,0,36,36,36,1,0.8,0.2,0.4,0.6,,,,,,,,,,,,,,,2.8977,,0.2,0.8,0.4,0.6,0.2,0.8,0.8,0.2,,,3.6306,,0.4,0.6,0.8,0.2,0.8,0.2,0.2,0.8,1,0
,,66aa651e21c9af8ebcd8081e,66fc9974b4165711b6f3b19c,2024-10-02_01h56.03.620,mdp,2024.2.1,Win32,59.88023952,66fa4ebf79326e780c390304,,,,,,,,,,,,,,,,,,,,,2048.0981,2048.0981,2048.0989,2050.4955,0,0,left,1.8707,,2050.4964,2051.9277,0,1,left,2051.9287,2055.6245,1,1,right,0,2055.6246,2055.6246,2055.6255,2057.1234,0,37,37,37,1,0.8,0.2,0.4,0.6,,,,,,,,,,,,,,,0.9044,,0.2,0.8,0.4,0.6,0.2,0.8,0.8,0.2,,,3.1477,,0.4,0.6,0.8,0.2,0.8,0.2,0.2,0.8,1,0
,,66aa651e21c9af8ebcd8081e,66fc9974b4165711b6f3b19c,2024-10-02_01h56.03.620,mdp,2024.2.1,Win32,59.88023952,66fa4ebf79326e780c390304,,,,,,,,,,,,,,,,,,,,,2057.1239,2057.1239,2057.1248,2057.706,0,0,left,0.0569,,2057.7069,2058.9048,0,0,left,2058.9057,2061.7855,0,0,left,1,2061.7855,2061.7855,2061.7864,2063.2844,0,38,38,38,1,0.8,0.2,0.4,0.6,,,,,,,,,,,,,,,0.6845,,0.2,0.8,0.4,0.6,0.2,0.8,0.8,0.2,,,2.3317,,0.4,0.6,0.8,0.2,0.8,0.2,0.2,0.8,1,0
,,66aa651e21c9af8ebcd8081e,66fc9974b4165711b6f3b19c,2024-10-02_01h56.03.620,mdp,2024.2.1,Win32,59.88023952,66fa4ebf79326e780c390304,,,,,,,,,,,,,,,,,,,,,2063.285,2063.285,2063.286,2064.2502,0,0,left,0.4334,,2064.2514,2066.7148,0,1,left,2066.7159,2068.8462,1,0,right,1,2068.8463,2068.8463,2068.8472,2070.3446,0,39,39,39,1,0.8,0.2,0.4,0.6,,,,,,,,,,,,,,,1.9343,,0.2,0.8,0.4,0.6,0.2,0.8,0.8,0.2,,,1.5824,,0.4,0.6,0.8,0.2,0.8,0.2,0.2,0.8,1,0
,,66aa651e21c9af8ebcd8081e,66fc9974b4165711b6f3b19c,2024-10-02_01h56.03.620,mdp,2024.2.1,Win32,59.88023952,66fa4ebf79326e780c390304,,,,,,,,,,,,,,,,,,,,,2070.345,2070.345,2070.3459,2071.2609,0,1,left,0.3846,,2071.2617,2073.3256,0,0,left,2073.3266,2074.8909,0,1,left,0,2074.891,2074.891,2074.8919,2076.3894,0,40,40,40,1,0.2,0.8,0.2,0.8,,,,,,,,,,,,,,,1.5153,,0.2,0.8,0.4,0.6,0.2,0.8,0.8,0.2,,,1.0162,,0.4,0.6,0.8,0.2,0.8,0.2,0.2,0.8,1,0
,,66aa651e21c9af8ebcd8081e,66fc9974b4165711b6f3b19c,2024-10-02_01h56.03.620,mdp,2024.2.1,Win32,59.88023952,66fa4ebf79326e780c390304,,,,,,,,,,,,,,,,,,,,,2076.3897,2076.3897,2076.3905,2078.3544,0,0,left,1.4351,,2078.3555,2080.6526,0,1,left,2080.6535,2083.1836,1,1,right,0,2083.1838,2083.1838,2083.1847,2084.6824,0,41,41,41,1,0.4,0.6,0.4,0.6,,,,,,,,,,,,,,,1.7575,,0.2,0.8,0.4,0.6,0.2,0.8,0.8,0.2,,,1.9915,,0.4,0.6,0.8,0.2,0.8,0.2,0.2,0.8,1,0
,,66aa651e21c9af8ebcd8081e,66fc9974b4165711b6f3b19c,2024-10-02_01h56.03.620,mdp,2024.2.1,Win32,59.88023952,66fa4ebf79326e780c390304,,,,,,,,,,,,,,,,,,,,,2084.6827,2084.6827,2084.6837,2085.4153,0,1,left,0.2008,,2085.4162,2086.7472,0,1,left,2086.7479,2090.0446,0,0,left,1,2090.0447,2090.0447,2090.0456,2091.5429,0,42,42,42,1,0.4,0.6,0.4,0.6,,,,,,,,,,,,,,,0.7832,,0.2,0.8,0.4,0.6,0.2,0.8,0.8,0.2,,,2.7707,,0.4,0.6,0.8,0.2,0.8,0.2,0.2,0.8,1,0
,,66aa651e21c9af8ebcd8081e,66fc9974b4165711b6f3b19c,2024-10-02_01h56.03.620,mdp,2024.2.1,Win32,59.88023952,66fa4ebf79326e780c390304,,,,,,,,,,,,,,,,,,,,,2091.5434,2091.5434,2091.5443,2092.3925,0,1,left,0.3175,,2092.3934,2093.3248,0,1,left,2093.3259,2094.5569,0,0,left,1,2094.557,2094.557,2094.5579,2096.0557,0,43,43,43,1,0.4,0.6,0.4,0.6,,,,,,,,,,,,,,,0.3998,,0.2,0.8,0.4,0.6,0.2,0.8,0.8,0.2,,,0.7,,0.4,0.6,0.8,0.2,0.8,0.2,0.2,0.8,1,0
,,66aa651e21c9af8ebcd8081e,66fc9974b4165711b6f3b19c,2024-10-02_01h56.03.620,mdp,2024.2.1,Win32,59.88023952,66fa4ebf79326e780c390304,,,,,,,,,,,,,,,,,,,,,2096.0562,2096.0562,2096.0571,2096.955,0,1,left,0.3671,,2096.956,2097.7711,0,1,left,2097.7722,2098.4763,0,0,left,1,2098.4764,2098.4764,2098.4771,2099.969,0,44,44,44,1,0.4,0.6,0.4,0.6,,,,,,,,,,,,,,,0.2839,,0.2,0.8,0.4,0.6,0.2,0.8,0.8,0.2,,,0.183,,0.4,0.6,0.8,0.2,0.8,0.2,0.2,0.8,1,0
,,66aa651e21c9af8ebcd8081e,66fc9974b4165711b6f3b19c,2024-10-02_01h56.03.620,mdp,2024.2.1,Win32,59.88023952,66fa4ebf79326e780c390304,,,,,,,,,,,,,,,,,,,,,2099.9695,2099.9695,2099.9703,2100.9351,0,1,left,0.4333,,2100.936,2101.6343,0,1,left,2101.6354,2102.3504,0,0,left,1,2102.3504,2102.3504,2102.3513,2103.849,0,45,45,45,1,0.4,0.6,0.4,0.6,,,,,,,,,,,,,,,0.1765,,0.2,0.8,0.4,0.6,0.2,0.8,0.8,0.2,,,0.188,,0.4,0.6,0.8,0.2,0.8,0.2,0.2,0.8,1,0
,,66aa651e21c9af8ebcd8081e,66fc9974b4165711b6f3b19c,2024-10-02_01h56.03.620,mdp,2024.2.1,Win32,59.88023952,66fa4ebf79326e780c390304,,,,,,,,,,,,,,,,,,,,,2103.8495,2103.8495,2103.8503,2104.8482,0,0,left,0.4673,,2104.8491,2105.5476,0,1,left,2105.5485,2106.2136,0,0,left,1,2106.2136,2106.2137,2106.2148,2107.7124,0,46,46,46,1,0.4,0.6,0.4,0.6,,,,,,,,,,,,,,,0.1502,,0.2,0.8,0.4,0.6,0.2,0.8,0.8,0.2,,,0.1335,,0.4,0.6,0.8,0.2,0.8,0.2,0.2,0.8,1,0
,,66aa651e21c9af8ebcd8081e,66fc9974b4165711b6f3b19c,2024-10-02_01h56.03.620,mdp,2024.2.1,Win32,59.88023952,66fa4ebf79326e780c390304,,,,,,,,,,,,,,,,,,,,,2107.7128,2107.7128,2107.7138,2108.5784,0,1,left,0.3425,,2108.5793,2109.3274,0,1,left,2109.3283,2109.977,0,0,left,1,2109.977,2109.977,2109.9779,2111.4757,0,47,47,47,1,0.4,0.6,0.4,0.6,,,,,,,,,,,,,,,0.2012,,0.2,0.8,0.4,0.6,0.2,0.8,0.8,0.2,,,0.1075,,0.4,0.6,0.8,0.2,0.8,0.2,0.2,0.8,1,0
,,66aa651e21c9af8ebcd8081e,66fc9974b4165711b6f3b19c,2024-10-02_01h56.03.620,mdp,2024.2.1,Win32,59.88023952,66fa4ebf79326e780c390304,,,,,,,,,,,,,,,,,,,,,2111.4761,2111.4761,2111.4769,2112.3081,0,0,left,0.3059,,2112.309,2113.0742,0,0,left,2113.0751,2113.9963,0,1,left,0,2113.9964,2113.9964,2113.9972,2115.4886,0,48,48,48,1,0.4,0.6,0.4,0.6,,,,,,,,,,,,,,,0.2254,,0.2,0.8,0.4,0.6,0.2,0.8,0.8,0.2,,,0.383,,0.4,0.6,0.8,0.2,0.8,0.2,0.2,0.8,1,0
,,66aa651e21c9af8ebcd8081e,66fc9974b4165711b6f3b19c,2024-10-02_01h56.03.620,mdp,2024.2.1,Win32,59.88023952,66fa4ebf79326e780c390304,,,,,,,,,,,,,,,,,,,,,2115.489,2115.489,2115.49,2116.3219,0,1,left,0.3006,,2116.3229,2117.5203,0,1,left,2117.5214,2120.2347,0,0,left,1,2120.2348,2120.2348,2120.2358,2121.7335,0,49,49,49,1,0.4,0.6,0.4,0.6,,,,,,,,,,,,,,,0.6523,,0.2,0.8,0.4,0.6,0.2,0.8,0.8,0.2,,,2.1652,,0.4,0.6,0.8,0.2,0.8,0.2,0.2,0.8,1,0
,,66aa651e21c9af8ebcd8081e,66fc9974b4165711b6f3b19c,2024-10-02_01h56.03.620,mdp,2024.2.1,Win32,59.88023952,66fa4ebf79326e780c390304,,,,,,,,,,,,,,,,,,,,,,,,,,,,,,,,,,,,,,,,,,,,,,,,,,,,,,,,2121.7338,2180.2492,0,3,3,3,1,imgs/dog.png,imgs/pig.png,imgs/cat.png,imgs/squirrel.png,imgs/goat.png,,,,,,,,,,,,,,,,,,,,,,,,
,,66aa651e21c9af8ebcd8081e,66fc9974b4165711b6f3b19c,2024-10-02_01h56.03.620,mdp,2024.2.1,Win32,59.88023952,66fa4ebf79326e780c390304,,,,,,,,,,,,,,1,seqs/st1seq29.csv,2180.2503,2182.2307,space,1.4488,,2182.2345,2182.2345,2182.2352,2188.6418,1,1,right,5.863,,2188.6428,2188.644,0,0,,2188.6447,2188.6453,0,0,,0,2188.6453,2188.6453,2188.6457,2190.1405,0,0,0,0,1,0.4,0.6,0.6,0.4,1,0,,,,,,,,,,,,,,,,,,,,,,,,,,,,,,,,,,,,
,,66aa651e21c9af8ebcd8081e,66fc9974b4165711b6f3b19c,2024-10-02_01h56.03.620,mdp,2024.2.1,Win32,59.88023952,66fa4ebf79326e780c390304,,,,,,,,,,,,,,,,,,,,,2190.1409,2190.141,2190.1418,2198.8997,0,1,left,8.231,,2198.9007,2198.9015,0,1,,2198.9023,2198.9027,0,0,,0,2198.9027,2198.9027,2198.903,2200.3981,0,1,1,1,1,0.4,0.6,0.6,0.4,1,0,,,,,,,,,,,,,,,,,,,,,,,,,,,,,,,,,,,,
,,66aa651e21c9af8ebcd8081e,66fc9974b4165711b6f3b19c,2024-10-02_01h56.03.620,mdp,2024.2.1,Win32,59.88023952,66fa4ebf79326e780c390304,,,,,,,,,,,,,,,,,,,,,2200.3986,2200.3986,2200.3994,2214.3527,1,0,right,13.4168,,2214.3538,2214.3545,0,0,,2214.3552,2214.3557,0,1,,1,2214.3557,2214.3557,2214.3561,2215.8514,0,2,2,2,1,0.4,0.6,0.6,0.4,1,0,,,,,,,,,,,,,,,,,,,,,,,,,,,,,,,,,,,,
,,66aa651e21c9af8ebcd8081e,66fc9974b4165711b6f3b19c,2024-10-02_01h56.03.620,mdp,2024.2.1,Win32,59.88023952,66fa4ebf79326e780c390304,,,,,,,,,,,,,,,,,,,,,2215.8518,2215.8518,2215.8526,2229.1233,1,0,right,12.7477,,2229.1243,2229.1251,0,1,,2229.1258,2229.1263,0,1,,1,2229.1264,2229.1264,2229.1268,2230.6217,0,3,3,3,1,0.2,0.8,0.8,0.2,1,0,,,,,,,,,,,,,,,,,,,,,,,,,,,,,,,,,,,,
,,66aa651e21c9af8ebcd8081e,66fc9974b4165711b6f3b19c,2024-10-02_01h56.03.620,mdp,2024.2.1,Win32,59.88023952,66fa4ebf79326e780c390304,,,,,,,,,,,,,,,,,,,,,2230.6223,2230.6223,2230.6232,2232.5596,1,1,right,1.4154,,2232.5607,2232.5612,0,0,,2232.5617,2232.5622,0,0,,0,2232.5622,2232.5622,2232.5626,2234.0523,0,4,4,4,1,0.2,0.8,0.8,0.2,1,0,,,,,,,,,,,,,,,,,,,,,,,,,,,,,,,,,,,,
,,66aa651e21c9af8ebcd8081e,66fc9974b4165711b6f3b19c,2024-10-02_01h56.03.620,mdp,2024.2.1,Win32,59.88023952,66fa4ebf79326e780c390304,,,,,,,,,,,,,,,,,,,,,2234.0528,2234.0528,2234.0536,2245.7253,1,1,right,11.1505,,2245.7264,2245.7272,0,0,,2245.7277,2245.7282,0,1,,0,2245.7283,2245.7283,2245.7286,2247.2239,0,5,5,5,1,0.6,0.4,0.2,0.8,1,0,,,,,,,,,,,,,,,,,,,,,,,,,,,,,,,,,,,,
,,66aa651e21c9af8ebcd8081e,66fc9974b4165711b6f3b19c,2024-10-02_01h56.03.620,mdp,2024.2.1,Win32,59.88023952,66fa4ebf79326e780c390304,,,,,,,,,,,,,,,,,,,,,2247.2244,2247.2244,2247.2255,2253.4188,1,0,right,5.6615,,2253.4197,2253.4204,0,1,,2253.421,2253.4215,0,1,,1,2253.4215,2253.4215,2253.4219,2254.9174,0,6,6,6,1,0.6,0.4,0.2,0.8,1,0,,,,,,,,,,,,,,,,,,,,,,,,,,,,,,,,,,,,
,,66aa651e21c9af8ebcd8081e,66fc9974b4165711b6f3b19c,2024-10-02_01h56.03.620,mdp,2024.2.1,Win32,59.88023952,66fa4ebf79326e780c390304,,,,,,,,,,,,,,,,,,,,,2254.9178,2254.9178,2254.9186,2261.0286,1,1,right,5.5857,,2261.0295,2261.0303,0,0,,2261.0308,2261.0315,0,1,,0,2261.0316,2261.0316,2261.032,2262.5274,0,7,7,7,1,0.6,0.4,0.2,0.8,1,0,,,,,,,,,,,,,,,,,,,,,,,,,,,,,,,,,,,,
,,66aa651e21c9af8ebcd8081e,66fc9974b4165711b6f3b19c,2024-10-02_01h56.03.620,mdp,2024.2.1,Win32,59.88023952,66fa4ebf79326e780c390304,,,,,,,,,,,,,,,,,,,,,2262.5276,2262.5276,2262.5286,2269.9211,1,0,right,6.8703,,2269.922,2269.9229,0,0,,2269.9235,2269.924,0,1,,1,2269.924,2269.9241,2269.9246,2271.4196,0,8,8,8,1,0.8,0.2,0.8,0.2,1,0,,,,,,,,,,,,,,,,,,,,,,,,,,,,,,,,,,,,
,,66aa651e21c9af8ebcd8081e,66fc9974b4165711b6f3b19c,2024-10-02_01h56.03.620,mdp,2024.2.1,Win32,59.88023952,66fa4ebf79326e780c390304,,,,,,,,,,,,,,,,,,,,,2271.42,2271.42,2271.4209,2276.4818,1,0,right,4.539,,2276.4828,2276.4836,0,0,,2276.4842,2276.4849,0,1,,1,2276.4849,2276.4849,2276.4853,2277.9808,0,9,9,9,1,0.6,0.4,0.4,0.6,1,0,,,,,,,,,,,,,,,,,,,,,,,,,,,,,,,,,,,,
,,66aa651e21c9af8ebcd8081e,66fc9974b4165711b6f3b19c,2024-10-02_01h56.03.620,mdp,2024.2.1,Win32,59.88023952,66fa4ebf79326e780c390304,,,,,,,,,,,,,,,,,,,,,2277.9812,2277.9812,2277.9819,2286.7562,1,0,right,8.2442,,2286.7573,2286.7582,0,0,,2286.7588,2286.7593,0,1,,1,2286.7593,2286.7593,2286.7596,2288.2553,0,10,10,10,1,0.2,0.8,0.8,0.2,1,0,,,,,,,,,,,,,,,,,,,,,,,,,,,,,,,,,,,,
,,66aa651e21c9af8ebcd8081e,66fc9974b4165711b6f3b19c,2024-10-02_01h56.03.620,mdp,2024.2.1,Win32,59.88023952,66fa4ebf79326e780c390304,,,,,,,,,,,,,,,,,,,,,2288.2558,2288.2558,2288.2567,2291.7521,0,1,left,2.9726,,2291.753,2291.7537,0,1,,2291.7543,2291.7549,0,1,,0,2291.7549,2291.7549,2291.7553,2293.2506,0,11,11,11,1,0.2,0.8,0.8,0.2,1,0,,,,,,,,,,,,,,,,,,,,,,,,,,,,,,,,,,,,
,,66aa651e21c9af8ebcd8081e,66fc9974b4165711b6f3b19c,2024-10-02_01h56.03.620,mdp,2024.2.1,Win32,59.88023952,66fa4ebf79326e780c390304,,,,,,,,,,,,,,,,,,,,,2293.2508,2293.2509,2293.2525,2308.504,1,0,right,14.7293,,2308.505,2308.506,0,0,,2308.5065,2308.5071,0,0,,1,2308.5073,2308.5073,2308.5076,2310.0029,0,12,12,12,1,0.2,0.8,0.8,0.2,1,0,,,,,,,,,,,,,,,,,,,,,,,,,,,,,,,,,,,,
,,66aa651e21c9af8ebcd8081e,66fc9974b4165711b6f3b19c,2024-10-02_01h56.03.620,mdp,2024.2.1,Win32,59.88023952,66fa4ebf79326e780c390304,,,,,,,,,,,,,,,,,,,,,2310.0033,2310.0033,2310.0045,2314.5655,1,0,right,4.0311,,2314.5665,2314.5671,0,1,,2314.5677,2314.5682,0,0,,1,2314.5682,2314.5682,2314.5685,2316.0642,0,13,13,13,1,0.2,0.8,0.8,0.2,1,0,,,,,,,,,,,,,,,,,,,,,,,,,,,,,,,,,,,,
,,66aa651e21c9af8ebcd8081e,66fc9974b4165711b6f3b19c,2024-10-02_01h56.03.620,mdp,2024.2.1,Win32,59.88023952,66fa4ebf79326e780c390304,,,,,,,,,,,,,,,,,,,,,2316.0645,2316.0645,2316.0653,2318.6618,1,0,right,2.0657,,2318.6627,2318.6633,0,0,,2318.6642,2318.6647,0,0,,1,2318.6647,2318.6647,2318.6651,2320.1604,0,14,14,14,1,0.8,0.2,0.6,0.4,1,0,,,,,,,,,,,,,,,,,,,,,,,,,,,,,,,,,,,,
,,66aa651e21c9af8ebcd8081e,66fc9974b4165711b6f3b19c,2024-10-02_01h56.03.620,mdp,2024.2.1,Win32,59.88023952,66fa4ebf79326e780c390304,,,,,,,,,,,,,,,,,,,,,2320.1607,2320.1607,2320.1616,2322.1754,1,1,right,1.4852,,2322.1764,2322.1773,0,0,,2322.1779,2322.1783,0,0,,0,2322.1783,2322.1783,2322.1786,2323.674,0,15,15,15,1,0.8,0.2,0.6,0.4,1,0,,,,,,,,,,,,,,,,,,,,,,,,,,,,,,,,,,,,
,,66aa651e21c9af8ebcd8081e,66fc9974b4165711b6f3b19c,2024-10-02_01h56.03.620,mdp,2024.2.1,Win32,59.88023952,66fa4ebf79326e780c390304,,,,,,,,,,,,,,,,,,,,,2323.6743,2323.6743,2323.6752,2342.4575,1,0,right,18.2526,,2342.4587,2342.4596,0,0,,2342.4603,2342.4608,0,0,,1,2342.4609,2342.4609,2342.4613,2343.9564,0,16,16,16,1,0.8,0.2,0.6,0.4,1,0,,,,,,,,,,,,,,,,,,,,,,,,,,,,,,,,,,,,
,,66aa651e21c9af8ebcd8081e,66fc9974b4165711b6f3b19c,2024-10-02_01h56.03.620,mdp,2024.2.1,Win32,59.88023952,66fa4ebf79326e780c390304,,,,,,,,,,,,,,,,,,,,,2343.9569,2343.9569,2343.9583,2346.3878,1,0,right,1.899,,2346.3887,2346.3894,0,0,,2346.3901,2346.3907,0,1,,1,2346.3908,2346.3908,2346.3911,2347.8861,0,17,17,17,1,0.8,0.2,0.6,0.4,1,0,,,,,,,,,,,,,,,,,,,,,,,,,,,,,,,,,,,,
,,66aa651e21c9af8ebcd8081e,66fc9974b4165711b6f3b19c,2024-10-02_01h56.03.620,mdp,2024.2.1,Win32,59.88023952,66fa4ebf79326e780c390304,,,,,,,,,,,,,,,,,,,,,2347.8865,2347.8865,2347.8873,2350.6838,1,1,right,2.2695,,2350.6848,2350.6855,0,0,,2350.6863,2350.6869,0,0,,0,2350.6869,2350.6869,2350.6874,2352.1826,0,18,18,18,1,0.6,0.4,0.8,0.2,1,0,,,,,,,,,,,,,,,,,,,,,,,,,,,,,,,,,,,,
,,66aa651e21c9af8ebcd8081e,66fc9974b4165711b6f3b19c,2024-10-02_01h56.03.620,mdp,2024.2.1,Win32,59.88023952,66fa4ebf79326e780c390304,,,,,,,,,,,,,,,,,,,,,2352.183,2352.183,2352.1837,2361.4578,1,1,right,8.7483,,2361.4587,2361.4597,0,0,,2361.4603,2361.4608,0,0,,0,2361.4608,2361.4608,2361.4612,2362.9564,0,19,19,19,1,0.6,0.4,0.8,0.2,1,0,,,,,,,,,,,,,,,,,,,,,,,,,,,,,,,,,,,,
,,66aa651e21c9af8ebcd8081e,66fc9974b4165711b6f3b19c,2024-10-02_01h56.03.620,mdp,2024.2.1,Win32,59.88023952,66fa4ebf79326e780c390304,,,,,,,,,,,,,,,,,,,,,2362.9568,2362.9568,2362.9576,2364.855,1,0,right,1.3746,,2364.8558,2364.8569,0,0,,2364.8578,2364.8583,0,1,,1,2364.8584,2364.8584,2364.8587,2366.3536,0,20,20,20,1,0.6,0.4,0.8,0.2,1,0,,,,,,,,,,,,,,,,,,,,,,,,,,,,,,,,,,,,
,,66aa651e21c9af8ebcd8081e,66fc9974b4165711b6f3b19c,2024-10-02_01h56.03.620,mdp,2024.2.1,Win32,59.88023952,66fa4ebf79326e780c390304,,,,,,,,,,,,,,,,,,,,,2366.354,2366.354,2366.3555,2368.402,1,0,right,1.5157,,2368.4027,2368.4036,0,1,,2368.4043,2368.4048,0,0,,1,2368.4048,2368.4048,2368.4052,2369.9005,0,21,21,21,1,0.8,0.2,0.6,0.4,1,0,,,,,,,,,,,,,,,,,,,,,,,,,,,,,,,,,,,,
,,66aa651e21c9af8ebcd8081e,66fc9974b4165711b6f3b19c,2024-10-02_01h56.03.620,mdp,2024.2.1,Win32,59.88023952,66fa4ebf79326e780c390304,,,,,,,,,,,,,,,,,,,,,2369.9009,2369.9009,2369.9018,2371.466,1,1,right,1.0331,,2371.4669,2371.4677,0,0,,2371.4683,2371.4688,0,0,,0,2371.4688,2371.4688,2371.4693,2372.9644,0,22,22,22,1,0.8,0.2,0.6,0.4,1,0,,,,,,,,,,,,,,,,,,,,,,,,,,,,,,,,,,,,
,,66aa651e21c9af8ebcd8081e,66fc9974b4165711b6f3b19c,2024-10-02_01h56.03.620,mdp,2024.2.1,Win32,59.88023952,66fa4ebf79326e780c390304,,,,,,,,,,,,,,,,,,,,,2372.9648,2372.9648,2372.9656,2377.827,0,0,left,4.3299,,2377.828,2377.8287,0,0,,2377.8294,2377.8298,0,0,,1,2377.8298,2377.8298,2377.8301,2379.3255,0,23,23,23,1,0.8,0.2,0.6,0.4,1,0,,,,,,,,,,,,,,,,,,,,,,,,,,,,,,,,,,,,
,,66aa651e21c9af8ebcd8081e,66fc9974b4165711b6f3b19c,2024-10-02_01h56.03.620,mdp,2024.2.1,Win32,59.88023952,66fa4ebf79326e780c390304,,,,,,,,,,,,,,,,,,,,,2379.3259,2379.3259,2379.3269,2380.3249,1,0,right,0.4729,,2380.3257,2380.3265,0,0,,2380.3271,2380.3277,0,0,,1,2380.3277,2380.3277,2380.3281,2381.8234,0,24,24,24,1,0.8,0.2,0.6,0.4,1,0,,,,,,,,,,,,,,,,,,,,,,,,,,,,,,,,,,,,
,,66aa651e21c9af8ebcd8081e,66fc9974b4165711b6f3b19c,2024-10-02_01h56.03.620,mdp,2024.2.1,Win32,59.88023952,66fa4ebf79326e780c390304,,,,,,,,,,,,,,,,,,,,,2381.8237,2381.8237,2381.8246,2382.4728,1,0,right,0.1174,,2382.4739,2382.4746,0,0,,2382.4753,2382.4758,0,1,,1,2382.4759,2382.4759,2382.4762,2383.9713,0,25,25,25,1,0.8,0.2,0.6,0.4,1,0,,,,,,,,,,,,,,,,,,,,,,,,,,,,,,,,,,,,
,,66aa651e21c9af8ebcd8081e,66fc9974b4165711b6f3b19c,2024-10-02_01h56.03.620,mdp,2024.2.1,Win32,59.88023952,66fa4ebf79326e780c390304,,,,,,,,,,,,,,,,,,,,,2383.9717,2383.9717,2383.9727,2385.9926,0,1,left,1.4996,,2385.9932,2385.9937,0,1,,2385.9941,2385.9946,0,0,,0,2385.9946,2385.9946,2385.995,2387.4853,0,26,26,26,1,0.6,0.4,0.4,0.6,1,0,,,,,,,,,,,,,,,,,,,,,,,,,,,,,,,,,,,,
,,66aa651e21c9af8ebcd8081e,66fc9974b4165711b6f3b19c,2024-10-02_01h56.03.620,mdp,2024.2.1,Win32,59.88023952,66fa4ebf79326e780c390304,,,,,,,,,,,,,,,,,,,,,2387.4857,2387.4857,2387.4868,2397.5433,0,0,left,9.5258,,2397.5441,2397.5449,0,0,,2397.5454,2397.5459,0,0,,1,2397.546,2397.546,2397.5464,2399.0419,0,27,27,27,1,0.6,0.4,0.4,0.6,1,0,,,,,,,,,,,,,,,,,,,,,,,,,,,,,,,,,,,,
,,66aa651e21c9af8ebcd8081e,66fc9974b4165711b6f3b19c,2024-10-02_01h56.03.620,mdp,2024.2.1,Win32,59.88023952,66fa4ebf79326e780c390304,,,,,,,,,,,,,,,,,,,,,2399.0423,2399.0423,2399.0432,2402.3222,0,1,left,2.7477,,2402.3231,2402.3241,0,1,,2402.3246,2402.3252,0,0,,0,2402.3252,2402.3252,2402.3255,2403.821,0,28,28,28,1,0.6,0.4,0.4,0.6,1,0,,,,,,,,,,,,,,,,,,,,,,,,,,,,,,,,,,,,
,,66aa651e21c9af8ebcd8081e,66fc9974b4165711b6f3b19c,2024-10-02_01h56.03.620,mdp,2024.2.1,Win32,59.88023952,66fa4ebf79326e780c390304,,,,,,,,,,,,,,,,,,,,,2403.8214,2403.8214,2403.8222,2406.4188,1,1,right,2.066,,2406.4196,2406.4203,0,1,,2406.421,2406.4215,0,1,,0,2406.4215,2406.4215,2406.4221,2407.9175,0,29,29,29,1,0.6,0.4,0.4,0.6,1,0,,,,,,,,,,,,,,,,,,,,,,,,,,,,,,,,,,,,
,,66aa651e21c9af8ebcd8081e,66fc9974b4165711b6f3b19c,2024-10-02_01h56.03.620,mdp,2024.2.1,Win32,59.88023952,66fa4ebf79326e780c390304,,,,,,,,,,,,,,,,,,,,,2407.9178,2407.9178,2407.919,2428.1666,1,0,right,19.7251,,2428.1676,2428.1685,0,1,,2428.1692,2428.1696,0,1,,1,2428.1697,2428.1697,2428.1701,2429.6653,0,30,30,30,1,0.6,0.4,0.4,0.6,1,0,,,,,,,,,,,,,,,,,,,,,,,,,,,,,,,,,,,,
,,66aa651e21c9af8ebcd8081e,66fc9974b4165711b6f3b19c,2024-10-02_01h56.03.620,mdp,2024.2.1,Win32,59.88023952,66fa4ebf79326e780c390304,,,,,,,,,,,,,,,,,,,,,2429.6656,2429.6656,2429.6665,2431.7803,1,0,right,1.5826,,2431.7813,2431.7821,0,1,,2431.7827,2431.7831,0,0,,1,2431.7831,2431.7831,2431.7835,2433.2785,0,31,31,31,1,0.6,0.4,0.4,0.6,1,0,,,,,,,,,,,,,,,,,,,,,,,,,,,,,,,,,,,,
,,66aa651e21c9af8ebcd8081e,66fc9974b4165711b6f3b19c,2024-10-02_01h56.03.620,mdp,2024.2.1,Win32,59.88023952,66fa4ebf79326e780c390304,,,,,,,,,,,,,,,,,,,,,2433.2788,2433.2788,2433.2798,2435.6267,1,0,right,1.8176,,2435.6275,2435.6284,0,0,,2435.6291,2435.6296,0,1,,1,2435.6297,2435.6297,2435.63,2437.1252,0,32,32,32,1,0.6,0.4,0.4,0.6,1,0,,,,,,,,,,,,,,,,,,,,,,,,,,,,,,,,,,,,
,,66aa651e21c9af8ebcd8081e,66fc9974b4165711b6f3b19c,2024-10-02_01h56.03.620,mdp,2024.2.1,Win32,59.88023952,66fa4ebf79326e780c390304,,,,,,,,,,,,,,,,,,,,,2437.1255,2437.1255,2437.1263,2438.4576,1,0,right,0.806,,2438.4584,2438.4592,0,1,,2438.4598,2438.4603,0,0,,1,2438.4603,2438.4603,2438.4606,2439.9564,0,33,33,33,1,0.6,0.4,0.4,0.6,1,0,,,,,,,,,,,,,,,,,,,,,,,,,,,,,,,,,,,,
,,66aa651e21c9af8ebcd8081e,66fc9974b4165711b6f3b19c,2024-10-02_01h56.03.620,mdp,2024.2.1,Win32,59.88023952,66fa4ebf79326e780c390304,,,,,,,,,,,,,,,,,,,,,2439.9567,2439.9567,2439.9575,2443.17,1,1,right,2.6816,,2443.171,2443.1718,0,1,,2443.1725,2443.173,0,0,,0,2443.173,2443.173,2443.1734,2444.6687,0,34,34,34,1,0.6,0.4,0.4,0.6,1,0,,,,,,,,,,,,,,,,,,,,,,,,,,,,,,,,,,,,
,,66aa651e21c9af8ebcd8081e,66fc9974b4165711b6f3b19c,2024-10-02_01h56.03.620,mdp,2024.2.1,Win32,59.88023952,66fa4ebf79326e780c390304,,,,,,,,,,,,,,,,,,,,,2444.6691,2444.6691,2444.67,2463.3689,1,1,right,18.1777,,2463.3699,2463.371,0,1,,2463.3717,2463.3723,0,1,,0,2463.3723,2463.3723,2463.3728,2464.8677,0,35,35,35,1,0.8,0.2,0.2,0.8,1,0,,,,,,,,,,,,,,,,,,,,,,,,,,,,,,,,,,,,
,,66aa651e21c9af8ebcd8081e,66fc9974b4165711b6f3b19c,2024-10-02_01h56.03.620,mdp,2024.2.1,Win32,59.88023952,66fa4ebf79326e780c390304,,,,,,,,,,,,,,,,,,,,,2464.868,2464.868,2464.8689,2468.5544,1,1,right,3.1758,,2468.5552,2468.5558,0,1,,2468.5563,2468.5567,0,0,,0,2468.5567,2468.5567,2468.5574,2470.0466,0,36,36,36,1,0.8,0.2,0.2,0.8,1,0,,,,,,,,,,,,,,,,,,,,,,,,,,,,,,,,,,,,
,,66aa651e21c9af8ebcd8081e,66fc9974b4165711b6f3b19c,2024-10-02_01h56.03.620,mdp,2024.2.1,Win32,59.88023952,66fa4ebf79326e780c390304,,,,,,,,,,,,,,,,,,,,,2470.0468,2470.0469,2470.048,2473.4267,0,0,left,2.848,,2473.4276,2473.4284,0,0,,2473.4289,2473.4294,0,1,,1,2473.4294,2473.4294,2473.4298,2474.9256,0,37,37,37,1,0.8,0.2,0.2,0.8,1,0,,,,,,,,,,,,,,,,,,,,,,,,,,,,,,,,,,,,
,,66aa651e21c9af8ebcd8081e,66fc9974b4165711b6f3b19c,2024-10-02_01h56.03.620,mdp,2024.2.1,Win32,59.88023952,66fa4ebf79326e780c390304,,,,,,,,,,,,,,,,,,,,,2474.9259,2474.9259,2474.9269,2477.7733,0,0,left,2.3154,,2477.7744,2477.7751,0,1,,2477.7757,2477.7764,0,0,,1,2477.7764,2477.7764,2477.7769,2479.2716,0,38,38,38,1,0.8,0.2,0.2,0.8,1,0,,,,,,,,,,,,,,,,,,,,,,,,,,,,,,,,,,,,
