init_exp.started,init_exp.stopped,participant,session,date,expName,psychopyVersion,OS,frameRate,study_id,disp_instruction.started,disp_instruction.stopped,instruction.thisRepN,instruction.thisTrialN,instruction.thisN,instruction.thisIndex,instruction.ran,instimg_path,consent.started,consent.stopped,key_resp_3.keys,key_resp_3.rt,key_resp_3.duration,n_steps,sequence_path,init_block.started,init_block.stopped,key_resp.keys,key_resp.rt,key_resp.duration,init_trials.started,init_trials.stopped,step0.started,step0.stopped,act0,s1,res0.keys,res0.rt,res0.duration,step1.started,step1.stopped,act1,s2,res1.keys,step2.started,step2.stopped,act2,s3,res2.keys,rew,reward_comp.started,reward_comp.stopped,reward_disp.started,reward_disp.stopped,trials.thisRepN,trials.thisTrialN,trials.thisN,trials.thisIndex,trials.ran,s00a0s10,s00a0s11,s00a1s10,s00a1s11,rew10,rew11,break_block.started,break_block.stopped,block.thisRepN,block.thisTrialN,block.thisN,block.thisIndex,block.ran,s00path,s10path,s11path,s20path,s21path,res1.rt,res1.duration,s10a0s20,s10a0s21,s10a1s20,s10a1s21,s11a0s20,s11a0s21,s11a1s20,s11a1s21,rew20,rew21,res2.rt,res2.duration,s20a0s30,s20a0s31,s20a1s30,s20a1s31,s21a0s30,s21a0s31,s21a1s30,s21a1s31,rew30,rew31
0.0005,0.0044,66aa5aaa7f31ee53f61079ac,66fc993a35423bf8b2a11e9a,2024-10-01_17h55.01.381,mdp,2024.2.1,Win32,59.88023952,66fa4ebf79326e780c390304,,,,,,,,,,,,,,,,,,,,,,,,,,,,,,,,,,,,,,,,,,,,,,,,,,,,,,,,,,,,,,,,,,,,,,,,,,,,,,,,,,,,,,,,,,,
,,66aa5aaa7f31ee53f61079ac,66fc993a35423bf8b2a11e9a,2024-10-01_17h55.01.381,mdp,2024.2.1,Win32,59.88023952,66fa4ebf79326e780c390304,0.0129,12.2156,0,0,0,0,1,rlnn_exp/rlnn_exp.001.png,,,,,,,,,,,,,,,,,,,,,,,,,,,,,,,,,,,,,,,,,,,,,,,,,,,,,,,,,,,,,,,,,,,,,,,,,,,,,,,,,,,
,,66aa5aaa7f31ee53f61079ac,66fc993a35423bf8b2a11e9a,2024-10-01_17h55.01.381,mdp,2024.2.1,Win32,59.88023952,66fa4ebf79326e780c390304,12.2173,38.7905,0,1,1,1,1,rlnn_exp/rlnn_exp.002.png,,,,,,,,,,,,,,,,,,,,,,,,,,,,,,,,,,,,,,,,,,,,,,,,,,,,,,,,,,,,,,,,,,,,,,,,,,,,,,,,,,,
,,66aa5aaa7f31ee53f61079ac,66fc993a35423bf8b2a11e9a,2024-10-01_17h55.01.381,mdp,2024.2.1,Win32,59.88023952,66fa4ebf79326e780c390304,38.7929,63.9019,0,2,2,2,1,rlnn_exp/rlnn_exp.003.png,,,,,,,,,,,,,,,,,,,,,,,,,,,,,,,,,,,,,,,,,,,,,,,,,,,,,,,,,,,,,,,,,,,,,,,,,,,,,,,,,,,
,,66aa5aaa7f31ee53f61079ac,66fc993a35423bf8b2a11e9a,2024-10-01_17h55.01.381,mdp,2024.2.1,Win32,59.88023952,66fa4ebf79326e780c390304,63.9035,88.5437,0,3,3,3,1,rlnn_exp/rlnn_exp.004.png,,,,,,,,,,,,,,,,,,,,,,,,,,,,,,,,,,,,,,,,,,,,,,,,,,,,,,,,,,,,,,,,,,,,,,,,,,,,,,,,,,,
,,66aa5aaa7f31ee53f61079ac,66fc993a35423bf8b2a11e9a,2024-10-01_17h55.01.381,mdp,2024.2.1,Win32,59.88023952,66fa4ebf79326e780c390304,,,,,,,,,88.5448,101.907,y,3.3358,,,,,,,,,,,,,,,,,,,,,,,,,,,,,,,,,,,,,,,,,,,,,,,,,,,,,,,,,,,,,,,,,,,,,,,,,,,,,,,
,,66aa5aaa7f31ee53f61079ac,66fc993a35423bf8b2a11e9a,2024-10-01_17h55.01.381,mdp,2024.2.1,Win32,59.88023952,66fa4ebf79326e780c390304,,,,,,,,,,,,,,1,seqs/st1seq27.csv,101.9145,104.2564,space,1.8221,,104.2624,104.2626,104.2632,113.704,0,0,left,8.9039,,113.706,113.709,,0,,113.7095,113.7125,,1,,1,113.7127,113.7128,113.7132,115.2032,0,0,0,0,1,0.6,0.4,0.4,0.6,1,0,,,,,,,,,,,,,,,,,,,,,,,,,,,,,,,,,,,,
,,66aa5aaa7f31ee53f61079ac,66fc993a35423bf8b2a11e9a,2024-10-01_17h55.01.381,mdp,2024.2.1,Win32,59.88023952,66fa4ebf79326e780c390304,,,,,,,,,,,,,,,,,,,,,115.2047,115.2048,115.2066,117.5358,0,0,left,1.8013,,117.5387,117.5399,,1,,117.541,117.5423,,0,,1,117.5423,117.5423,117.5433,119.0353,0,1,1,1,1,0.6,0.4,0.4,0.6,1,0,,,,,,,,,,,,,,,,,,,,,,,,,,,,,,,,,,,,
,,66aa5aaa7f31ee53f61079ac,66fc993a35423bf8b2a11e9a,2024-10-01_17h55.01.381,mdp,2024.2.1,Win32,59.88023952,66fa4ebf79326e780c390304,,,,,,,,,,,,,,,,,,,,,119.0369,119.0369,119.0397,122.3176,0,1,left,2.7587,,122.3204,122.3216,,0,,122.3228,122.3241,,0,,0,122.3242,122.3242,122.3252,123.8167,0,2,2,2,1,0.6,0.4,0.4,0.6,1,0,,,,,,,,,,,,,,,,,,,,,,,,,,,,,,,,,,,,
,,66aa5aaa7f31ee53f61079ac,66fc993a35423bf8b2a11e9a,2024-10-01_17h55.01.381,mdp,2024.2.1,Win32,59.88023952,66fa4ebf79326e780c390304,,,,,,,,,,,,,,,,,,,,,123.8186,123.8186,123.8216,128.1989,1,0,right,3.8502,,128.2025,128.2037,,1,,128.2049,128.2061,,1,,1,128.2061,128.2061,128.2072,129.6988,0,3,3,3,1,0.6,0.4,0.4,0.6,1,0,,,,,,,,,,,,,,,,,,,,,,,,,,,,,,,,,,,,
,,66aa5aaa7f31ee53f61079ac,66fc993a35423bf8b2a11e9a,2024-10-01_17h55.01.381,mdp,2024.2.1,Win32,59.88023952,66fa4ebf79326e780c390304,,,,,,,,,,,,,,,,,,,,,129.7005,129.7005,129.7025,133.5642,0,0,left,3.3343,,133.568,133.5693,,1,,133.5707,133.572,,0,,1,133.572,133.5721,133.5732,135.0635,0,4,4,4,1,0.6,0.4,0.4,0.6,1,0,,,,,,,,,,,,,,,,,,,,,,,,,,,,,,,,,,,,
,,66aa5aaa7f31ee53f61079ac,66fc993a35423bf8b2a11e9a,2024-10-01_17h55.01.381,mdp,2024.2.1,Win32,59.88023952,66fa4ebf79326e780c390304,,,,,,,,,,,,,,,,,,,,,135.0654,135.0655,135.0675,137.9815,0,1,left,2.3839,,137.9836,137.9847,,1,,137.9858,137.987,,1,,0,137.9871,137.9871,137.9882,139.4798,0,5,5,5,1,0.2,0.8,0.6,0.4,1,0,,,,,,,,,,,,,,,,,,,,,,,,,,,,,,,,,,,,
,,66aa5aaa7f31ee53f61079ac,66fc993a35423bf8b2a11e9a,2024-10-01_17h55.01.381,mdp,2024.2.1,Win32,59.88023952,66fa4ebf79326e780c390304,,,,,,,,,,,,,,,,,,,,,139.4812,139.4814,139.4834,143.1457,1,1,right,3.1335,,143.1487,143.1502,,1,,143.1515,143.1527,,0,,0,143.1528,143.1528,143.1538,144.6442,0,6,6,6,1,0.8,0.2,0.2,0.8,1,0,,,,,,,,,,,,,,,,,,,,,,,,,,,,,,,,,,,,
,,66aa5aaa7f31ee53f61079ac,66fc993a35423bf8b2a11e9a,2024-10-01_17h55.01.381,mdp,2024.2.1,Win32,59.88023952,66fa4ebf79326e780c390304,,,,,,,,,,,,,,,,,,,,,144.6459,144.6459,144.6481,145.9448,1,1,right,0.7684,,145.9476,145.9487,,1,,145.9498,145.9509,,1,,0,145.951,145.951,145.9519,147.4437,0,7,7,7,1,0.8,0.2,0.2,0.8,1,0,,,,,,,,,,,,,,,,,,,,,,,,,,,,,,,,,,,,
,,66aa5aaa7f31ee53f61079ac,66fc993a35423bf8b2a11e9a,2024-10-01_17h55.01.381,mdp,2024.2.1,Win32,59.88023952,66fa4ebf79326e780c390304,,,,,,,,,,,,,,,,,,,,,147.4456,147.4458,147.4477,150.5603,0,0,left,2.5843,,150.5631,150.5642,,1,,150.5655,150.5666,,1,,1,150.5667,150.5667,150.5679,152.0592,0,8,8,8,1,0.8,0.2,0.2,0.8,1,0,,,,,,,,,,,,,,,,,,,,,,,,,,,,,,,,,,,,
,,66aa5aaa7f31ee53f61079ac,66fc993a35423bf8b2a11e9a,2024-10-01_17h55.01.381,mdp,2024.2.1,Win32,59.88023952,66fa4ebf79326e780c390304,,,,,,,,,,,,,,,,,,,,,152.0603,152.0604,152.0629,155.6922,0,0,left,3.1,,155.6949,155.6963,,0,,155.6975,155.7002,,0,,1,155.7004,155.7004,155.7021,157.1913,0,9,9,9,1,0.8,0.2,0.2,0.8,1,0,,,,,,,,,,,,,,,,,,,,,,,,,,,,,,,,,,,,
,,66aa5aaa7f31ee53f61079ac,66fc993a35423bf8b2a11e9a,2024-10-01_17h55.01.381,mdp,2024.2.1,Win32,59.88023952,66fa4ebf79326e780c390304,,,,,,,,,,,,,,,,,,,,,157.1925,157.1926,157.1951,160.1068,0,0,left,2.4079,,160.1097,160.1112,,0,,160.1127,160.1138,,0,,1,160.1139,160.1139,160.1149,161.6072,0,10,10,10,1,0.8,0.2,0.2,0.8,1,0,,,,,,,,,,,,,,,,,,,,,,,,,,,,,,,,,,,,
,,66aa5aaa7f31ee53f61079ac,66fc993a35423bf8b2a11e9a,2024-10-01_17h55.01.381,mdp,2024.2.1,Win32,59.88023952,66fa4ebf79326e780c390304,,,,,,,,,,,,,,,,,,,,,161.6085,161.6085,161.6102,163.7567,0,0,left,1.6193,,163.7592,163.7605,,0,,163.7619,163.7631,,1,,1,163.7631,163.7631,163.7641,165.2548,0,11,11,11,1,0.6,0.4,0.6,0.4,1,0,,,,,,,,,,,,,,,,,,,,,,,,,,,,,,,,,,,,
,,66aa5aaa7f31ee53f61079ac,66fc993a35423bf8b2a11e9a,2024-10-01_17h55.01.381,mdp,2024.2.1,Win32,59.88023952,66fa4ebf79326e780c390304,,,,,,,,,,,,,,,,,,,,,165.2561,165.2562,165.2589,167.0056,0,1,left,1.2178,,167.0083,167.0093,,0,,167.0106,167.0116,,0,,0,167.0116,167.0116,167.0131,168.5043,0,12,12,12,1,0.6,0.4,0.6,0.4,1,0,,,,,,,,,,,,,,,,,,,,,,,,,,,,,,,,,,,,
,,66aa5aaa7f31ee53f61079ac,66fc993a35423bf8b2a11e9a,2024-10-01_17h55.01.381,mdp,2024.2.1,Win32,59.88023952,66fa4ebf79326e780c390304,,,,,,,,,,,,,,,,,,,,,168.5054,168.5055,168.5079,171.1704,0,0,left,2.1338,,171.1735,171.1748,,1,,171.1765,171.1777,,0,,1,171.1777,171.1777,171.1792,172.6698,0,13,13,13,1,0.6,0.4,0.6,0.4,1,0,,,,,,,,,,,,,,,,,,,,,,,,,,,,,,,,,,,,
,,66aa5aaa7f31ee53f61079ac,66fc993a35423bf8b2a11e9a,2024-10-01_17h55.01.381,mdp,2024.2.1,Win32,59.88023952,66fa4ebf79326e780c390304,,,,,,,,,,,,,,,,,,,,,172.6717,172.6717,172.6736,175.0863,0,0,left,1.8846,,175.089,175.0901,,0,,175.0915,175.0927,,0,,1,175.0927,175.0927,175.0938,176.5851,0,14,14,14,1,0.8,0.2,0.8,0.2,1,0,,,,,,,,,,,,,,,,,,,,,,,,,,,,,,,,,,,,
,,66aa5aaa7f31ee53f61079ac,66fc993a35423bf8b2a11e9a,2024-10-01_17h55.01.381,mdp,2024.2.1,Win32,59.88023952,66fa4ebf79326e780c390304,,,,,,,,,,,,,,,,,,,,,176.588,176.588,176.5901,178.769,0,1,left,1.6588,,178.7717,178.7728,,0,,178.7739,178.7751,,1,,0,178.7751,178.7751,178.7762,180.2681,0,15,15,15,1,0.8,0.2,0.8,0.2,1,0,,,,,,,,,,,,,,,,,,,,,,,,,,,,,,,,,,,,
,,66aa5aaa7f31ee53f61079ac,66fc993a35423bf8b2a11e9a,2024-10-01_17h55.01.381,mdp,2024.2.1,Win32,59.88023952,66fa4ebf79326e780c390304,,,,,,,,,,,,,,,,,,,,,180.2693,180.2693,180.2717,181.5179,0,1,left,0.7173,,181.5209,181.5222,,0,,181.5234,181.5245,,0,,0,181.5245,181.5245,181.5255,183.0174,0,16,16,16,1,0.8,0.2,0.8,0.2,1,0,,,,,,,,,,,,,,,,,,,,,,,,,,,,,,,,,,,,
,,66aa5aaa7f31ee53f61079ac,66fc993a35423bf8b2a11e9a,2024-10-01_17h55.01.381,mdp,2024.2.1,Win32,59.88023952,66fa4ebf79326e780c390304,,,,,,,,,,,,,,,,,,,,,183.019,183.019,183.0214,184.934,0,0,left,1.3865,,184.9371,184.9381,,0,,184.9393,184.9406,,1,,1,184.9406,184.9406,184.9418,186.4333,0,17,17,17,1,0.8,0.2,0.8,0.2,1,0,,,,,,,,,,,,,,,,,,,,,,,,,,,,,,,,,,,,
,,66aa5aaa7f31ee53f61079ac,66fc993a35423bf8b2a11e9a,2024-10-01_17h55.01.381,mdp,2024.2.1,Win32,59.88023952,66fa4ebf79326e780c390304,,,,,,,,,,,,,,,,,,,,,186.4344,186.4344,186.4371,187.8338,0,1,left,0.8714,,187.8366,187.8378,,0,,187.8391,187.8402,,0,,0,187.8404,187.8404,187.842,189.3325,0,18,18,18,1,0.8,0.2,0.8,0.2,1,0,,,,,,,,,,,,,,,,,,,,,,,,,,,,,,,,,,,,
,,66aa5aaa7f31ee53f61079ac,66fc993a35423bf8b2a11e9a,2024-10-01_17h55.01.381,mdp,2024.2.1,Win32,59.88023952,66fa4ebf79326e780c390304,,,,,,,,,,,,,,,,,,,,,189.3345,189.3346,189.3365,190.883,0,0,left,1.0219,,190.8854,190.8866,,1,,190.888,190.889,,0,,1,190.889,190.889,190.8902,192.3815,0,19,19,19,1,0.8,0.2,0.8,0.2,1,0,,,,,,,,,,,,,,,,,,,,,,,,,,,,,,,,,,,,
,,66aa5aaa7f31ee53f61079ac,66fc993a35423bf8b2a11e9a,2024-10-01_17h55.01.381,mdp,2024.2.1,Win32,59.88023952,66fa4ebf79326e780c390304,,,,,,,,,,,,,,,,,,,,,192.3836,192.3836,192.3853,193.9816,0,1,left,1.0778,,193.9849,193.9869,,1,,193.9882,193.9894,,1,,0,193.9895,193.9895,193.9905,195.4814,0,20,20,20,1,0.2,0.8,0.6,0.4,1,0,,,,,,,,,,,,,,,,,,,,,,,,,,,,,,,,,,,,
,,66aa5aaa7f31ee53f61079ac,66fc993a35423bf8b2a11e9a,2024-10-01_17h55.01.381,mdp,2024.2.1,Win32,59.88023952,66fa4ebf79326e780c390304,,,,,,,,,,,,,,,,,,,,,195.483,195.483,195.4846,196.9142,0,1,left,0.9012,,196.9172,196.9183,,1,,196.9193,196.9205,,1,,0,196.9206,196.9206,196.9217,198.4165,0,21,21,21,1,0.2,0.8,0.6,0.4,1,0,,,,,,,,,,,,,,,,,,,,,,,,,,,,,,,,,,,,
,,66aa5aaa7f31ee53f61079ac,66fc993a35423bf8b2a11e9a,2024-10-01_17h55.01.381,mdp,2024.2.1,Win32,59.88023952,66fa4ebf79326e780c390304,,,,,,,,,,,,,,,,,,,,,198.417,198.417,198.4184,199.2804,1,0,right,0.3368,,199.2831,199.2841,,0,,199.2852,199.2862,,0,,1,199.2862,199.2862,199.2873,200.7793,0,22,22,22,1,0.2,0.8,0.6,0.4,1,0,,,,,,,,,,,,,,,,,,,,,,,,,,,,,,,,,,,,
,,66aa5aaa7f31ee53f61079ac,66fc993a35423bf8b2a11e9a,2024-10-01_17h55.01.381,mdp,2024.2.1,Win32,59.88023952,66fa4ebf79326e780c390304,,,,,,,,,,,,,,,,,,,,,200.7812,200.7812,200.783,202.7964,1,0,right,1.4848,,202.7993,202.8007,,0,,202.8019,202.8031,,0,,1,202.8031,202.8031,202.804,204.2943,0,23,23,23,1,0.2,0.8,0.6,0.4,1,0,,,,,,,,,,,,,,,,,,,,,,,,,,,,,,,,,,,,
,,66aa5aaa7f31ee53f61079ac,66fc993a35423bf8b2a11e9a,2024-10-01_17h55.01.381,mdp,2024.2.1,Win32,59.88023952,66fa4ebf79326e780c390304,,,,,,,,,,,,,,,,,,,,,204.2957,204.2957,204.2982,205.8619,0,1,left,1.0388,,205.8646,205.8656,,1,,205.8668,205.8678,,1,,0,205.8678,205.8678,205.8688,207.3608,0,24,24,24,1,0.2,0.8,0.6,0.4,1,0,,,,,,,,,,,,,,,,,,,,,,,,,,,,,,,,,,,,
,,66aa5aaa7f31ee53f61079ac,66fc993a35423bf8b2a11e9a,2024-10-01_17h55.01.381,mdp,2024.2.1,Win32,59.88023952,66fa4ebf79326e780c390304,,,,,,,,,,,,,,,,,,,,,207.3627,207.3627,207.3644,209.6608,1,0,right,1.7709,,209.6641,209.6654,,1,,209.6667,209.6677,,0,,1,209.6679,209.6679,209.6696,211.1596,0,25,25,25,1,0.2,0.8,0.6,0.4,1,0,,,,,,,,,,,,,,,,,,,,,,,,,,,,,,,,,,,,
,,66aa5aaa7f31ee53f61079ac,66fc993a35423bf8b2a11e9a,2024-10-01_17h55.01.381,mdp,2024.2.1,Win32,59.88023952,66fa4ebf79326e780c390304,,,,,,,,,,,,,,,,,,,,,211.1616,211.1617,211.1636,213.3431,1,0,right,1.6512,,213.3462,213.3475,,1,,213.3488,213.3504,,0,,1,213.3505,213.3505,213.3516,214.8429,0,26,26,26,1,0.6,0.4,0.4,0.6,1,0,,,,,,,,,,,,,,,,,,,,,,,,,,,,,,,,,,,,
,,66aa5aaa7f31ee53f61079ac,66fc993a35423bf8b2a11e9a,2024-10-01_17h55.01.381,mdp,2024.2.1,Win32,59.88023952,66fa4ebf79326e780c390304,,,,,,,,,,,,,,,,,,,,,214.8441,214.8441,214.8462,217.1254,1,1,right,1.7614,,217.1282,217.1301,,1,,217.1311,217.1324,,0,,0,217.1325,217.1325,217.1342,218.6247,0,27,27,27,1,0.6,0.4,0.4,0.6,1,0,,,,,,,,,,,,,,,,,,,,,,,,,,,,,,,,,,,,
,,66aa5aaa7f31ee53f61079ac,66fc993a35423bf8b2a11e9a,2024-10-01_17h55.01.381,mdp,2024.2.1,Win32,59.88023952,66fa4ebf79326e780c390304,,,,,,,,,,,,,,,,,,,,,218.6259,218.6259,218.6282,219.9583,0,0,left,0.8031,,219.9608,219.9621,,0,,219.9633,219.9642,,0,,1,219.9643,219.9643,219.9652,221.4568,0,28,28,28,1,0.6,0.4,0.4,0.6,1,0,,,,,,,,,,,,,,,,,,,,,,,,,,,,,,,,,,,,
,,66aa5aaa7f31ee53f61079ac,66fc993a35423bf8b2a11e9a,2024-10-01_17h55.01.381,mdp,2024.2.1,Win32,59.88023952,66fa4ebf79326e780c390304,,,,,,,,,,,,,,,,,,,,,221.4585,221.4585,221.461,223.5573,0,0,left,1.5726,,223.5598,223.5609,,0,,223.5624,223.5634,,0,,1,223.5635,223.5635,223.5644,225.0568,0,29,29,29,1,0.4,0.6,0.6,0.4,1,0,,,,,,,,,,,,,,,,,,,,,,,,,,,,,,,,,,,,
,,66aa5aaa7f31ee53f61079ac,66fc993a35423bf8b2a11e9a,2024-10-01_17h55.01.381,mdp,2024.2.1,Win32,59.88023952,66fa4ebf79326e780c390304,,,,,,,,,,,,,,,,,,,,,225.0581,225.0581,225.0598,226.023,1,1,right,0.4445,,226.0269,226.028,,1,,226.0292,226.0301,,1,,0,226.0302,226.0302,226.0312,227.5226,0,30,30,30,1,0.4,0.6,0.6,0.4,1,0,,,,,,,,,,,,,,,,,,,,,,,,,,,,,,,,,,,,
,,66aa5aaa7f31ee53f61079ac,66fc993a35423bf8b2a11e9a,2024-10-01_17h55.01.381,mdp,2024.2.1,Win32,59.88023952,66fa4ebf79326e780c390304,,,,,,,,,,,,,,,,,,,,,227.524,227.524,227.5258,228.6226,0,0,left,0.5744,,228.6252,228.6263,,1,,228.6274,228.6285,,0,,1,228.6285,228.6285,228.6297,230.1216,0,31,31,31,1,0.4,0.6,0.6,0.4,1,0,,,,,,,,,,,,,,,,,,,,,,,,,,,,,,,,,,,,
,,66aa5aaa7f31ee53f61079ac,66fc993a35423bf8b2a11e9a,2024-10-01_17h55.01.381,mdp,2024.2.1,Win32,59.88023952,66fa4ebf79326e780c390304,,,,,,,,,,,,,,,,,,,,,230.1234,230.1234,230.1254,231.2717,0,0,left,0.6183,,231.2744,231.2755,,0,,231.2767,231.2777,,0,,1,231.2778,231.2778,231.2787,232.7706,0,32,32,32,1,0.8,0.2,0.8,0.2,1,0,,,,,,,,,,,,,,,,,,,,,,,,,,,,,,,,,,,,
,,66aa5aaa7f31ee53f61079ac,66fc993a35423bf8b2a11e9a,2024-10-01_17h55.01.381,mdp,2024.2.1,Win32,59.88023952,66fa4ebf79326e780c390304,,,,,,,,,,,,,,,,,,,,,232.7725,232.7725,232.7744,233.6546,1,1,right,0.3524,,233.6573,233.6583,,1,,233.6595,233.6605,,1,,0,233.6606,233.6606,233.6615,235.1541,0,33,33,33,1,0.8,0.2,0.8,0.2,1,0,,,,,,,,,,,,,,,,,,,,,,,,,,,,,,,,,,,,
,,66aa5aaa7f31ee53f61079ac,66fc993a35423bf8b2a11e9a,2024-10-01_17h55.01.381,mdp,2024.2.1,Win32,59.88023952,66fa4ebf79326e780c390304,,,,,,,,,,,,,,,,,,,,,235.1553,235.1553,235.1571,236.2529,0,0,left,0.5688,,236.2562,236.2573,,0,,236.2586,236.26,,0,,1,236.26,236.2601,236.2613,237.7526,0,34,34,34,1,0.6,0.4,0.2,0.8,1,0,,,,,,,,,,,,,,,,,,,,,,,,,,,,,,,,,,,,
,,66aa5aaa7f31ee53f61079ac,66fc993a35423bf8b2a11e9a,2024-10-01_17h55.01.381,mdp,2024.2.1,Win32,59.88023952,66fa4ebf79326e780c390304,,,,,,,,,,,,,,,,,,,,,237.7546,237.7547,237.7567,239.9193,0,1,left,1.6394,,239.9223,239.9233,,1,,239.9245,239.9258,,0,,0,239.9258,239.9258,239.9269,241.4185,0,35,35,35,1,0.6,0.4,0.2,0.8,1,0,,,,,,,,,,,,,,,,,,,,,,,,,,,,,,,,,,,,
,,66aa5aaa7f31ee53f61079ac,66fc993a35423bf8b2a11e9a,2024-10-01_17h55.01.381,mdp,2024.2.1,Win32,59.88023952,66fa4ebf79326e780c390304,,,,,,,,,,,,,,,,,,,,,241.4196,241.4197,241.4221,242.3349,1,1,right,0.3863,,242.338,242.3392,,1,,242.3407,242.3417,,1,,0,242.3418,242.3418,242.3427,243.8348,0,36,36,36,1,0.6,0.4,0.2,0.8,1,0,,,,,,,,,,,,,,,,,,,,,,,,,,,,,,,,,,,,
,,66aa5aaa7f31ee53f61079ac,66fc993a35423bf8b2a11e9a,2024-10-01_17h55.01.381,mdp,2024.2.1,Win32,59.88023952,66fa4ebf79326e780c390304,,,,,,,,,,,,,,,,,,,,,243.8358,243.8358,243.8382,244.9682,0,1,left,0.6064,,244.9706,244.9718,,0,,244.9729,244.9741,,0,,0,244.9742,244.9742,244.9752,246.467,0,37,37,37,1,0.6,0.4,0.2,0.8,1,0,,,,,,,,,,,,,,,,,,,,,,,,,,,,,,,,,,,,
,,66aa5aaa7f31ee53f61079ac,66fc993a35423bf8b2a11e9a,2024-10-01_17h55.01.381,mdp,2024.2.1,Win32,59.88023952,66fa4ebf79326e780c390304,,,,,,,,,,,,,,,,,,,,,246.4687,246.4687,246.4711,247.6671,0,0,left,0.6672,,247.67,247.671,,0,,247.6722,247.6733,,0,,1,247.6733,247.6733,247.6743,249.1666,0,38,38,38,1,0.8,0.2,0.6,0.4,1,0,,,,,,,,,,,,,,,,,,,,,,,,,,,,,,,,,,,,
,,66aa5aaa7f31ee53f61079ac,66fc993a35423bf8b2a11e9a,2024-10-01_17h55.01.381,mdp,2024.2.1,Win32,59.88023952,66fa4ebf79326e780c390304,,,,,,,,,,,,,,,,,,,,,249.1683,249.1683,249.1701,250.8501,0,0,left,1.1505,,250.8528,250.8539,,0,,250.8553,250.8563,,0,,1,250.8563,250.8563,250.8573,252.3488,0,39,39,39,1,0.6,0.4,0.4,0.6,1,0,,,,,,,,,,,,,,,,,,,,,,,,,,,,,,,,,,,,
,,66aa5aaa7f31ee53f61079ac,66fc993a35423bf8b2a11e9a,2024-10-01_17h55.01.381,mdp,2024.2.1,Win32,59.88023952,66fa4ebf79326e780c390304,,,,,,,,,,,,,,,,,,,,,252.3507,252.3507,252.3541,254.1156,0,1,left,1.2347,,254.1184,254.1196,,0,,254.1207,254.1218,,1,,0,254.1218,254.1218,254.1228,255.6153,0,40,40,40,1,0.4,0.6,0.6,0.4,1,0,,,,,,,,,,,,,,,,,,,,,,,,,,,,,,,,,,,,
,,66aa5aaa7f31ee53f61079ac,66fc993a35423bf8b2a11e9a,2024-10-01_17h55.01.381,mdp,2024.2.1,Win32,59.88023952,66fa4ebf79326e780c390304,,,,,,,,,,,,,,,,,,,,,255.6166,255.6166,255.6182,256.8642,0,1,left,0.7172,,256.8677,256.8695,,1,,256.8711,256.8726,,1,,0,256.8727,256.8727,256.8742,258.3641,0,41,41,41,1,0.4,0.6,0.6,0.4,1,0,,,,,,,,,,,,,,,,,,,,,,,,,,,,,,,,,,,,
,,66aa5aaa7f31ee53f61079ac,66fc993a35423bf8b2a11e9a,2024-10-01_17h55.01.381,mdp,2024.2.1,Win32,59.88023952,66fa4ebf79326e780c390304,,,,,,,,,,,,,,,,,,,,,258.3658,258.3658,258.3675,259.2639,0,1,left,0.3756,,259.2668,259.2679,,1,,259.2691,259.27,,1,,0,259.27,259.27,259.2711,260.7635,0,42,42,42,1,0.4,0.6,0.6,0.4,1,0,,,,,,,,,,,,,,,,,,,,,,,,,,,,,,,,,,,,
,,66aa5aaa7f31ee53f61079ac,66fc993a35423bf8b2a11e9a,2024-10-01_17h55.01.381,mdp,2024.2.1,Win32,59.88023952,66fa4ebf79326e780c390304,,,,,,,,,,,,,,,,,,,,,260.7646,260.7647,260.767,261.8971,1,0,right,0.6016,,261.8999,261.9009,,1,,261.902,261.903,,0,,1,261.9031,261.9031,261.9041,263.3965,0,43,43,43,1,0.4,0.6,0.6,0.4,1,0,,,,,,,,,,,,,,,,,,,,,,,,,,,,,,,,,,,,
,,66aa5aaa7f31ee53f61079ac,66fc993a35423bf8b2a11e9a,2024-10-01_17h55.01.381,mdp,2024.2.1,Win32,59.88023952,66fa4ebf79326e780c390304,,,,,,,,,,,,,,,,,,,,,263.3979,263.3979,263.3996,264.6634,1,0,right,0.7457,,264.6662,264.6674,,0,,264.6687,264.67,,1,,1,264.67,264.6701,264.6712,266.1617,0,44,44,44,1,0.4,0.6,0.6,0.4,1,0,,,,,,,,,,,,,,,,,,,,,,,,,,,,,,,,,,,,
,,66aa5aaa7f31ee53f61079ac,66fc993a35423bf8b2a11e9a,2024-10-01_17h55.01.381,mdp,2024.2.1,Win32,59.88023952,66fa4ebf79326e780c390304,,,,,,,,,,,,,,,,,,,,,266.1628,266.1628,266.1654,267.712,0,1,left,1.0225,,267.715,267.7164,,0,,267.7176,267.7187,,1,,0,267.7187,267.7187,267.7197,269.2111,0,45,45,45,1,0.4,0.6,0.6,0.4,1,0,,,,,,,,,,,,,,,,,,,,,,,,,,,,,,,,,,,,
,,66aa5aaa7f31ee53f61079ac,66fc993a35423bf8b2a11e9a,2024-10-01_17h55.01.381,mdp,2024.2.1,Win32,59.88023952,66fa4ebf79326e780c390304,,,,,,,,,,,,,,,,,,,,,269.213,269.213,269.2151,270.295,0,1,left,0.5547,,270.2977,270.2988,,0,,270.2998,270.3008,,1,,0,270.3009,270.3009,270.3019,271.7942,0,46,46,46,1,0.4,0.6,0.6,0.4,1,0,,,,,,,,,,,,,,,,,,,,,,,,,,,,,,,,,,,,
,,66aa5aaa7f31ee53f61079ac,66fc993a35423bf8b2a11e9a,2024-10-01_17h55.01.381,mdp,2024.2.1,Win32,59.88023952,66fa4ebf79326e780c390304,,,,,,,,,,,,,,,,,,,,,271.7953,271.7954,271.7972,272.727,0,0,left,0.4071,,272.7299,272.731,,1,,272.7322,272.7334,,1,,1,272.7335,272.7335,272.7354,274.2261,0,47,47,47,1,0.4,0.6,0.6,0.4,1,0,,,,,,,,,,,,,,,,,,,,,,,,,,,,,,,,,,,,
,,66aa5aaa7f31ee53f61079ac,66fc993a35423bf8b2a11e9a,2024-10-01_17h55.01.381,mdp,2024.2.1,Win32,59.88023952,66fa4ebf79326e780c390304,,,,,,,,,,,,,,,,,,,,,274.2276,274.2276,274.2304,275.1934,0,0,left,0.4336,,275.1962,275.1977,,1,,275.1991,275.2003,,0,,1,275.2004,275.2004,275.2014,276.6925,0,48,48,48,1,0.4,0.6,0.6,0.4,1,0,,,,,,,,,,,,,,,,,,,,,,,,,,,,,,,,,,,,
,,66aa5aaa7f31ee53f61079ac,66fc993a35423bf8b2a11e9a,2024-10-01_17h55.01.381,mdp,2024.2.1,Win32,59.88023952,66fa4ebf79326e780c390304,,,,,,,,,,,,,,,,,,,,,276.6942,276.6943,276.696,278.5922,0,1,left,1.3684,,278.5951,278.5961,,0,,278.5972,278.5982,,1,,0,278.5982,278.5982,278.5992,280.0918,0,49,49,49,1,0.4,0.6,0.6,0.4,1,0,,,,,,,,,,,,,,,,,,,,,,,,,,,,,,,,,,,,
,,66aa5aaa7f31ee53f61079ac,66fc993a35423bf8b2a11e9a,2024-10-01_17h55.01.381,mdp,2024.2.1,Win32,59.88023952,66fa4ebf79326e780c390304,,,,,,,,,,,,,,,,,,,,,,,,,,,,,,,,,,,,,,,,,,,,,,,,,,,,,,,,280.0927,338.6091,0,0,0,7,1,imgs/rabbit.png,imgs/dog.png,imgs/goat.png,imgs/pig.png,imgs/kangaroo.png,,,,,,,,,,,,,,,,,,,,,,,,
,,66aa5aaa7f31ee53f61079ac,66fc993a35423bf8b2a11e9a,2024-10-01_17h55.01.381,mdp,2024.2.1,Win32,59.88023952,66fa4ebf79326e780c390304,,,,,,,,,,,,,,2,seqs/st2seq25.csv,338.612,370.6343,space,31.4927,,370.6433,370.6434,370.645,375.3838,1,1,right,4.2057,,375.3855,379.4835,0,0,left,379.4847,379.4859,,1,,1,379.4859,379.486,379.4873,380.9825,0,0,0,0,1,0.6,0.4,0.4,0.6,,,,,,,,,,,,,,,3.555,,0.2,0.8,0.8,0.2,0.4,0.6,0.8,0.2,1,0,,,,,,,,,,,,
,,66aa5aaa7f31ee53f61079ac,66fc993a35423bf8b2a11e9a,2024-10-01_17h55.01.381,mdp,2024.2.1,Win32,59.88023952,66fa4ebf79326e780c390304,,,,,,,,,,,,,,,,,,,,,380.983,380.983,380.9846,384.3982,0,1,left,2.8878,,384.3995,389.2799,0,0,left,389.2818,389.283,,1,,1,389.283,389.283,389.284,390.7797,0,1,1,1,1,0.6,0.4,0.4,0.6,,,,,,,,,,,,,,,4.3552,,0.2,0.8,0.8,0.2,0.4,0.6,0.8,0.2,1,0,,,,,,,,,,,,
,,66aa5aaa7f31ee53f61079ac,66fc993a35423bf8b2a11e9a,2024-10-01_17h55.01.381,mdp,2024.2.1,Win32,59.88023952,66fa4ebf79326e780c390304,,,,,,,,,,,,,,,,,,,,,390.7802,390.7802,390.7818,393.5129,0,1,left,2.1996,,393.5143,394.713,0,0,left,394.7144,394.7155,,1,,1,394.7155,394.7155,394.7166,396.2121,0,2,2,2,1,0.8,0.2,0.8,0.2,,,,,,,,,,,,,,,0.678,,0.2,0.8,0.8,0.2,0.4,0.6,0.8,0.2,1,0,,,,,,,,,,,,
,,66aa5aaa7f31ee53f61079ac,66fc993a35423bf8b2a11e9a,2024-10-01_17h55.01.381,mdp,2024.2.1,Win32,59.88023952,66fa4ebf79326e780c390304,,,,,,,,,,,,,,,,,,,,,396.2126,396.2126,396.2139,397.7617,0,0,left,1.0199,,397.7632,399.5782,1,0,right,399.5794,399.5805,,0,,1,399.5805,399.5805,399.5816,401.0766,0,3,3,3,1,0.8,0.2,0.8,0.2,,,,,,,,,,,,,,,1.2736,,0.2,0.8,0.8,0.2,0.4,0.6,0.8,0.2,1,0,,,,,,,,,,,,
,,66aa5aaa7f31ee53f61079ac,66fc993a35423bf8b2a11e9a,2024-10-01_17h55.01.381,mdp,2024.2.1,Win32,59.88023952,66fa4ebf79326e780c390304,,,,,,,,,,,,,,,,,,,,,401.0773,401.0773,401.0788,405.826,0,0,left,4.2169,,405.8276,407.1924,1,1,right,407.1939,407.1949,,0,,0,407.195,407.195,407.1962,408.6918,0,4,4,4,1,0.8,0.2,0.8,0.2,,,,,,,,,,,,,,,0.8403,,0.2,0.8,0.8,0.2,0.4,0.6,0.8,0.2,1,0,,,,,,,,,,,,
,,66aa5aaa7f31ee53f61079ac,66fc993a35423bf8b2a11e9a,2024-10-01_17h55.01.381,mdp,2024.2.1,Win32,59.88023952,66fa4ebf79326e780c390304,,,,,,,,,,,,,,,,,,,,,408.6922,408.6922,408.6937,409.8088,0,0,left,0.5843,,409.8106,411.758,0,1,left,411.7592,411.7603,,1,,0,411.7604,411.7604,411.7614,413.2571,0,5,5,5,1,0.8,0.2,0.8,0.2,,,,,,,,,,,,,,,1.4225,,0.2,0.8,0.8,0.2,0.4,0.6,0.8,0.2,1,0,,,,,,,,,,,,
,,66aa5aaa7f31ee53f61079ac,66fc993a35423bf8b2a11e9a,2024-10-01_17h55.01.381,mdp,2024.2.1,Win32,59.88023952,66fa4ebf79326e780c390304,,,,,,,,,,,,,,,,,,,,,413.2575,413.2576,413.2589,414.8072,0,1,left,1.0215,,414.8092,417.3063,1,0,right,417.3078,417.3088,,0,,1,417.3088,417.3088,417.31,418.8056,0,6,6,6,1,0.8,0.2,0.8,0.2,,,,,,,,,,,,,,,1.9614,,0.2,0.8,0.8,0.2,0.4,0.6,0.8,0.2,1,0,,,,,,,,,,,,
,,66aa5aaa7f31ee53f61079ac,66fc993a35423bf8b2a11e9a,2024-10-01_17h55.01.381,mdp,2024.2.1,Win32,59.88023952,66fa4ebf79326e780c390304,,,,,,,,,,,,,,,,,,,,,418.8064,418.8064,418.8083,420.0721,0,0,left,0.7337,,420.0734,421.6552,1,1,right,421.6566,421.6576,,1,,0,421.6576,421.6576,421.6588,423.1547,0,7,7,7,1,0.8,0.2,0.8,0.2,,,,,,,,,,,,,,,1.0504,,0.2,0.8,0.8,0.2,0.4,0.6,0.8,0.2,1,0,,,,,,,,,,,,
,,66aa5aaa7f31ee53f61079ac,66fc993a35423bf8b2a11e9a,2024-10-01_17h55.01.381,mdp,2024.2.1,Win32,59.88023952,66fa4ebf79326e780c390304,,,,,,,,,,,,,,,,,,,,,423.1551,423.1552,423.1565,424.1381,0,0,left,0.4515,,424.1397,426.3539,1,0,right,426.3555,426.3565,,1,,1,426.3565,426.3565,426.3576,427.8536,0,8,8,8,1,0.8,0.2,0.8,0.2,,,,,,,,,,,,,,,1.6838,,0.2,0.8,0.8,0.2,0.4,0.6,0.8,0.2,1,0,,,,,,,,,,,,
,,66aa5aaa7f31ee53f61079ac,66fc993a35423bf8b2a11e9a,2024-10-01_17h55.01.381,mdp,2024.2.1,Win32,59.88023952,66fa4ebf79326e780c390304,,,,,,,,,,,,,,,,,,,,,427.8541,427.8542,427.8555,429.12,0,0,left,0.7357,,429.1212,431.1525,0,1,left,431.1544,431.1557,,0,,0,431.1557,431.1557,431.157,432.6517,0,9,9,9,1,0.8,0.2,0.8,0.2,,,,,,,,,,,,,,,1.5231,,0.2,0.8,0.8,0.2,0.4,0.6,0.8,0.2,1,0,,,,,,,,,,,,
,,66aa5aaa7f31ee53f61079ac,66fc993a35423bf8b2a11e9a,2024-10-01_17h55.01.381,mdp,2024.2.1,Win32,59.88023952,66fa4ebf79326e780c390304,,,,,,,,,,,,,,,,,,,,,432.6523,432.6523,432.6537,434.0183,0,1,left,0.8341,,434.0203,435.8012,0,0,left,435.8028,435.8039,,0,,1,435.804,435.804,435.8051,437.3001,0,10,10,10,1,0.8,0.2,0.8,0.2,,,,,,,,,,,,,,,1.243,,0.2,0.8,0.8,0.2,0.4,0.6,0.8,0.2,1,0,,,,,,,,,,,,
,,66aa5aaa7f31ee53f61079ac,66fc993a35423bf8b2a11e9a,2024-10-01_17h55.01.381,mdp,2024.2.1,Win32,59.88023952,66fa4ebf79326e780c390304,,,,,,,,,,,,,,,,,,,,,437.3007,437.3007,437.3025,438.4831,0,0,left,0.6511,,438.4852,440.0837,1,0,right,440.0856,440.0866,,0,,1,440.0868,440.0868,440.0878,441.5824,0,11,11,11,1,0.8,0.2,0.8,0.2,,,,,,,,,,,,,,,1.0768,,0.2,0.8,0.8,0.2,0.4,0.6,0.8,0.2,1,0,,,,,,,,,,,,
,,66aa5aaa7f31ee53f61079ac,66fc993a35423bf8b2a11e9a,2024-10-01_17h55.01.381,mdp,2024.2.1,Win32,59.88023952,66fa4ebf79326e780c390304,,,,,,,,,,,,,,,,,,,,,441.5833,441.5833,441.5849,442.7652,0,1,left,0.6511,,442.7675,444.5319,0,1,left,444.5338,444.5348,,1,,0,444.5349,444.5349,444.536,446.032,0,12,12,12,1,0.2,0.8,0.6,0.4,,,,,,,,,,,,,,,1.2423,,0.2,0.8,0.8,0.2,0.4,0.6,0.8,0.2,1,0,,,,,,,,,,,,
,,66aa5aaa7f31ee53f61079ac,66fc993a35423bf8b2a11e9a,2024-10-01_17h55.01.381,mdp,2024.2.1,Win32,59.88023952,66fa4ebf79326e780c390304,,,,,,,,,,,,,,,,,,,,,446.0325,446.0325,446.0341,447.3986,0,0,left,0.8336,,447.4001,448.6647,1,0,right,448.6664,448.6673,,0,,1,448.6674,448.6674,448.6686,450.1632,0,13,13,13,1,0.2,0.8,0.6,0.4,,,,,,,,,,,,,,,0.7349,,0.2,0.8,0.8,0.2,0.4,0.6,0.8,0.2,1,0,,,,,,,,,,,,
,,66aa5aaa7f31ee53f61079ac,66fc993a35423bf8b2a11e9a,2024-10-01_17h55.01.381,mdp,2024.2.1,Win32,59.88023952,66fa4ebf79326e780c390304,,,,,,,,,,,,,,,,,,,,,450.1641,450.1641,450.1655,451.7472,0,0,left,1.0576,,451.7485,453.7465,0,0,left,453.748,453.749,,1,,1,453.7491,453.7491,453.7501,455.2456,0,14,14,14,1,0.2,0.8,0.6,0.4,,,,,,,,,,,,,,,1.4752,,0.2,0.8,0.8,0.2,0.4,0.6,0.8,0.2,1,0,,,,,,,,,,,,
,,66aa5aaa7f31ee53f61079ac,66fc993a35423bf8b2a11e9a,2024-10-01_17h55.01.381,mdp,2024.2.1,Win32,59.88023952,66fa4ebf79326e780c390304,,,,,,,,,,,,,,,,,,,,,455.2464,455.2464,455.2483,456.6627,0,1,left,0.884,,456.6639,458.3449,1,0,right,458.3466,458.3478,,0,,1,458.3478,458.3479,458.3488,459.8448,0,15,15,15,1,0.2,0.8,0.6,0.4,,,,,,,,,,,,,,,1.143,,0.2,0.8,0.8,0.2,0.4,0.6,0.8,0.2,1,0,,,,,,,,,,,,
,,66aa5aaa7f31ee53f61079ac,66fc993a35423bf8b2a11e9a,2024-10-01_17h55.01.381,mdp,2024.2.1,Win32,59.88023952,66fa4ebf79326e780c390304,,,,,,,,,,,,,,,,,,,,,459.8454,459.8454,459.8468,460.6778,0,1,left,0.3045,,460.6792,461.9946,0,1,left,461.9964,461.9975,,1,,0,461.9975,461.9975,461.9986,463.4938,0,16,16,16,1,0.2,0.8,0.6,0.4,,,,,,,,,,,,,,,0.796,,0.2,0.8,0.8,0.2,0.4,0.6,0.8,0.2,1,0,,,,,,,,,,,,
,,66aa5aaa7f31ee53f61079ac,66fc993a35423bf8b2a11e9a,2024-10-01_17h55.01.381,mdp,2024.2.1,Win32,59.88023952,66fa4ebf79326e780c390304,,,,,,,,,,,,,,,,,,,,,463.4942,463.4942,463.4955,464.7104,0,1,left,0.6854,,464.7117,465.86,0,1,left,465.8614,465.8627,,1,,0,465.8627,465.8627,465.8638,467.3603,0,17,17,17,1,0.2,0.8,0.6,0.4,,,,,,,,,,,,,,,0.6254,,0.2,0.8,0.8,0.2,0.4,0.6,0.8,0.2,1,0,,,,,,,,,,,,
,,66aa5aaa7f31ee53f61079ac,66fc993a35423bf8b2a11e9a,2024-10-01_17h55.01.381,mdp,2024.2.1,Win32,59.88023952,66fa4ebf79326e780c390304,,,,,,,,,,,,,,,,,,,,,467.3608,467.3608,467.3623,468.2928,0,1,left,0.4018,,468.2942,469.4258,1,0,right,469.4271,469.4284,,0,,1,469.4284,469.4284,469.4296,470.9241,0,18,18,18,1,0.2,0.8,0.6,0.4,,,,,,,,,,,,,,,0.6009,,0.2,0.8,0.8,0.2,0.4,0.6,0.8,0.2,1,0,,,,,,,,,,,,
,,66aa5aaa7f31ee53f61079ac,66fc993a35423bf8b2a11e9a,2024-10-01_17h55.01.381,mdp,2024.2.1,Win32,59.88023952,66fa4ebf79326e780c390304,,,,,,,,,,,,,,,,,,,,,470.9258,470.9258,470.9271,472.5751,0,1,left,1.1176,,472.5763,473.8078,1,1,right,473.8097,473.8113,,0,,0,473.8115,473.8115,473.8127,475.3071,0,19,19,19,1,0.2,0.8,0.6,0.4,,,,,,,,,,,,,,,0.706,,0.2,0.8,0.8,0.2,0.4,0.6,0.8,0.2,1,0,,,,,,,,,,,,
,,66aa5aaa7f31ee53f61079ac,66fc993a35423bf8b2a11e9a,2024-10-01_17h55.01.381,mdp,2024.2.1,Win32,59.88023952,66fa4ebf79326e780c390304,,,,,,,,,,,,,,,,,,,,,475.3076,475.3077,475.3089,476.3067,0,1,left,0.4671,,476.3085,477.7234,0,0,left,477.725,477.726,,1,,1,477.726,477.7261,477.7272,479.2229,0,20,20,20,1,0.2,0.8,0.6,0.4,,,,,,,,,,,,,,,0.884,,0.2,0.8,0.8,0.2,0.4,0.6,0.8,0.2,1,0,,,,,,,,,,,,
,,66aa5aaa7f31ee53f61079ac,66fc993a35423bf8b2a11e9a,2024-10-01_17h55.01.381,mdp,2024.2.1,Win32,59.88023952,66fa4ebf79326e780c390304,,,,,,,,,,,,,,,,,,,,,479.2232,479.2233,479.2246,480.1222,0,1,left,0.3735,,480.1238,481.6395,0,0,left,481.6408,481.6419,,0,,1,481.642,481.642,481.643,483.1388,0,21,21,21,1,0.2,0.8,0.6,0.4,,,,,,,,,,,,,,,0.9879,,0.2,0.8,0.8,0.2,0.4,0.6,0.8,0.2,1,0,,,,,,,,,,,,
,,66aa5aaa7f31ee53f61079ac,66fc993a35423bf8b2a11e9a,2024-10-01_17h55.01.381,mdp,2024.2.1,Win32,59.88023952,66fa4ebf79326e780c390304,,,,,,,,,,,,,,,,,,,,,483.1392,483.1392,483.1405,484.622,0,1,left,0.9521,,484.6236,485.9385,1,0,right,485.9401,485.9411,,0,,1,485.9412,485.9413,485.9423,487.4367,0,22,22,22,1,0.2,0.8,0.6,0.4,,,,,,,,,,,,,,,0.7855,,0.4,0.6,0.2,0.8,0.4,0.6,0.8,0.2,1,0,,,,,,,,,,,,
,,66aa5aaa7f31ee53f61079ac,66fc993a35423bf8b2a11e9a,2024-10-01_17h55.01.381,mdp,2024.2.1,Win32,59.88023952,66fa4ebf79326e780c390304,,,,,,,,,,,,,,,,,,,,,487.4377,487.4377,487.4393,488.8696,0,1,left,0.9081,,488.8723,490.4701,1,1,right,490.4716,490.4726,,0,,0,490.4726,490.4727,490.4738,491.9689,0,23,23,23,1,0.2,0.8,0.6,0.4,,,,,,,,,,,,,,,1.0843,,0.4,0.6,0.2,0.8,0.4,0.6,0.8,0.2,1,0,,,,,,,,,,,,
,,66aa5aaa7f31ee53f61079ac,66fc993a35423bf8b2a11e9a,2024-10-01_17h55.01.381,mdp,2024.2.1,Win32,59.88023952,66fa4ebf79326e780c390304,,,,,,,,,,,,,,,,,,,,,491.9693,491.9694,491.9708,492.5694,0,0,left,0.0732,,492.5709,493.9524,0,1,left,493.9542,493.9553,,1,,0,493.9553,493.9554,493.9564,495.4519,0,24,24,24,1,0.2,0.8,0.6,0.4,,,,,,,,,,,,,,,0.8502,,0.4,0.6,0.2,0.8,0.4,0.6,0.8,0.2,1,0,,,,,,,,,,,,
,,66aa5aaa7f31ee53f61079ac,66fc993a35423bf8b2a11e9a,2024-10-01_17h55.01.381,mdp,2024.2.1,Win32,59.88023952,66fa4ebf79326e780c390304,,,,,,,,,,,,,,,,,,,,,495.4523,495.4523,495.4537,496.3858,0,0,left,0.4127,,496.3879,497.6178,1,1,right,497.6191,497.6201,,1,,0,497.6202,497.6202,497.6211,499.1176,0,25,25,25,1,0.2,0.8,0.6,0.4,,,,,,,,,,,,,,,0.7088,,0.4,0.6,0.2,0.8,0.4,0.6,0.8,0.2,1,0,,,,,,,,,,,,
,,66aa5aaa7f31ee53f61079ac,66fc993a35423bf8b2a11e9a,2024-10-01_17h55.01.381,mdp,2024.2.1,Win32,59.88023952,66fa4ebf79326e780c390304,,,,,,,,,,,,,,,,,,,,,499.1179,499.118,499.1198,499.984,0,1,left,0.3381,,499.9853,501.0506,0,1,left,501.0518,501.0529,,1,,0,501.053,501.053,501.054,502.5499,0,26,26,26,1,0.2,0.8,0.6,0.4,,,,,,,,,,,,,,,0.5282,,0.4,0.6,0.2,0.8,0.4,0.6,0.8,0.2,1,0,,,,,,,,,,,,
,,66aa5aaa7f31ee53f61079ac,66fc993a35423bf8b2a11e9a,2024-10-01_17h55.01.381,mdp,2024.2.1,Win32,59.88023952,66fa4ebf79326e780c390304,,,,,,,,,,,,,,,,,,,,,502.5509,502.5509,502.5523,503.4343,0,0,left,0.3634,,503.4359,504.4328,0,1,left,504.4342,504.4355,,1,,0,504.4355,504.4355,504.4366,505.9326,0,27,27,27,1,0.2,0.8,0.6,0.4,,,,,,,,,,,,,,,0.4594,,0.4,0.6,0.2,0.8,0.4,0.6,0.8,0.2,1,0,,,,,,,,,,,,
,,66aa5aaa7f31ee53f61079ac,66fc993a35423bf8b2a11e9a,2024-10-01_17h55.01.381,mdp,2024.2.1,Win32,59.88023952,66fa4ebf79326e780c390304,,,,,,,,,,,,,,,,,,,,,505.9331,505.9331,505.935,506.899,0,0,left,0.4394,,506.9001,508.0325,0,1,left,508.0341,508.0351,,1,,0,508.0352,508.0352,508.0362,509.5314,0,28,28,28,1,0.2,0.8,0.6,0.4,,,,,,,,,,,,,,,0.6137,,0.4,0.6,0.2,0.8,0.4,0.6,0.8,0.2,1,0,,,,,,,,,,,,
,,66aa5aaa7f31ee53f61079ac,66fc993a35423bf8b2a11e9a,2024-10-01_17h55.01.381,mdp,2024.2.1,Win32,59.88023952,66fa4ebf79326e780c390304,,,,,,,,,,,,,,,,,,,,,509.5319,509.5319,509.5336,510.5475,0,1,left,0.4846,,510.5489,511.5474,1,0,right,511.549,511.55,,1,,1,511.5501,511.5501,511.5514,513.0469,0,29,29,29,1,0.2,0.8,0.6,0.4,,,,,,,,,,,,,,,0.4606,,0.4,0.6,0.2,0.8,0.4,0.6,0.8,0.2,1,0,,,,,,,,,,,,
,,66aa5aaa7f31ee53f61079ac,66fc993a35423bf8b2a11e9a,2024-10-01_17h55.01.381,mdp,2024.2.1,Win32,59.88023952,66fa4ebf79326e780c390304,,,,,,,,,,,,,,,,,,,,,513.0473,513.0473,513.0486,513.9139,1,0,right,0.3345,,513.9153,515.3629,0,1,left,515.3648,515.3658,,0,,0,515.3659,515.3659,515.3672,516.8625,0,30,30,30,1,0.2,0.8,0.6,0.4,,,,,,,,,,,,,,,0.9111,,0.4,0.6,0.2,0.8,0.4,0.6,0.8,0.2,1,0,,,,,,,,,,,,
,,66aa5aaa7f31ee53f61079ac,66fc993a35423bf8b2a11e9a,2024-10-01_17h55.01.381,mdp,2024.2.1,Win32,59.88023952,66fa4ebf79326e780c390304,,,,,,,,,,,,,,,,,,,,,516.864,516.864,516.8654,518.6127,0,0,left,1.2198,,518.6141,519.5451,1,1,right,519.5465,519.5479,,0,,0,519.548,519.548,519.5492,521.0447,0,31,31,31,1,0.2,0.8,0.6,0.4,,,,,,,,,,,,,,,0.4081,,0.4,0.6,0.2,0.8,0.4,0.6,0.8,0.2,1,0,,,,,,,,,,,,
,,66aa5aaa7f31ee53f61079ac,66fc993a35423bf8b2a11e9a,2024-10-01_17h55.01.381,mdp,2024.2.1,Win32,59.88023952,66fa4ebf79326e780c390304,,,,,,,,,,,,,,,,,,,,,521.0456,521.0456,521.0472,522.2112,0,0,left,0.6342,,522.2132,523.6279,0,1,left,523.629,523.6301,,0,,0,523.6301,523.6302,523.6312,525.127,0,32,32,32,1,0.6,0.4,0.4,0.6,,,,,,,,,,,,,,,0.886,,0.4,0.6,0.2,0.8,0.4,0.6,0.8,0.2,1,0,,,,,,,,,,,,
,,66aa5aaa7f31ee53f61079ac,66fc993a35423bf8b2a11e9a,2024-10-01_17h55.01.381,mdp,2024.2.1,Win32,59.88023952,66fa4ebf79326e780c390304,,,,,,,,,,,,,,,,,,,,,525.1278,525.1278,525.1292,526.0604,0,0,left,0.4019,,526.0617,527.5604,1,1,right,527.5616,527.5631,,0,,0,527.5631,527.5631,527.5642,529.0597,0,33,33,33,1,0.6,0.4,0.4,0.6,,,,,,,,,,,,,,,0.9678,,0.8,0.2,0.6,0.4,0.4,0.6,0.8,0.2,1,0,,,,,,,,,,,,
,,66aa5aaa7f31ee53f61079ac,66fc993a35423bf8b2a11e9a,2024-10-01_17h55.01.381,mdp,2024.2.1,Win32,59.88023952,66fa4ebf79326e780c390304,,,,,,,,,,,,,,,,,,,,,529.06,529.06,529.0614,529.9602,0,1,left,0.3795,,529.9616,531.4756,1,0,right,531.4771,531.4781,,0,,1,531.4781,531.4781,531.4792,532.9748,0,34,34,34,1,0.6,0.4,0.4,0.6,,,,,,,,,,,,,,,0.9761,,0.8,0.2,0.6,0.4,0.4,0.6,0.8,0.2,1,0,,,,,,,,,,,,
,,66aa5aaa7f31ee53f61079ac,66fc993a35423bf8b2a11e9a,2024-10-01_17h55.01.381,mdp,2024.2.1,Win32,59.88023952,66fa4ebf79326e780c390304,,,,,,,,,,,,,,,,,,,,,532.9757,532.9757,532.9775,534.2417,0,0,left,0.7358,,534.2432,535.942,1,1,right,535.9436,535.9446,,1,,0,535.9446,535.9446,535.9458,537.4403,0,35,35,35,1,0.6,0.4,0.4,0.6,,,,,,,,,,,,,,,1.1731,,0.8,0.2,0.6,0.4,0.4,0.6,0.8,0.2,1,0,,,,,,,,,,,,
,,66aa5aaa7f31ee53f61079ac,66fc993a35423bf8b2a11e9a,2024-10-01_17h55.01.381,mdp,2024.2.1,Win32,59.88023952,66fa4ebf79326e780c390304,,,,,,,,,,,,,,,,,,,,,537.4409,537.4409,537.4426,538.1407,0,0,left,0.171,,538.1419,539.4235,0,0,left,539.4249,539.4258,,0,,1,539.4259,539.426,539.427,540.9228,0,36,36,36,1,0.6,0.4,0.4,0.6,,,,,,,,,,,,,,,0.7542,,0.8,0.2,0.6,0.4,0.4,0.6,0.8,0.2,1,0,,,,,,,,,,,,
,,66aa5aaa7f31ee53f61079ac,66fc993a35423bf8b2a11e9a,2024-10-01_17h55.01.381,mdp,2024.2.1,Win32,59.88023952,66fa4ebf79326e780c390304,,,,,,,,,,,,,,,,,,,,,540.9233,540.9233,540.9249,541.8395,0,1,left,0.3844,,541.841,542.9557,0,1,left,542.9577,542.9587,,0,,0,542.9587,542.9587,542.9598,544.4549,0,37,37,37,1,0.6,0.4,0.4,0.6,,,,,,,,,,,,,,,0.5891,,0.8,0.2,0.6,0.4,0.4,0.6,0.8,0.2,1,0,,,,,,,,,,,,
,,66aa5aaa7f31ee53f61079ac,66fc993a35423bf8b2a11e9a,2024-10-01_17h55.01.381,mdp,2024.2.1,Win32,59.88023952,66fa4ebf79326e780c390304,,,,,,,,,,,,,,,,,,,,,544.4557,544.4557,544.4571,545.3719,0,0,left,0.3888,,545.3736,546.5884,0,0,left,546.59,546.5911,,0,,1,546.5911,546.5911,546.5927,548.0882,0,38,38,38,1,0.6,0.4,0.4,0.6,,,,,,,,,,,,,,,0.6777,,0.8,0.2,0.6,0.4,0.4,0.6,0.8,0.2,1,0,,,,,,,,,,,,
,,66aa5aaa7f31ee53f61079ac,66fc993a35423bf8b2a11e9a,2024-10-01_17h55.01.381,mdp,2024.2.1,Win32,59.88023952,66fa4ebf79326e780c390304,,,,,,,,,,,,,,,,,,,,,548.0887,548.0887,548.0902,549.1709,0,1,left,0.5508,,549.1725,550.5706,0,1,left,550.5718,550.5729,,1,,0,550.5729,550.5729,550.5742,552.07,0,39,39,39,1,0.6,0.4,0.4,0.6,,,,,,,,,,,,,,,0.8604,,0.8,0.2,0.6,0.4,0.4,0.6,0.8,0.2,1,0,,,,,,,,,,,,
,,66aa5aaa7f31ee53f61079ac,66fc993a35423bf8b2a11e9a,2024-10-01_17h55.01.381,mdp,2024.2.1,Win32,59.88023952,66fa4ebf79326e780c390304,,,,,,,,,,,,,,,,,,,,,552.0706,552.0706,552.072,553.6698,0,0,left,1.0676,,553.6712,554.719,1,0,right,554.721,554.722,,0,,1,554.7221,554.7221,554.7232,556.2181,0,40,40,40,1,0.6,0.4,0.4,0.6,,,,,,,,,,,,,,,0.5118,,0.8,0.2,0.6,0.4,0.4,0.6,0.8,0.2,1,0,,,,,,,,,,,,
,,66aa5aaa7f31ee53f61079ac,66fc993a35423bf8b2a11e9a,2024-10-01_17h55.01.381,mdp,2024.2.1,Win32,59.88023952,66fa4ebf79326e780c390304,,,,,,,,,,,,,,,,,,,,,556.2186,556.2186,556.22,558.0017,0,0,left,1.2579,,558.0032,559.2345,1,0,right,559.2359,559.237,,0,,1,559.2371,559.2371,559.2383,560.7341,0,41,41,41,1,0.8,0.2,0.6,0.4,,,,,,,,,,,,,,,0.7036,,0.8,0.2,0.6,0.4,0.4,0.6,0.8,0.2,1,0,,,,,,,,,,,,
,,66aa5aaa7f31ee53f61079ac,66fc993a35423bf8b2a11e9a,2024-10-01_17h55.01.381,mdp,2024.2.1,Win32,59.88023952,66fa4ebf79326e780c390304,,,,,,,,,,,,,,,,,,,,,560.7347,560.7347,560.7359,562.0505,0,0,left,0.7875,,562.0523,563.1681,0,1,left,563.1695,563.1706,,0,,0,563.1706,563.1706,563.1717,564.6662,0,42,42,42,1,0.8,0.2,0.6,0.4,,,,,,,,,,,,,,,0.5969,,0.8,0.2,0.6,0.4,0.4,0.6,0.8,0.2,1,0,,,,,,,,,,,,
,,66aa5aaa7f31ee53f61079ac,66fc993a35423bf8b2a11e9a,2024-10-01_17h55.01.381,mdp,2024.2.1,Win32,59.88023952,66fa4ebf79326e780c390304,,,,,,,,,,,,,,,,,,,,,564.6667,564.6667,564.668,565.4831,0,0,left,0.2849,,565.4846,566.7495,1,1,right,566.751,566.7521,,0,,0,566.7522,566.7522,566.7532,568.249,0,43,43,43,1,0.8,0.2,0.6,0.4,,,,,,,,,,,,,,,0.7397,,0.8,0.2,0.6,0.4,0.4,0.6,0.8,0.2,1,0,,,,,,,,,,,,
,,66aa5aaa7f31ee53f61079ac,66fc993a35423bf8b2a11e9a,2024-10-01_17h55.01.381,mdp,2024.2.1,Win32,59.88023952,66fa4ebf79326e780c390304,,,,,,,,,,,,,,,,,,,,,568.2494,568.2495,568.2508,570.2499,0,0,left,1.4803,,570.2512,571.1647,0,0,left,571.1663,571.1673,,1,,1,571.1673,571.1673,571.1685,572.6644,0,44,44,44,1,0.8,0.2,0.6,0.4,,,,,,,,,,,,,,,0.3853,,0.8,0.2,0.6,0.4,0.4,0.6,0.8,0.2,1,0,,,,,,,,,,,,
,,66aa5aaa7f31ee53f61079ac,66fc993a35423bf8b2a11e9a,2024-10-01_17h55.01.381,mdp,2024.2.1,Win32,59.88023952,66fa4ebf79326e780c390304,,,,,,,,,,,,,,,,,,,,,572.6648,572.6649,572.666,573.8976,0,0,left,0.7009,,573.899,574.9641,0,1,left,574.9655,574.9664,,1,,0,574.9665,574.9665,574.9676,576.4636,0,45,45,45,1,0.8,0.2,0.6,0.4,,,,,,,,,,,,,,,0.5388,,0.4,0.6,0.8,0.2,0.4,0.6,0.8,0.2,1,0,,,,,,,,,,,,
,,66aa5aaa7f31ee53f61079ac,66fc993a35423bf8b2a11e9a,2024-10-01_17h55.01.381,mdp,2024.2.1,Win32,59.88023952,66fa4ebf79326e780c390304,,,,,,,,,,,,,,,,,,,,,576.4641,576.4641,576.4654,577.4131,0,0,left,0.4217,,577.4146,578.2631,1,1,right,578.2645,578.2657,,0,,0,578.2658,578.2658,578.2668,579.7625,0,46,46,46,1,0.8,0.2,0.6,0.4,,,,,,,,,,,,,,,0.3251,,0.4,0.6,0.8,0.2,0.4,0.6,0.8,0.2,1,0,,,,,,,,,,,,
,,66aa5aaa7f31ee53f61079ac,66fc993a35423bf8b2a11e9a,2024-10-01_17h55.01.381,mdp,2024.2.1,Win32,59.88023952,66fa4ebf79326e780c390304,,,,,,,,,,,,,,,,,,,,,579.763,579.763,579.7643,580.713,0,0,left,0.4303,,580.7145,581.7119,1,0,right,581.7136,581.7146,,0,,1,581.7147,581.7147,581.7157,583.2114,0,47,47,47,1,0.8,0.2,0.6,0.4,,,,,,,,,,,,,,,0.4746,,0.4,0.6,0.8,0.2,0.4,0.6,0.8,0.2,1,0,,,,,,,,,,,,
,,66aa5aaa7f31ee53f61079ac,66fc993a35423bf8b2a11e9a,2024-10-01_17h55.01.381,mdp,2024.2.1,Win32,59.88023952,66fa4ebf79326e780c390304,,,,,,,,,,,,,,,,,,,,,583.212,583.212,583.2134,584.1293,0,0,left,0.3975,,584.1305,585.1279,0,1,left,585.1293,585.1304,,0,,0,585.1304,585.1304,585.1316,586.6274,0,48,48,48,1,0.8,0.2,0.6,0.4,,,,,,,,,,,,,,,0.4676,,0.4,0.6,0.8,0.2,0.4,0.6,0.8,0.2,1,0,,,,,,,,,,,,
,,66aa5aaa7f31ee53f61079ac,66fc993a35423bf8b2a11e9a,2024-10-01_17h55.01.381,mdp,2024.2.1,Win32,59.88023952,66fa4ebf79326e780c390304,,,,,,,,,,,,,,,,,,,,,586.6278,586.6278,586.6294,587.5104,0,0,left,0.3539,,587.5118,588.4444,0,0,left,588.4458,588.4468,,1,,1,588.4468,588.4469,588.448,589.943,0,49,49,49,1,0.8,0.2,0.6,0.4,,,,,,,,,,,,,,,0.4026,,0.4,0.6,0.8,0.2,0.4,0.6,0.8,0.2,1,0,,,,,,,,,,,,
,,66aa5aaa7f31ee53f61079ac,66fc993a35423bf8b2a11e9a,2024-10-01_17h55.01.381,mdp,2024.2.1,Win32,59.88023952,66fa4ebf79326e780c390304,,,,,,,,,,,,,,,,,,,,,,,,,,,,,,,,,,,,,,,,,,,,,,,,,,,,,,,,589.9431,648.4604,0,1,1,6,1,imgs/kangaroo.png,imgs/lion.png,imgs/giraffe.png,imgs/pig.png,imgs/rabbit.png,,,,,,,,,,,,,,,,,,,,,,,,
,,66aa5aaa7f31ee53f61079ac,66fc993a35423bf8b2a11e9a,2024-10-01_17h55.01.381,mdp,2024.2.1,Win32,59.88023952,66fa4ebf79326e780c390304,,,,,,,,,,,,,,3,seqs/st3seq10.csv,648.4622,650.8758,space,1.906,,650.8845,650.8846,650.886,653.093,0,0,left,1.6728,,653.0944,655.1602,0,0,left,655.1617,656.6442,1,1,right,0,656.6443,656.6443,656.6462,658.1412,0,0,0,0,1,0.8,0.2,0.4,0.6,,,,,,,,,,,,,,,1.5381,,0.8,0.2,0.2,0.8,0.4,0.6,0.4,0.6,,,0.9555,,0.6,0.4,0.2,0.8,0.4,0.6,0.8,0.2,1,0
,,66aa5aaa7f31ee53f61079ac,66fc993a35423bf8b2a11e9a,2024-10-01_17h55.01.381,mdp,2024.2.1,Win32,59.88023952,66fa4ebf79326e780c390304,,,,,,,,,,,,,,,,,,,,,658.1421,658.1421,658.1437,659.2574,0,0,left,0.5867,,659.2589,661.0899,0,0,left,661.0921,662.4566,1,1,right,0,662.4569,662.4569,662.4581,663.9563,0,1,1,1,1,0.8,0.2,0.4,0.6,,,,,,,,,,,,,,,1.3013,,0.8,0.2,0.2,0.8,0.4,0.6,0.4,0.6,,,0.8418,,0.6,0.4,0.2,0.8,0.4,0.6,0.8,0.2,1,0
,,66aa5aaa7f31ee53f61079ac,66fc993a35423bf8b2a11e9a,2024-10-01_17h55.01.381,mdp,2024.2.1,Win32,59.88023952,66fa4ebf79326e780c390304,,,,,,,,,,,,,,,,,,,,,663.9568,663.9569,663.9582,664.6394,0,0,left,0.1537,,664.641,666.139,0,0,left,666.141,667.1223,0,0,left,1,667.1226,667.1226,667.1241,668.622,0,2,2,2,1,0.8,0.2,0.4,0.6,,,,,,,,,,,,,,,0.9685,,0.8,0.2,0.2,0.8,0.4,0.6,0.4,0.6,,,0.4561,,0.6,0.4,0.2,0.8,0.4,0.6,0.8,0.2,1,0
,,66aa5aaa7f31ee53f61079ac,66fc993a35423bf8b2a11e9a,2024-10-01_17h55.01.381,mdp,2024.2.1,Win32,59.88023952,66fa4ebf79326e780c390304,,,,,,,,,,,,,,,,,,,,,668.6226,668.6226,668.624,669.6393,0,0,left,0.4973,,669.6404,670.7379,0,1,left,670.7391,672.6041,0,1,left,0,672.6042,672.6042,672.6057,674.1035,0,3,3,3,1,0.8,0.2,0.4,0.6,,,,,,,,,,,,,,,0.5743,,0.8,0.2,0.2,0.8,0.4,0.6,0.4,0.6,,,1.329,,0.6,0.4,0.2,0.8,0.4,0.6,0.8,0.2,1,0
,,66aa5aaa7f31ee53f61079ac,66fc993a35423bf8b2a11e9a,2024-10-01_17h55.01.381,mdp,2024.2.1,Win32,59.88023952,66fa4ebf79326e780c390304,,,,,,,,,,,,,,,,,,,,,674.1043,674.1043,674.1063,675.0366,0,0,left,0.4051,,675.0386,675.8698,0,0,left,675.8713,676.8211,1,0,right,1,676.8211,676.8211,676.8229,678.319,0,4,4,4,1,0.8,0.2,0.4,0.6,,,,,,,,,,,,,,,0.3021,,0.4,0.6,0.6,0.4,0.4,0.6,0.4,0.6,,,0.4233,,0.6,0.4,0.2,0.8,0.4,0.6,0.8,0.2,1,0
,,66aa5aaa7f31ee53f61079ac,66fc993a35423bf8b2a11e9a,2024-10-01_17h55.01.381,mdp,2024.2.1,Win32,59.88023952,66fa4ebf79326e780c390304,,,,,,,,,,,,,,,,,,,,,678.3199,678.3199,678.3217,679.2193,0,0,left,0.3679,,679.2209,680.2189,0,0,left,680.2203,681.3525,1,0,right,1,681.3525,681.3525,681.3538,682.8516,0,5,5,5,1,0.8,0.2,0.4,0.6,,,,,,,,,,,,,,,0.4733,,0.4,0.6,0.6,0.4,0.2,0.8,0.2,0.8,,,0.6055,,0.6,0.4,0.2,0.8,0.4,0.6,0.8,0.2,1,0
,,66aa5aaa7f31ee53f61079ac,66fc993a35423bf8b2a11e9a,2024-10-01_17h55.01.381,mdp,2024.2.1,Win32,59.88023952,66fa4ebf79326e780c390304,,,,,,,,,,,,,,,,,,,,,682.8524,682.8524,682.8537,683.9007,0,0,left,0.5253,,683.9021,684.8679,0,1,left,684.8692,686.8498,0,0,left,1,686.85,686.85,686.852,688.3496,0,6,6,6,1,0.8,0.2,0.4,0.6,,,,,,,,,,,,,,,0.4402,,0.4,0.6,0.6,0.4,0.2,0.8,0.2,0.8,,,1.4418,,0.6,0.4,0.2,0.8,0.4,0.6,0.8,0.2,1,0
,,66aa5aaa7f31ee53f61079ac,66fc993a35423bf8b2a11e9a,2024-10-01_17h55.01.381,mdp,2024.2.1,Win32,59.88023952,66fa4ebf79326e780c390304,,,,,,,,,,,,,,,,,,,,,688.3502,688.3504,688.3519,689.3007,0,0,left,0.4297,,689.3019,690.6495,0,1,left,690.6509,692.3992,1,1,right,0,692.3993,692.3993,692.4005,693.8983,0,7,7,7,1,0.8,0.2,0.4,0.6,,,,,,,,,,,,,,,0.8177,,0.4,0.6,0.6,0.4,0.2,0.8,0.2,0.8,,,1.2316,,0.6,0.4,0.2,0.8,0.2,0.8,0.4,0.6,1,0
,,66aa5aaa7f31ee53f61079ac,66fc993a35423bf8b2a11e9a,2024-10-01_17h55.01.381,mdp,2024.2.1,Win32,59.88023952,66fa4ebf79326e780c390304,,,,,,,,,,,,,,,,,,,,,693.899,693.899,693.9003,694.6983,0,0,left,0.2682,,694.6998,695.9643,0,1,left,695.9656,696.9148,0,1,left,0,696.915,696.9151,696.9165,698.4139,0,8,8,8,1,0.8,0.2,0.4,0.6,,,,,,,,,,,,,,,0.7425,,0.4,0.6,0.6,0.4,0.2,0.8,0.2,0.8,,,0.4295,,0.6,0.4,0.2,0.8,0.2,0.8,0.4,0.6,1,0
,,66aa5aaa7f31ee53f61079ac,66fc993a35423bf8b2a11e9a,2024-10-01_17h55.01.381,mdp,2024.2.1,Win32,59.88023952,66fa4ebf79326e780c390304,,,,,,,,,,,,,,,,,,,,,698.4144,698.4144,698.4156,699.5475,0,0,left,0.6002,,699.5492,701.0134,0,1,left,701.0148,703.446,0,0,left,1,703.4461,703.4461,703.4474,704.9455,0,9,9,9,1,0.8,0.2,0.4,0.6,,,,,,,,,,,,,,,0.9329,,0.4,0.6,0.6,0.4,0.2,0.8,0.2,0.8,,,1.9004,,0.6,0.4,0.2,0.8,0.2,0.8,0.4,0.6,1,0
,,66aa5aaa7f31ee53f61079ac,66fc993a35423bf8b2a11e9a,2024-10-01_17h55.01.381,mdp,2024.2.1,Win32,59.88023952,66fa4ebf79326e780c390304,,,,,,,,,,,,,,,,,,,,,704.946,704.9461,704.9474,706.6282,0,0,left,1.1523,,706.6299,708.3613,1,0,right,708.3629,709.8778,0,1,left,0,709.8779,709.8779,709.8793,711.3771,0,10,10,10,1,0.8,0.2,0.4,0.6,,,,,,,,,,,,,,,1.2003,,0.4,0.6,0.6,0.4,0.2,0.8,0.2,0.8,,,0.9756,,0.6,0.4,0.2,0.8,0.2,0.8,0.4,0.6,1,0
,,66aa5aaa7f31ee53f61079ac,66fc993a35423bf8b2a11e9a,2024-10-01_17h55.01.381,mdp,2024.2.1,Win32,59.88023952,66fa4ebf79326e780c390304,,,,,,,,,,,,,,,,,,,,,711.3776,711.3776,711.3789,712.7934,0,0,left,0.8871,,712.7947,714.8599,0,1,left,714.8612,716.4769,1,0,right,1,716.477,716.477,716.4782,717.9747,0,11,11,11,1,0.8,0.2,0.4,0.6,,,,,,,,,,,,,,,1.5356,,0.4,0.6,0.6,0.4,0.2,0.8,0.2,0.8,,,1.0906,,0.6,0.4,0.2,0.8,0.2,0.8,0.4,0.6,1,0
,,66aa5aaa7f31ee53f61079ac,66fc993a35423bf8b2a11e9a,2024-10-01_17h55.01.381,mdp,2024.2.1,Win32,59.88023952,66fa4ebf79326e780c390304,,,,,,,,,,,,,,,,,,,,,717.9756,717.9756,717.977,718.9755,0,0,left,0.4843,,718.9769,720.2083,0,1,left,720.2096,721.5578,1,0,right,1,721.558,721.558,721.5593,723.0577,0,12,12,12,1,0.8,0.2,0.4,0.6,,,,,,,,,,,,,,,0.7015,,0.4,0.6,0.6,0.4,0.2,0.8,0.2,0.8,,,0.8222,,0.2,0.8,0.6,0.4,0.2,0.8,0.4,0.6,1,0
,,66aa5aaa7f31ee53f61079ac,66fc993a35423bf8b2a11e9a,2024-10-01_17h55.01.381,mdp,2024.2.1,Win32,59.88023952,66fa4ebf79326e780c390304,,,,,,,,,,,,,,,,,,,,,723.0582,723.0582,723.0595,724.224,0,0,left,0.6326,,724.2256,725.7399,0,0,left,725.7416,727.8565,0,1,left,0,727.8566,727.8566,727.858,729.3558,0,13,13,13,1,0.8,0.2,0.4,0.6,,,,,,,,,,,,,,,0.9831,,0.4,0.6,0.6,0.4,0.2,0.8,0.2,0.8,,,1.5779,,0.2,0.8,0.6,0.4,0.2,0.8,0.4,0.6,1,0
,,66aa5aaa7f31ee53f61079ac,66fc993a35423bf8b2a11e9a,2024-10-01_17h55.01.381,mdp,2024.2.1,Win32,59.88023952,66fa4ebf79326e780c390304,,,,,,,,,,,,,,,,,,,,,729.3565,729.3565,729.3579,730.522,0,0,left,0.6344,,730.5236,731.9047,0,0,left,731.9065,733.4226,1,1,right,0,733.4227,733.4227,733.424,734.9201,0,14,14,14,1,0.8,0.2,0.4,0.6,,,,,,,,,,,,,,,0.8502,,0.8,0.2,0.8,0.2,0.2,0.8,0.2,0.8,,,0.9965,,0.2,0.8,0.6,0.4,0.2,0.8,0.4,0.6,1,0
,,66aa5aaa7f31ee53f61079ac,66fc993a35423bf8b2a11e9a,2024-10-01_17h55.01.381,mdp,2024.2.1,Win32,59.88023952,66fa4ebf79326e780c390304,,,,,,,,,,,,,,,,,,,,,734.9207,734.9207,734.9223,735.8714,0,0,left,0.4302,,735.8727,737.1534,0,1,left,737.1553,738.9531,1,1,right,0,738.9532,738.9533,738.9548,740.4525,0,15,15,15,1,0.8,0.2,0.4,0.6,,,,,,,,,,,,,,,0.7531,,0.8,0.2,0.8,0.2,0.2,0.8,0.2,0.8,,,1.2612,,0.2,0.8,0.6,0.4,0.2,0.8,0.4,0.6,1,0
,,66aa5aaa7f31ee53f61079ac,66fc993a35423bf8b2a11e9a,2024-10-01_17h55.01.381,mdp,2024.2.1,Win32,59.88023952,66fa4ebf79326e780c390304,,,,,,,,,,,,,,,,,,,,,740.4531,740.4531,740.4545,741.4521,0,1,left,0.4873,,741.4539,743.8688,0,1,left,743.8705,744.9348,1,0,right,1,744.9349,744.9349,744.9363,746.4341,0,16,16,16,1,0.8,0.2,0.4,0.6,,,,,,,,,,,,,,,1.8863,,0.8,0.2,0.8,0.2,0.2,0.8,0.2,0.8,,,0.5344,,0.2,0.8,0.6,0.4,0.2,0.8,0.4,0.6,1,0
,,66aa5aaa7f31ee53f61079ac,66fc993a35423bf8b2a11e9a,2024-10-01_17h55.01.381,mdp,2024.2.1,Win32,59.88023952,66fa4ebf79326e780c390304,,,,,,,,,,,,,,,,,,,,,746.4349,746.4349,746.4361,747.5509,0,0,left,0.5838,,747.5522,748.7336,1,1,right,748.7352,750.2837,1,1,right,0,750.2837,750.2837,750.2851,751.7823,0,17,17,17,1,0.8,0.2,0.4,0.6,,,,,,,,,,,,,,,0.6495,,0.8,0.2,0.8,0.2,0.2,0.8,0.2,0.8,,,1.0245,,0.2,0.8,0.6,0.4,0.2,0.8,0.4,0.6,1,0
,,66aa5aaa7f31ee53f61079ac,66fc993a35423bf8b2a11e9a,2024-10-01_17h55.01.381,mdp,2024.2.1,Win32,59.88023952,66fa4ebf79326e780c390304,,,,,,,,,,,,,,,,,,,,,751.7829,751.7829,751.7842,752.9158,0,0,left,0.6199,,752.9171,754.4982,0,0,left,754.5006,755.9318,1,0,right,1,755.932,755.9321,755.9336,757.4313,0,18,18,18,1,0.8,0.2,0.4,0.6,,,,,,,,,,,,,,,1.0511,,0.8,0.2,0.8,0.2,0.2,0.8,0.2,0.8,,,0.9116,,0.2,0.8,0.6,0.4,0.2,0.8,0.4,0.6,1,0
,,66aa5aaa7f31ee53f61079ac,66fc993a35423bf8b2a11e9a,2024-10-01_17h55.01.381,mdp,2024.2.1,Win32,59.88023952,66fa4ebf79326e780c390304,,,,,,,,,,,,,,,,,,,,,757.4317,757.4317,757.4332,758.3149,0,0,left,0.3521,,758.3163,759.3977,1,0,right,759.3993,760.4971,0,1,left,0,760.4974,760.4974,760.4986,761.9962,0,19,19,19,1,0.8,0.2,0.4,0.6,,,,,,,,,,,,,,,0.5526,,0.8,0.2,0.8,0.2,0.2,0.8,0.2,0.8,,,0.5748,,0.2,0.8,0.6,0.4,0.2,0.8,0.4,0.6,1,0
,,66aa5aaa7f31ee53f61079ac,66fc993a35423bf8b2a11e9a,2024-10-01_17h55.01.381,mdp,2024.2.1,Win32,59.88023952,66fa4ebf79326e780c390304,,,,,,,,,,,,,,,,,,,,,761.9972,761.9972,761.9985,763.0129,0,1,left,0.4921,,763.0151,764.3304,0,1,left,764.3317,765.4296,0,0,left,1,765.4297,765.4297,765.431,766.9288,0,20,20,20,1,0.8,0.2,0.4,0.6,,,,,,,,,,,,,,,0.7899,,0.8,0.2,0.8,0.2,0.2,0.8,0.2,0.8,,,0.5609,,0.4,0.6,0.8,0.2,0.2,0.8,0.4,0.6,1,0
,,66aa5aaa7f31ee53f61079ac,66fc993a35423bf8b2a11e9a,2024-10-01_17h55.01.381,mdp,2024.2.1,Win32,59.88023952,66fa4ebf79326e780c390304,,,,,,,,,,,,,,,,,,,,,766.9293,766.9293,766.9307,767.8623,0,0,left,0.4029,,767.8641,768.9785,1,0,right,768.9799,770.5114,0,0,left,1,770.5116,770.5116,770.5132,772.0108,0,21,21,21,1,0.8,0.2,0.4,0.6,,,,,,,,,,,,,,,0.5771,,0.8,0.2,0.8,0.2,0.2,0.8,0.2,0.8,,,1.0017,,0.4,0.6,0.8,0.2,0.2,0.8,0.4,0.6,1,0
,,66aa5aaa7f31ee53f61079ac,66fc993a35423bf8b2a11e9a,2024-10-01_17h55.01.381,mdp,2024.2.1,Win32,59.88023952,66fa4ebf79326e780c390304,,,,,,,,,,,,,,,,,,,,,772.0113,772.0113,772.0128,772.9602,0,0,left,0.4246,,772.9623,774.2933,0,1,left,774.2956,775.4435,1,1,right,0,775.4436,775.4436,775.4452,776.9421,0,22,22,22,1,0.8,0.2,0.4,0.6,,,,,,,,,,,,,,,0.8021,,0.2,0.8,0.6,0.4,0.2,0.8,0.2,0.8,,,0.6043,,0.4,0.6,0.8,0.2,0.2,0.8,0.4,0.6,1,0
,,66aa5aaa7f31ee53f61079ac,66fc993a35423bf8b2a11e9a,2024-10-01_17h55.01.381,mdp,2024.2.1,Win32,59.88023952,66fa4ebf79326e780c390304,,,,,,,,,,,,,,,,,,,,,776.9429,776.943,776.9445,777.859,0,0,left,0.386,,777.8612,779.1259,0,1,left,779.1272,780.1754,0,1,left,0,780.1755,780.1755,780.1767,781.6745,0,23,23,23,1,0.8,0.2,0.4,0.6,,,,,,,,,,,,,,,0.757,,0.2,0.8,0.6,0.4,0.2,0.8,0.2,0.8,,,0.5177,,0.4,0.6,0.8,0.2,0.2,0.8,0.4,0.6,1,0
,,66aa5aaa7f31ee53f61079ac,66fc993a35423bf8b2a11e9a,2024-10-01_17h55.01.381,mdp,2024.2.1,Win32,59.88023952,66fa4ebf79326e780c390304,,,,,,,,,,,,,,,,,,,,,781.6755,781.6755,781.677,782.3752,0,0,left,0.1669,,782.3767,783.6579,0,1,left,783.6596,784.7573,0,1,left,0,784.7574,784.7574,784.759,786.2567,0,24,24,24,1,0.8,0.2,0.4,0.6,,,,,,,,,,,,,,,0.7578,,0.2,0.8,0.6,0.4,0.2,0.8,0.2,0.8,,,0.5679,,0.4,0.6,0.8,0.2,0.2,0.8,0.4,0.6,1,0
,,66aa5aaa7f31ee53f61079ac,66fc993a35423bf8b2a11e9a,2024-10-01_17h55.01.381,mdp,2024.2.1,Win32,59.88023952,66fa4ebf79326e780c390304,,,,,,,,,,,,,,,,,,,,,786.2572,786.2572,786.2589,788.1239,0,0,left,1.3403,,788.1255,789.6061,0,1,left,789.6074,791.0394,0,1,left,0,791.0396,791.0396,791.0407,792.5387,0,25,25,25,1,0.8,0.2,0.4,0.6,,,,,,,,,,,,,,,0.9519,,0.2,0.8,0.6,0.4,0.2,0.8,0.2,0.8,,,0.9009,,0.4,0.6,0.8,0.2,0.2,0.8,0.4,0.6,1,0
,,66aa5aaa7f31ee53f61079ac,66fc993a35423bf8b2a11e9a,2024-10-01_17h55.01.381,mdp,2024.2.1,Win32,59.88023952,66fa4ebf79326e780c390304,,,,,,,,,,,,,,,,,,,,,792.5391,792.5392,792.5406,793.5052,0,0,left,0.4338,,793.5065,794.5879,0,1,left,794.5897,795.5549,1,1,right,0,795.555,795.555,795.5563,797.0539,0,26,26,26,1,0.8,0.2,0.4,0.6,,,,,,,,,,,,,,,0.5524,,0.2,0.8,0.6,0.4,0.2,0.8,0.2,0.8,,,0.4546,,0.4,0.6,0.8,0.2,0.2,0.8,0.4,0.6,1,0
,,66aa5aaa7f31ee53f61079ac,66fc993a35423bf8b2a11e9a,2024-10-01_17h55.01.381,mdp,2024.2.1,Win32,59.88023952,66fa4ebf79326e780c390304,,,,,,,,,,,,,,,,,,,,,797.0544,797.0544,797.0557,799.0039,0,0,left,1.4189,,799.0052,800.1198,1,0,right,800.1215,801.0361,0,1,left,0,801.0362,801.0362,801.0376,802.5359,0,27,27,27,1,0.8,0.2,0.4,0.6,,,,,,,,,,,,,,,0.5839,,0.2,0.8,0.6,0.4,0.2,0.8,0.2,0.8,,,0.378,,0.4,0.6,0.8,0.2,0.2,0.8,0.4,0.6,1,0
,,66aa5aaa7f31ee53f61079ac,66fc993a35423bf8b2a11e9a,2024-10-01_17h55.01.381,mdp,2024.2.1,Win32,59.88023952,66fa4ebf79326e780c390304,,,,,,,,,,,,,,,,,,,,,802.5365,802.5365,802.5378,803.6861,0,0,left,0.6256,,803.6874,804.6853,0,1,left,804.687,805.7854,0,0,left,1,805.7855,805.7855,805.7868,807.2848,0,28,28,28,1,0.8,0.2,0.4,0.6,,,,,,,,,,,,,,,0.4734,,0.2,0.8,0.6,0.4,0.2,0.8,0.2,0.8,,,0.5601,,0.4,0.6,0.8,0.2,0.2,0.8,0.4,0.6,1,0
,,66aa5aaa7f31ee53f61079ac,66fc993a35423bf8b2a11e9a,2024-10-01_17h55.01.381,mdp,2024.2.1,Win32,59.88023952,66fa4ebf79326e780c390304,,,,,,,,,,,,,,,,,,,,,807.2853,807.2854,807.2866,808.2346,0,0,left,0.4259,,808.236,809.4339,0,1,left,809.4358,811.7005,0,1,left,0,811.7006,811.7006,811.7019,813.1998,0,29,29,29,1,0.8,0.2,0.4,0.6,,,,,,,,,,,,,,,0.6743,,0.2,0.8,0.6,0.4,0.2,0.8,0.2,0.8,,,1.7508,,0.4,0.6,0.8,0.2,0.2,0.8,0.4,0.6,1,0
,,66aa5aaa7f31ee53f61079ac,66fc993a35423bf8b2a11e9a,2024-10-01_17h55.01.381,mdp,2024.2.1,Win32,59.88023952,66fa4ebf79326e780c390304,,,,,,,,,,,,,,,,,,,,,813.2002,813.2003,813.2016,814.5325,0,0,left,0.8021,,814.5344,816.6324,0,1,left,816.6337,818.398,1,1,right,0,818.3983,818.3983,818.4,819.8979,0,30,30,30,1,0.8,0.2,0.4,0.6,,,,,,,,,,,,,,,1.5725,,0.2,0.8,0.6,0.4,0.2,0.8,0.2,0.8,,,1.2344,,0.4,0.6,0.8,0.2,0.2,0.8,0.4,0.6,1,0
,,66aa5aaa7f31ee53f61079ac,66fc993a35423bf8b2a11e9a,2024-10-01_17h55.01.381,mdp,2024.2.1,Win32,59.88023952,66fa4ebf79326e780c390304,,,,,,,,,,,,,,,,,,,,,819.8984,819.8984,819.8997,821.2809,0,0,left,0.8561,,821.2827,822.2975,1,0,right,822.2989,823.3802,0,0,left,1,823.3805,823.3805,823.382,824.8796,0,31,31,31,1,0.8,0.2,0.4,0.6,,,,,,,,,,,,,,,0.4857,,0.2,0.8,0.6,0.4,0.2,0.8,0.2,0.8,,,0.5596,,0.6,0.4,0.2,0.8,0.2,0.8,0.4,0.6,1,0
,,66aa5aaa7f31ee53f61079ac,66fc993a35423bf8b2a11e9a,2024-10-01_17h55.01.381,mdp,2024.2.1,Win32,59.88023952,66fa4ebf79326e780c390304,,,,,,,,,,,,,,,,,,,,,824.8802,824.8802,824.8825,826.2797,0,1,left,0.8683,,826.2809,827.5623,1,1,right,827.564,828.5791,0,1,left,0,828.5792,828.5792,828.5805,830.0784,0,32,32,32,1,0.8,0.2,0.4,0.6,,,,,,,,,,,,,,,0.7449,,0.2,0.8,0.6,0.4,0.2,0.8,0.2,0.8,,,0.4784,,0.6,0.4,0.2,0.8,0.2,0.8,0.4,0.6,1,0
,,66aa5aaa7f31ee53f61079ac,66fc993a35423bf8b2a11e9a,2024-10-01_17h55.01.381,mdp,2024.2.1,Win32,59.88023952,66fa4ebf79326e780c390304,,,,,,,,,,,,,,,,,,,,,830.0792,830.0792,830.0805,831.029,0,0,left,0.4189,,831.0305,832.6275,1,0,right,832.6293,834.0273,1,0,right,1,834.0274,834.0275,834.0291,835.5267,0,33,33,33,1,0.8,0.2,0.4,0.6,,,,,,,,,,,,,,,1.065,,0.2,0.8,0.6,0.4,0.2,0.8,0.2,0.8,,,0.8589,,0.6,0.4,0.2,0.8,0.2,0.8,0.4,0.6,1,0
,,66aa5aaa7f31ee53f61079ac,66fc993a35423bf8b2a11e9a,2024-10-01_17h55.01.381,mdp,2024.2.1,Win32,59.88023952,66fa4ebf79326e780c390304,,,,,,,,,,,,,,,,,,,,,835.5277,835.5277,835.5291,836.727,0,0,left,0.6691,,836.7283,838.1423,1,0,right,838.144,839.4593,0,0,left,1,839.4595,839.4595,839.4609,840.9594,0,34,34,34,1,0.8,0.2,0.4,0.6,,,,,,,,,,,,,,,0.9029,,0.2,0.8,0.6,0.4,0.2,0.8,0.2,0.8,,,0.7874,,0.6,0.4,0.2,0.8,0.2,0.8,0.4,0.6,1,0
,,66aa5aaa7f31ee53f61079ac,66fc993a35423bf8b2a11e9a,2024-10-01_17h55.01.381,mdp,2024.2.1,Win32,59.88023952,66fa4ebf79326e780c390304,,,,,,,,,,,,,,,,,,,,,840.9599,840.9599,840.9611,841.7923,0,0,left,0.3044,,841.7935,843.0918,0,1,left,843.0931,844.3744,0,1,left,0,844.3745,844.3745,844.3764,845.875,0,35,35,35,1,0.8,0.2,0.4,0.6,,,,,,,,,,,,,,,0.7679,,0.2,0.8,0.6,0.4,0.2,0.8,0.2,0.8,,,0.7469,,0.6,0.4,0.2,0.8,0.2,0.8,0.4,0.6,1,0
,,66aa5aaa7f31ee53f61079ac,66fc993a35423bf8b2a11e9a,2024-10-01_17h55.01.381,mdp,2024.2.1,Win32,59.88023952,66fa4ebf79326e780c390304,,,,,,,,,,,,,,,,,,,,,845.8756,845.8757,845.8773,846.6739,0,0,left,0.2684,,846.6756,849.2226,0,1,left,849.2248,850.2569,1,1,right,0,850.257,850.257,850.2583,851.7559,0,36,36,36,1,0.8,0.2,0.4,0.6,,,,,,,,,,,,,,,2.0172,,0.2,0.8,0.6,0.4,0.2,0.8,0.2,0.8,,,0.5181,,0.6,0.4,0.2,0.8,0.2,0.8,0.4,0.6,1,0
,,66aa5aaa7f31ee53f61079ac,66fc993a35423bf8b2a11e9a,2024-10-01_17h55.01.381,mdp,2024.2.1,Win32,59.88023952,66fa4ebf79326e780c390304,,,,,,,,,,,,,,,,,,,,,851.7565,851.7565,851.7579,852.6557,0,1,left,0.3681,,852.6572,853.7552,1,1,right,853.7571,854.7553,0,1,left,0,854.7554,854.7554,854.7568,856.2551,0,37,37,37,1,0.2,0.8,0.8,0.2,,,,,,,,,,,,,,,0.5608,,0.2,0.8,0.6,0.4,0.2,0.8,0.2,0.8,,,0.4674,,0.6,0.4,0.2,0.8,0.2,0.8,0.4,0.6,1,0
,,66aa5aaa7f31ee53f61079ac,66fc993a35423bf8b2a11e9a,2024-10-01_17h55.01.381,mdp,2024.2.1,Win32,59.88023952,66fa4ebf79326e780c390304,,,,,,,,,,,,,,,,,,,,,856.2558,856.2558,856.2571,857.3211,0,1,left,0.5415,,857.3226,858.3551,1,1,right,858.3564,859.355,1,1,right,0,859.3551,859.3551,859.3564,860.8533,0,38,38,38,1,0.2,0.8,0.8,0.2,,,,,,,,,,,,,,,0.5136,,0.2,0.8,0.6,0.4,0.2,0.8,0.2,0.8,,,0.4801,,0.6,0.4,0.2,0.8,0.2,0.8,0.4,0.6,1,0
,,66aa5aaa7f31ee53f61079ac,66fc993a35423bf8b2a11e9a,2024-10-01_17h55.01.381,mdp,2024.2.1,Win32,59.88023952,66fa4ebf79326e780c390304,,,,,,,,,,,,,,,,,,,,,860.854,860.854,860.8559,861.8371,0,1,left,0.4618,,861.8388,863.5362,1,1,right,863.5377,864.6859,0,1,left,0,864.686,864.6861,864.6875,866.1856,0,39,39,39,1,0.2,0.8,0.8,0.2,,,,,,,,,,,,,,,1.1681,,0.2,0.8,0.6,0.4,0.2,0.8,0.2,0.8,,,0.6195,,0.6,0.4,0.2,0.8,0.2,0.8,0.4,0.6,1,0
,,66aa5aaa7f31ee53f61079ac,66fc993a35423bf8b2a11e9a,2024-10-01_17h55.01.381,mdp,2024.2.1,Win32,59.88023952,66fa4ebf79326e780c390304,,,,,,,,,,,,,,,,,,,,,866.1861,866.1861,866.1874,867.1683,0,1,left,0.4506,,867.1704,868.2348,0,1,left,868.2365,869.4188,0,1,left,0,869.4191,869.4192,869.4209,870.9174,0,40,40,40,1,0.2,0.8,0.8,0.2,,,,,,,,,,,,,,,0.5332,,0.2,0.8,0.6,0.4,0.2,0.8,0.2,0.8,,,0.6628,,0.6,0.4,0.2,0.8,0.2,0.8,0.4,0.6,1,0
,,66aa5aaa7f31ee53f61079ac,66fc993a35423bf8b2a11e9a,2024-10-01_17h55.01.381,mdp,2024.2.1,Win32,59.88023952,66fa4ebf79326e780c390304,,,,,,,,,,,,,,,,,,,,,870.918,870.9181,870.9193,872.1002,1,0,right,0.6573,,872.1016,873.0843,0,0,left,873.0858,874.7179,0,1,left,0,874.718,874.718,874.7191,876.2161,0,41,41,41,1,0.2,0.8,0.8,0.2,,,,,,,,,,,,,,,0.454,,0.8,0.2,0.2,0.8,0.2,0.8,0.2,0.8,,,1.1076,,0.6,0.4,0.2,0.8,0.2,0.8,0.4,0.6,1,0
,,66aa5aaa7f31ee53f61079ac,66fc993a35423bf8b2a11e9a,2024-10-01_17h55.01.381,mdp,2024.2.1,Win32,59.88023952,66fa4ebf79326e780c390304,,,,,,,,,,,,,,,,,,,,,876.2166,876.2166,876.2179,878.3814,0,1,left,1.6335,,878.3832,880.0148,0,1,left,880.0165,881.298,0,1,left,0,881.2981,881.2981,881.2997,882.7978,0,42,42,42,1,0.2,0.8,0.8,0.2,,,,,,,,,,,,,,,1.0942,,0.8,0.2,0.2,0.8,0.2,0.8,0.2,0.8,,,0.7432,,0.6,0.4,0.2,0.8,0.2,0.8,0.4,0.6,1,0
,,66aa5aaa7f31ee53f61079ac,66fc993a35423bf8b2a11e9a,2024-10-01_17h55.01.381,mdp,2024.2.1,Win32,59.88023952,66fa4ebf79326e780c390304,,,,,,,,,,,,,,,,,,,,,882.7984,882.7984,882.8,883.6811,0,1,left,0.3519,,883.6824,884.7306,1,1,right,884.732,886.1301,0,1,left,0,886.1305,886.1305,886.132,887.6294,0,43,43,43,1,0.2,0.8,0.8,0.2,,,,,,,,,,,,,,,0.5179,,0.8,0.2,0.2,0.8,0.2,0.8,0.2,0.8,,,0.8679,,0.6,0.4,0.2,0.8,0.2,0.8,0.4,0.6,1,0
,,66aa5aaa7f31ee53f61079ac,66fc993a35423bf8b2a11e9a,2024-10-01_17h55.01.381,mdp,2024.2.1,Win32,59.88023952,66fa4ebf79326e780c390304,,,,,,,,,,,,,,,,,,,,,887.6302,887.6302,887.6317,888.4461,0,0,left,0.2859,,888.4477,889.8458,1,1,right,889.8471,890.9462,0,0,left,1,890.9463,890.9463,890.9477,892.4449,0,44,44,44,1,0.8,0.2,0.2,0.8,,,,,,,,,,,,,,,0.8645,,0.8,0.2,0.2,0.8,0.2,0.8,0.2,0.8,,,0.579,,0.6,0.4,0.2,0.8,0.2,0.8,0.4,0.6,1,0
,,66aa5aaa7f31ee53f61079ac,66fc993a35423bf8b2a11e9a,2024-10-01_17h55.01.381,mdp,2024.2.1,Win32,59.88023952,66fa4ebf79326e780c390304,,,,,,,,,,,,,,,,,,,,,892.4456,892.4457,892.4469,893.6955,0,1,left,0.7173,,893.6972,894.9944,1,1,right,894.9959,896.093,0,1,left,0,896.0932,896.0932,896.0952,897.5931,0,45,45,45,1,0.8,0.2,0.2,0.8,,,,,,,,,,,,,,,0.7609,,0.8,0.2,0.2,0.8,0.2,0.8,0.2,0.8,,,0.5669,,0.6,0.4,0.2,0.8,0.2,0.8,0.4,0.6,1,0
,,66aa5aaa7f31ee53f61079ac,66fc993a35423bf8b2a11e9a,2024-10-01_17h55.01.381,mdp,2024.2.1,Win32,59.88023952,66fa4ebf79326e780c390304,,,,,,,,,,,,,,,,,,,,,897.5938,897.5938,897.5954,898.4102,0,0,left,0.2845,,898.4117,899.7598,1,1,right,899.7612,900.7096,0,0,left,1,900.7097,900.7097,900.7112,902.209,0,46,46,46,1,0.8,0.2,0.2,0.8,,,,,,,,,,,,,,,0.819,,0.8,0.2,0.2,0.8,0.2,0.8,0.2,0.8,,,0.4189,,0.6,0.4,0.2,0.8,0.2,0.8,0.4,0.6,1,0
,,66aa5aaa7f31ee53f61079ac,66fc993a35423bf8b2a11e9a,2024-10-01_17h55.01.381,mdp,2024.2.1,Win32,59.88023952,66fa4ebf79326e780c390304,,,,,,,,,,,,,,,,,,,,,902.2102,902.2102,902.2115,903.0926,0,0,left,0.3557,,903.0939,904.2419,1,1,right,904.2437,905.4749,1,1,right,0,905.475,905.475,905.4765,906.974,0,47,47,47,1,0.8,0.2,0.2,0.8,,,,,,,,,,,,,,,0.6176,,0.8,0.2,0.2,0.8,0.2,0.8,0.2,0.8,,,0.7072,,0.6,0.4,0.2,0.8,0.2,0.8,0.4,0.6,1,0
,,66aa5aaa7f31ee53f61079ac,66fc993a35423bf8b2a11e9a,2024-10-01_17h55.01.381,mdp,2024.2.1,Win32,59.88023952,66fa4ebf79326e780c390304,,,,,,,,,,,,,,,,,,,,,906.9749,906.9749,906.9767,907.5076,0,0,left,0.0062,,907.5092,908.7411,1,1,right,908.7425,909.857,0,1,left,0,909.8572,909.8572,909.8589,911.3558,0,48,48,48,1,0.8,0.2,0.2,0.8,,,,,,,,,,,,,,,0.7108,,0.8,0.2,0.2,0.8,0.2,0.8,0.2,0.8,,,0.5914,,0.6,0.4,0.2,0.8,0.2,0.8,0.4,0.6,1,0
,,66aa5aaa7f31ee53f61079ac,66fc993a35423bf8b2a11e9a,2024-10-01_17h55.01.381,mdp,2024.2.1,Win32,59.88023952,66fa4ebf79326e780c390304,,,,,,,,,,,,,,,,,,,,,911.3565,911.3565,911.3581,912.6895,0,1,left,0.8207,,912.6912,913.9731,1,1,right,913.9747,915.2554,0,1,left,0,915.2554,915.2554,915.2569,916.755,0,49,49,49,1,0.8,0.2,0.2,0.8,,,,,,,,,,,,,,,0.742,,0.8,0.2,0.2,0.8,0.2,0.8,0.2,0.8,,,0.7563,,0.6,0.4,0.2,0.8,0.2,0.8,0.4,0.6,1,0
,,66aa5aaa7f31ee53f61079ac,66fc993a35423bf8b2a11e9a,2024-10-01_17h55.01.381,mdp,2024.2.1,Win32,59.88023952,66fa4ebf79326e780c390304,,,,,,,,,,,,,,,,,,,,,,,,,,,,,,,,,,,,,,,,,,,,,,,,,,,,,,,,916.7551,975.2563,0,2,2,2,1,imgs/rabbit.png,imgs/cat.png,imgs/bear.png,imgs/goat.png,imgs/dog.png,,,,,,,,,,,,,,,,,,,,,,,,
,,66aa5aaa7f31ee53f61079ac,66fc993a35423bf8b2a11e9a,2024-10-01_17h55.01.381,mdp,2024.2.1,Win32,59.88023952,66fa4ebf79326e780c390304,,,,,,,,,,,,,,3,seqs/st3seq40.csv,975.257,979.4056,space,3.6241,,979.4124,979.4125,979.4141,983.3378,1,1,right,3.3874,,983.3391,984.4704,0,1,left,984.4718,985.5697,1,1,right,0,985.57,985.57,985.5714,987.0697,0,0,0,0,1,0.2,0.8,0.6,0.4,,,,,,,,,,,,,,,0.5928,,0.6,0.4,0.2,0.8,0.2,0.8,0.6,0.4,,,0.5618,,0.2,0.8,0.2,0.8,0.6,0.4,0.2,0.8,1,0
,,66aa5aaa7f31ee53f61079ac,66fc993a35423bf8b2a11e9a,2024-10-01_17h55.01.381,mdp,2024.2.1,Win32,59.88023952,66fa4ebf79326e780c390304,,,,,,,,,,,,,,,,,,,,,987.0702,987.0702,987.0715,988.236,0,1,left,0.6368,,988.2373,989.4527,1,0,right,989.4545,990.9187,0,0,left,1,990.9188,990.9189,990.9207,992.4182,0,1,1,1,1,0.2,0.8,0.6,0.4,,,,,,,,,,,,,,,0.6858,,0.6,0.4,0.2,0.8,0.2,0.8,0.6,0.4,,,0.923,,0.2,0.8,0.2,0.8,0.6,0.4,0.2,0.8,1,0
,,66aa5aaa7f31ee53f61079ac,66fc993a35423bf8b2a11e9a,2024-10-01_17h55.01.381,mdp,2024.2.1,Win32,59.88023952,66fa4ebf79326e780c390304,,,,,,,,,,,,,,,,,,,,,992.4188,992.4189,992.4201,993.6849,0,1,left,0.7402,,993.6862,995.1678,1,0,right,995.1691,997,0,0,left,1,997.0001,997.0001,997.0016,998.4999,0,2,2,2,1,0.2,0.8,0.6,0.4,,,,,,,,,,,,,,,0.9563,,0.6,0.4,0.2,0.8,0.2,0.8,0.6,0.4,,,1.305,,0.2,0.8,0.2,0.8,0.6,0.4,0.2,0.8,1,0
,,66aa5aaa7f31ee53f61079ac,66fc993a35423bf8b2a11e9a,2024-10-01_17h55.01.381,mdp,2024.2.1,Win32,59.88023952,66fa4ebf79326e780c390304,,,,,,,,,,,,,,,,,,,,,998.5003,998.5004,998.5017,999.6996,0,1,left,0.6715,,999.7012,1001.5987,1,0,right,1001.6005,1002.8658,0,1,left,0,1002.866,1002.866,1002.8672,1004.365,0,3,3,3,1,0.2,0.8,0.6,0.4,,,,,,,,,,,,,,,1.3673,,0.6,0.4,0.2,0.8,0.2,0.8,0.6,0.4,,,0.7358,,0.2,0.8,0.2,0.8,0.2,0.8,0.8,0.2,1,0
,,66aa5aaa7f31ee53f61079ac,66fc993a35423bf8b2a11e9a,2024-10-01_17h55.01.381,mdp,2024.2.1,Win32,59.88023952,66fa4ebf79326e780c390304,,,,,,,,,,,,,,,,,,,,,1004.3656,1004.3656,1004.3669,1005.432,0,1,left,0.5464,,1005.4335,1006.5312,1,0,right,1006.5328,1007.7476,1,1,right,0,1007.7477,1007.7477,1007.7489,1009.2471,0,4,4,4,1,0.2,0.8,0.6,0.4,,,,,,,,,,,,,,,0.5758,,0.6,0.4,0.2,0.8,0.2,0.8,0.6,0.4,,,0.6862,,0.2,0.8,0.2,0.8,0.2,0.8,0.8,0.2,1,0
,,66aa5aaa7f31ee53f61079ac,66fc993a35423bf8b2a11e9a,2024-10-01_17h55.01.381,mdp,2024.2.1,Win32,59.88023952,66fa4ebf79326e780c390304,,,,,,,,,,,,,,,,,,,,,1009.2477,1009.2477,1009.2489,1010.88,0,1,left,1.1047,,1010.8813,1011.8971,1,1,right,1011.8984,1013.096,1,0,right,1,1013.0961,1013.0961,1013.0973,1014.5949,0,5,5,5,1,0.2,0.8,0.6,0.4,,,,,,,,,,,,,,,0.4975,,0.6,0.4,0.2,0.8,0.2,0.8,0.6,0.4,,,0.6648,,0.2,0.8,0.2,0.8,0.2,0.8,0.8,0.2,1,0
,,66aa5aaa7f31ee53f61079ac,66fc993a35423bf8b2a11e9a,2024-10-01_17h55.01.381,mdp,2024.2.1,Win32,59.88023952,66fa4ebf79326e780c390304,,,,,,,,,,,,,,,,,,,,,1014.5958,1014.5959,1014.5974,1015.7622,1,0,right,0.6338,,1015.7636,1016.9944,0,0,left,1016.9964,1018.0942,1,1,right,0,1018.0945,1018.0945,1018.0962,1019.5942,0,6,6,6,1,0.2,0.8,0.6,0.4,,,,,,,,,,,,,,,0.7,,0.6,0.4,0.2,0.8,0.2,0.8,0.6,0.4,,,0.5618,,0.2,0.8,0.2,0.8,0.8,0.2,0.6,0.4,1,0
,,66aa5aaa7f31ee53f61079ac,66fc993a35423bf8b2a11e9a,2024-10-01_17h55.01.381,mdp,2024.2.1,Win32,59.88023952,66fa4ebf79326e780c390304,,,,,,,,,,,,,,,,,,,,,1019.5953,1019.5953,1019.5969,1020.5104,0,1,left,0.3835,,1020.5122,1021.7608,1,0,right,1021.762,1023.0433,0,0,left,1,1023.0435,1023.0435,1023.0448,1024.543,0,7,7,7,1,0.6,0.4,0.8,0.2,,,,,,,,,,,,,,,0.7157,,0.6,0.4,0.2,0.8,0.2,0.8,0.6,0.4,,,0.757,,0.2,0.8,0.2,0.8,0.8,0.2,0.6,0.4,1,0
,,66aa5aaa7f31ee53f61079ac,66fc993a35423bf8b2a11e9a,2024-10-01_17h55.01.381,mdp,2024.2.1,Win32,59.88023952,66fa4ebf79326e780c390304,,,,,,,,,,,,,,,,,,,,,1024.5434,1024.5434,1024.5447,1026.2429,0,1,left,1.1686,,1026.2444,1027.4594,0,0,left,1027.4607,1028.3082,1,1,right,0,1028.3083,1028.3083,1028.3097,1029.8079,0,8,8,8,1,0.6,0.4,0.8,0.2,,,,,,,,,,,,,,,0.6911,,0.6,0.4,0.2,0.8,0.2,0.8,0.6,0.4,,,0.3215,,0.2,0.8,0.2,0.8,0.8,0.2,0.6,0.4,1,0
,,66aa5aaa7f31ee53f61079ac,66fc993a35423bf8b2a11e9a,2024-10-01_17h55.01.381,mdp,2024.2.1,Win32,59.88023952,66fa4ebf79326e780c390304,,,,,,,,,,,,,,,,,,,,,1029.8084,1029.8084,1029.8098,1030.5743,0,0,left,0.2345,,1030.576,1031.4742,1,1,right,1031.4759,1032.4249,0,1,left,0,1032.425,1032.425,1032.4261,1033.9233,0,9,9,9,1,0.6,0.4,0.8,0.2,,,,,,,,,,,,,,,0.3852,,0.6,0.4,0.2,0.8,0.2,0.8,0.6,0.4,,,0.4112,,0.2,0.8,0.2,0.8,0.8,0.2,0.6,0.4,1,0
,,66aa5aaa7f31ee53f61079ac,66fc993a35423bf8b2a11e9a,2024-10-01_17h55.01.381,mdp,2024.2.1,Win32,59.88023952,66fa4ebf79326e780c390304,,,,,,,,,,,,,,,,,,,,,1033.9243,1033.9243,1033.9258,1034.557,0,1,left,0.1192,,1034.559,1035.6731,0,1,left,1035.6754,1036.69,0,0,left,1,1036.6901,1036.6901,1036.6913,1038.1885,0,10,10,10,1,0.6,0.4,0.8,0.2,,,,,,,,,,,,,,,0.5916,,0.6,0.4,0.2,0.8,0.2,0.8,0.6,0.4,,,0.4827,,0.2,0.8,0.2,0.8,0.8,0.2,0.6,0.4,1,0
,,66aa5aaa7f31ee53f61079ac,66fc993a35423bf8b2a11e9a,2024-10-01_17h55.01.381,mdp,2024.2.1,Win32,59.88023952,66fa4ebf79326e780c390304,,,,,,,,,,,,,,,,,,,,,1038.1895,1038.1895,1038.1907,1039.3068,0,0,left,0.5975,,1039.3085,1040.1552,0,1,left,1040.1572,1041.106,0,0,left,1,1041.1061,1041.1061,1041.1074,1042.6047,0,11,11,11,1,0.6,0.4,0.8,0.2,,,,,,,,,,,,,,,0.3149,,0.6,0.4,0.2,0.8,0.2,0.8,0.6,0.4,,,0.4289,,0.2,0.8,0.2,0.8,0.8,0.2,0.6,0.4,1,0
,,66aa5aaa7f31ee53f61079ac,66fc993a35423bf8b2a11e9a,2024-10-01_17h55.01.381,mdp,2024.2.1,Win32,59.88023952,66fa4ebf79326e780c390304,,,,,,,,,,,,,,,,,,,,,1042.6052,1042.6053,1042.6066,1043.5708,0,0,left,0.4377,,1043.5725,1046.4201,1,1,right,1046.4215,1047.9698,1,1,right,0,1047.9699,1047.9699,1047.9716,1049.4696,0,12,12,12,1,0.6,0.4,0.8,0.2,,,,,,,,,,,,,,,2.3244,,0.6,0.4,0.2,0.8,0.8,0.2,0.4,0.6,,,1.026,,0.2,0.8,0.2,0.8,0.8,0.2,0.6,0.4,1,0
,,66aa5aaa7f31ee53f61079ac,66fc993a35423bf8b2a11e9a,2024-10-01_17h55.01.381,mdp,2024.2.1,Win32,59.88023952,66fa4ebf79326e780c390304,,,,,,,,,,,,,,,,,,,,,1049.4702,1049.4702,1049.4716,1050.3529,0,0,left,0.3514,,1050.3542,1051.7029,0,0,left,1051.7045,1052.652,0,0,left,1,1052.6521,1052.6521,1052.6536,1054.1513,0,13,13,13,1,0.6,0.4,0.8,0.2,,,,,,,,,,,,,,,0.8301,,0.6,0.4,0.2,0.8,0.8,0.2,0.4,0.6,,,0.411,,0.2,0.8,0.2,0.8,0.8,0.2,0.6,0.4,1,0
,,66aa5aaa7f31ee53f61079ac,66fc993a35423bf8b2a11e9a,2024-10-01_17h55.01.381,mdp,2024.2.1,Win32,59.88023952,66fa4ebf79326e780c390304,,,,,,,,,,,,,,,,,,,,,1054.1521,1054.1521,1054.1534,1055.235,0,1,left,0.5512,,1055.2363,1056.3522,0,0,left,1056.3533,1057.3011,0,0,left,1,1057.3011,1057.3011,1057.3023,1058.8001,0,14,14,14,1,0.6,0.4,0.8,0.2,,,,,,,,,,,,,,,0.5899,,0.6,0.4,0.2,0.8,0.8,0.2,0.4,0.6,,,0.4257,,0.2,0.8,0.2,0.8,0.8,0.2,0.6,0.4,1,0
,,66aa5aaa7f31ee53f61079ac,66fc993a35423bf8b2a11e9a,2024-10-01_17h55.01.381,mdp,2024.2.1,Win32,59.88023952,66fa4ebf79326e780c390304,,,,,,,,,,,,,,,,,,,,,1058.8007,1058.8007,1058.8019,1059.7335,0,0,left,0.4011,,1059.7351,1060.4,1,0,right,1060.4016,1061.3331,0,1,left,0,1061.3331,1061.3331,1061.3345,1062.8326,0,15,15,15,1,0.6,0.4,0.8,0.2,,,,,,,,,,,,,,,0.1267,,0.6,0.4,0.2,0.8,0.8,0.2,0.4,0.6,,,0.4008,,0.2,0.8,0.2,0.8,0.8,0.2,0.6,0.4,1,0
,,66aa5aaa7f31ee53f61079ac,66fc993a35423bf8b2a11e9a,2024-10-01_17h55.01.381,mdp,2024.2.1,Win32,59.88023952,66fa4ebf79326e780c390304,,,,,,,,,,,,,,,,,,,,,1062.8332,1062.8332,1062.8345,1064.399,0,0,left,1.0343,,1064.4008,1065.432,0,0,left,1065.4339,1066.5992,0,1,left,0,1066.5993,1066.5993,1066.6004,1068.0979,0,16,16,16,1,0.6,0.4,0.8,0.2,,,,,,,,,,,,,,,0.5121,,0.6,0.4,0.2,0.8,0.8,0.2,0.4,0.6,,,0.6466,,0.2,0.8,0.2,0.8,0.8,0.2,0.6,0.4,1,0
,,66aa5aaa7f31ee53f61079ac,66fc993a35423bf8b2a11e9a,2024-10-01_17h55.01.381,mdp,2024.2.1,Win32,59.88023952,66fa4ebf79326e780c390304,,,,,,,,,,,,,,,,,,,,,1068.0983,1068.0984,1068.0998,1069.3142,0,0,left,0.6876,,1069.3158,1070.1806,1,1,right,1070.1823,1071.2138,0,0,left,1,1071.2139,1071.2139,1071.2153,1072.7136,0,17,17,17,1,0.6,0.4,0.8,0.2,,,,,,,,,,,,,,,0.3402,,0.6,0.4,0.2,0.8,0.8,0.2,0.4,0.6,,,0.494,,0.2,0.8,0.2,0.8,0.8,0.2,0.6,0.4,1,0
,,66aa5aaa7f31ee53f61079ac,66fc993a35423bf8b2a11e9a,2024-10-01_17h55.01.381,mdp,2024.2.1,Win32,59.88023952,66fa4ebf79326e780c390304,,,,,,,,,,,,,,,,,,,,,1072.7141,1072.7141,1072.7156,1073.831,0,0,left,0.5857,,1073.8324,1074.7626,0,0,left,1074.7644,1075.9954,0,1,left,0,1075.9955,1075.9955,1075.9973,1077.4948,0,18,18,18,1,0.6,0.4,0.8,0.2,,,,,,,,,,,,,,,0.4018,,0.6,0.4,0.2,0.8,0.8,0.2,0.4,0.6,,,0.6935,,0.2,0.8,0.2,0.8,0.8,0.2,0.6,0.4,1,0
,,66aa5aaa7f31ee53f61079ac,66fc993a35423bf8b2a11e9a,2024-10-01_17h55.01.381,mdp,2024.2.1,Win32,59.88023952,66fa4ebf79326e780c390304,,,,,,,,,,,,,,,,,,,,,1077.4959,1077.496,1077.4974,1078.68,1,1,right,0.6532,,1078.6817,1079.6948,0,1,left,1079.6962,1080.8446,1,0,right,1,1080.8447,1080.8447,1080.8461,1082.3438,0,19,19,19,1,0.6,0.4,0.8,0.2,,,,,,,,,,,,,,,0.477,,0.6,0.4,0.2,0.8,0.8,0.2,0.4,0.6,,,0.6108,,0.2,0.8,0.2,0.8,0.8,0.2,0.6,0.4,1,0
,,66aa5aaa7f31ee53f61079ac,66fc993a35423bf8b2a11e9a,2024-10-01_17h55.01.381,mdp,2024.2.1,Win32,59.88023952,66fa4ebf79326e780c390304,,,,,,,,,,,,,,,,,,,,,1082.3444,1082.3444,1082.3457,1083.4603,0,1,left,0.5867,,1083.462,1084.7267,1,1,right,1084.7284,1086.0932,0,0,left,1,1086.0933,1086.0933,1086.0946,1087.5924,0,20,20,20,1,0.6,0.4,0.8,0.2,,,,,,,,,,,,,,,0.7418,,0.6,0.4,0.2,0.8,0.8,0.2,0.4,0.6,,,0.8346,,0.2,0.8,0.2,0.8,0.8,0.2,0.6,0.4,1,0
,,66aa5aaa7f31ee53f61079ac,66fc993a35423bf8b2a11e9a,2024-10-01_17h55.01.381,mdp,2024.2.1,Win32,59.88023952,66fa4ebf79326e780c390304,,,,,,,,,,,,,,,,,,,,,1087.5931,1087.5931,1087.5945,1088.9591,0,1,left,0.8336,,1088.9602,1089.8927,0,1,left,1089.8942,1091.0251,0,0,left,1,1091.0252,1091.0253,1091.0266,1092.5245,0,21,21,21,1,0.6,0.4,0.8,0.2,,,,,,,,,,,,,,,0.401,,0.6,0.4,0.2,0.8,0.6,0.4,0.2,0.8,,,0.6012,,0.2,0.8,0.2,0.8,0.8,0.2,0.6,0.4,1,0
,,66aa5aaa7f31ee53f61079ac,66fc993a35423bf8b2a11e9a,2024-10-01_17h55.01.381,mdp,2024.2.1,Win32,59.88023952,66fa4ebf79326e780c390304,,,,,,,,,,,,,,,,,,,,,1092.5253,1092.5253,1092.5267,1093.2913,0,0,left,0.2365,,1093.2928,1094.4417,1,1,right,1094.4429,1095.542,0,0,left,1,1095.5421,1095.5421,1095.5433,1097.0402,0,22,22,22,1,0.6,0.4,0.8,0.2,,,,,,,,,,,,,,,0.6217,,0.6,0.4,0.2,0.8,0.6,0.4,0.2,0.8,,,0.5812,,0.2,0.8,0.2,0.8,0.8,0.2,0.6,0.4,1,0
,,66aa5aaa7f31ee53f61079ac,66fc993a35423bf8b2a11e9a,2024-10-01_17h55.01.381,mdp,2024.2.1,Win32,59.88023952,66fa4ebf79326e780c390304,,,,,,,,,,,,,,,,,,,,,1097.0407,1097.0407,1097.0421,1098.0235,0,0,left,0.4522,,1098.0248,1099.0565,1,0,right,1099.058,1099.906,0,1,left,0,1099.9062,1099.9062,1099.9077,1101.4056,0,23,23,23,1,0.6,0.4,0.8,0.2,,,,,,,,,,,,,,,0.5018,,0.6,0.4,0.2,0.8,0.6,0.4,0.2,0.8,,,0.3139,,0.2,0.8,0.2,0.8,0.8,0.2,0.6,0.4,1,0
,,66aa5aaa7f31ee53f61079ac,66fc993a35423bf8b2a11e9a,2024-10-01_17h55.01.381,mdp,2024.2.1,Win32,59.88023952,66fa4ebf79326e780c390304,,,,,,,,,,,,,,,,,,,,,1101.4061,1101.4061,1101.4073,1102.4222,0,0,left,0.4837,,1102.4234,1103.3386,0,1,left,1103.34,1104.3212,0,0,left,1,1104.3213,1104.3213,1104.3229,1105.8207,0,24,24,24,1,0.6,0.4,0.8,0.2,,,,,,,,,,,,,,,0.3865,,0.6,0.4,0.2,0.8,0.6,0.4,0.2,0.8,,,0.4446,,0.2,0.8,0.2,0.8,0.6,0.4,0.4,0.6,1,0
,,66aa5aaa7f31ee53f61079ac,66fc993a35423bf8b2a11e9a,2024-10-01_17h55.01.381,mdp,2024.2.1,Win32,59.88023952,66fa4ebf79326e780c390304,,,,,,,,,,,,,,,,,,,,,1105.8216,1105.8216,1105.8233,1106.7711,0,1,left,0.4177,,1106.7724,1107.8377,0,0,left,1107.8392,1108.9036,0,1,left,0,1108.9037,1108.9037,1108.9057,1110.4022,0,25,25,25,1,0.6,0.4,0.8,0.2,,,,,,,,,,,,,,,0.5276,,0.6,0.4,0.2,0.8,0.6,0.4,0.2,0.8,,,0.528,,0.2,0.8,0.2,0.8,0.6,0.4,0.4,0.6,1,0
,,66aa5aaa7f31ee53f61079ac,66fc993a35423bf8b2a11e9a,2024-10-01_17h55.01.381,mdp,2024.2.1,Win32,59.88023952,66fa4ebf79326e780c390304,,,,,,,,,,,,,,,,,,,,,1110.4034,1110.4034,1110.4047,1111.0192,0,0,left,0.0867,,1111.0206,1112.2689,0,0,left,1112.2708,1113.3193,0,1,left,0,1113.3193,1113.3193,1113.3206,1114.818,0,26,26,26,1,0.6,0.4,0.8,0.2,,,,,,,,,,,,,,,0.7273,,0.6,0.4,0.2,0.8,0.4,0.6,0.6,0.4,,,0.5172,,0.2,0.8,0.2,0.8,0.6,0.4,0.4,0.6,1,0
,,66aa5aaa7f31ee53f61079ac,66fc993a35423bf8b2a11e9a,2024-10-01_17h55.01.381,mdp,2024.2.1,Win32,59.88023952,66fa4ebf79326e780c390304,,,,,,,,,,,,,,,,,,,,,1114.8186,1114.8186,1114.8202,1115.7178,1,0,right,0.3664,,1115.7194,1116.5343,0,0,left,1116.5358,1117.3677,1,1,right,0,1117.368,1117.368,1117.3694,1118.8669,0,27,27,27,1,0.6,0.4,0.8,0.2,,,,,,,,,,,,,,,0.2906,,0.6,0.4,0.2,0.8,0.4,0.6,0.6,0.4,,,0.3182,,0.2,0.8,0.2,0.8,0.6,0.4,0.4,0.6,1,0
,,66aa5aaa7f31ee53f61079ac,66fc993a35423bf8b2a11e9a,2024-10-01_17h55.01.381,mdp,2024.2.1,Win32,59.88023952,66fa4ebf79326e780c390304,,,,,,,,,,,,,,,,,,,,,1118.8678,1118.8679,1118.8692,1119.751,0,1,left,0.3573,,1119.7526,1120.7672,1,0,right,1120.7685,1121.7513,0,1,left,0,1121.7513,1121.7513,1121.7526,1123.2493,0,28,28,28,1,0.6,0.4,0.8,0.2,,,,,,,,,,,,,,,0.4773,,0.6,0.4,0.2,0.8,0.4,0.6,0.6,0.4,,,0.4644,,0.2,0.8,0.2,0.8,0.6,0.4,0.4,0.6,1,0
,,66aa5aaa7f31ee53f61079ac,66fc993a35423bf8b2a11e9a,2024-10-01_17h55.01.381,mdp,2024.2.1,Win32,59.88023952,66fa4ebf79326e780c390304,,,,,,,,,,,,,,,,,,,,,1123.2501,1123.2502,1123.2518,1124.6827,0,1,left,0.907,,1124.684,1125.749,0,0,left,1125.7507,1126.6318,0,1,left,0,1126.632,1126.632,1126.6339,1128.1317,0,29,29,29,1,0.6,0.4,0.8,0.2,,,,,,,,,,,,,,,0.538,,0.6,0.4,0.2,0.8,0.4,0.6,0.6,0.4,,,0.3671,,0.2,0.8,0.2,0.8,0.6,0.4,0.4,0.6,1,0
,,66aa5aaa7f31ee53f61079ac,66fc993a35423bf8b2a11e9a,2024-10-01_17h55.01.381,mdp,2024.2.1,Win32,59.88023952,66fa4ebf79326e780c390304,,,,,,,,,,,,,,,,,,,,,1128.1325,1128.1325,1128.1338,1129.0305,0,0,left,0.3686,,1129.0322,1130.0979,0,0,left,1130.0992,1131.2814,0,0,left,1,1131.2815,1131.2815,1131.283,1132.7802,0,30,30,30,1,0.6,0.4,0.8,0.2,,,,,,,,,,,,,,,0.5437,,0.6,0.4,0.2,0.8,0.4,0.6,0.6,0.4,,,0.6515,,0.2,0.8,0.2,0.8,0.6,0.4,0.4,0.6,1,0
,,66aa5aaa7f31ee53f61079ac,66fc993a35423bf8b2a11e9a,2024-10-01_17h55.01.381,mdp,2024.2.1,Win32,59.88023952,66fa4ebf79326e780c390304,,,,,,,,,,,,,,,,,,,,,1132.7809,1132.7809,1132.7825,1133.7463,0,1,left,0.4345,,1133.7483,1134.7635,1,0,right,1134.7647,1135.6463,0,0,left,1,1135.6464,1135.6464,1135.6476,1137.1452,0,31,31,31,1,0.6,0.4,0.8,0.2,,,,,,,,,,,,,,,0.4813,,0.6,0.4,0.2,0.8,0.4,0.6,0.6,0.4,,,0.3584,,0.2,0.8,0.2,0.8,0.6,0.4,0.4,0.6,1,0
,,66aa5aaa7f31ee53f61079ac,66fc993a35423bf8b2a11e9a,2024-10-01_17h55.01.381,mdp,2024.2.1,Win32,59.88023952,66fa4ebf79326e780c390304,,,,,,,,,,,,,,,,,,,,,1137.1465,1137.1465,1137.1476,1137.8293,0,0,left,0.1513,,1137.8307,1138.7455,0,1,left,1138.7468,1139.7453,0,1,left,0,1139.7455,1139.7455,1139.7475,1141.2449,0,32,32,32,1,0.6,0.4,0.8,0.2,,,,,,,,,,,,,,,0.3844,,0.6,0.4,0.2,0.8,0.4,0.6,0.6,0.4,,,0.463,,0.2,0.8,0.2,0.8,0.6,0.4,0.4,0.6,1,0
,,66aa5aaa7f31ee53f61079ac,66fc993a35423bf8b2a11e9a,2024-10-01_17h55.01.381,mdp,2024.2.1,Win32,59.88023952,66fa4ebf79326e780c390304,,,,,,,,,,,,,,,,,,,,,1141.2455,1141.2455,1141.2468,1142.0613,0,0,left,0.2843,,1142.063,1143.0616,0,0,left,1143.0629,1144.0777,0,1,left,0,1144.0778,1144.0778,1144.0789,1145.577,0,33,33,33,1,0.6,0.4,0.8,0.2,,,,,,,,,,,,,,,0.487,,0.6,0.4,0.2,0.8,0.6,0.4,0.4,0.6,,,0.485,,0.2,0.8,0.2,0.8,0.6,0.4,0.4,0.6,1,0
,,66aa5aaa7f31ee53f61079ac,66fc993a35423bf8b2a11e9a,2024-10-01_17h55.01.381,mdp,2024.2.1,Win32,59.88023952,66fa4ebf79326e780c390304,,,,,,,,,,,,,,,,,,,,,1145.5775,1145.5775,1145.5788,1146.5101,1,0,right,0.4007,,1146.5117,1147.3262,0,1,left,1147.3276,1148.193,1,1,right,0,1148.1931,1148.1931,1148.1952,1149.6926,0,34,34,34,1,0.6,0.4,0.8,0.2,,,,,,,,,,,,,,,0.2869,,0.6,0.4,0.2,0.8,0.6,0.4,0.4,0.6,,,0.3266,,0.2,0.8,0.2,0.8,0.6,0.4,0.4,0.6,1,0
,,66aa5aaa7f31ee53f61079ac,66fc993a35423bf8b2a11e9a,2024-10-01_17h55.01.381,mdp,2024.2.1,Win32,59.88023952,66fa4ebf79326e780c390304,,,,,,,,,,,,,,,,,,,,,1149.6932,1149.6932,1149.6947,1150.7095,0,1,left,0.4913,,1150.7107,1151.6085,0,0,left,1151.6099,1152.759,0,0,left,1,1152.7591,1152.7591,1152.7604,1154.2575,0,35,35,35,1,0.2,0.8,0.6,0.4,,,,,,,,,,,,,,,0.3679,,0.6,0.4,0.2,0.8,0.6,0.4,0.4,0.6,,,0.6149,,0.2,0.8,0.2,0.8,0.6,0.4,0.4,0.6,1,0
,,66aa5aaa7f31ee53f61079ac,66fc993a35423bf8b2a11e9a,2024-10-01_17h55.01.381,mdp,2024.2.1,Win32,59.88023952,66fa4ebf79326e780c390304,,,,,,,,,,,,,,,,,,,,,1154.2584,1154.2584,1154.26,1155.2743,0,1,left,0.4853,,1155.2758,1156.624,1,1,right,1156.6257,1157.657,0,0,left,1,1157.6571,1157.6571,1157.6587,1159.1563,0,36,36,36,1,0.2,0.8,0.6,0.4,,,,,,,,,,,,,,,0.8181,,0.6,0.4,0.2,0.8,0.6,0.4,0.4,0.6,,,0.4927,,0.2,0.8,0.2,0.8,0.6,0.4,0.4,0.6,1,0
,,66aa5aaa7f31ee53f61079ac,66fc993a35423bf8b2a11e9a,2024-10-01_17h55.01.381,mdp,2024.2.1,Win32,59.88023952,66fa4ebf79326e780c390304,,,,,,,,,,,,,,,,,,,,,1159.1569,1159.1569,1159.1586,1160.1735,0,1,left,0.4842,,1160.1748,1161.2396,0,1,left,1161.2413,1162.4225,0,1,left,0,1162.4228,1162.4228,1162.4241,1163.9214,0,37,37,37,1,0.2,0.8,0.6,0.4,,,,,,,,,,,,,,,0.5368,,0.6,0.4,0.2,0.8,0.6,0.4,0.4,0.6,,,0.6519,,0.2,0.8,0.2,0.8,0.6,0.4,0.4,0.6,1,0
,,66aa5aaa7f31ee53f61079ac,66fc993a35423bf8b2a11e9a,2024-10-01_17h55.01.381,mdp,2024.2.1,Win32,59.88023952,66fa4ebf79326e780c390304,,,,,,,,,,,,,,,,,,,,,1163.9225,1163.9225,1163.9239,1165.0719,0,1,left,0.6177,,1165.0732,1165.9719,1,1,right,1165.973,1166.8882,0,0,left,1,1166.8883,1166.8883,1166.8896,1168.3873,0,38,38,38,1,0.2,0.8,0.6,0.4,,,,,,,,,,,,,,,0.3693,,0.6,0.4,0.2,0.8,0.6,0.4,0.4,0.6,,,0.3829,,0.2,0.8,0.2,0.8,0.6,0.4,0.4,0.6,1,0
,,66aa5aaa7f31ee53f61079ac,66fc993a35423bf8b2a11e9a,2024-10-01_17h55.01.381,mdp,2024.2.1,Win32,59.88023952,66fa4ebf79326e780c390304,,,,,,,,,,,,,,,,,,,,,1168.3882,1168.3882,1168.3895,1169.2208,0,1,left,0.3069,,1169.222,1170.1703,0,0,left,1170.1718,1171.1044,0,1,left,0,1171.1045,1171.1045,1171.1058,1172.6025,0,39,39,39,1,0.2,0.8,0.6,0.4,,,,,,,,,,,,,,,0.417,,0.6,0.4,0.2,0.8,0.6,0.4,0.4,0.6,,,0.4052,,0.2,0.8,0.2,0.8,0.6,0.4,0.4,0.6,1,0
,,66aa5aaa7f31ee53f61079ac,66fc993a35423bf8b2a11e9a,2024-10-01_17h55.01.381,mdp,2024.2.1,Win32,59.88023952,66fa4ebf79326e780c390304,,,,,,,,,,,,,,,,,,,,,1172.603,1172.603,1172.6044,1173.3691,0,1,left,0.2381,,1173.3708,1174.2529,1,1,right,1174.2544,1175.1027,0,1,left,0,1175.1027,1175.1027,1175.1039,1176.6013,0,40,40,40,1,0.2,0.8,0.6,0.4,,,,,,,,,,,,,,,0.3522,,0.6,0.4,0.2,0.8,0.6,0.4,0.4,0.6,,,0.3105,,0.2,0.8,0.2,0.8,0.6,0.4,0.4,0.6,1,0
,,66aa5aaa7f31ee53f61079ac,66fc993a35423bf8b2a11e9a,2024-10-01_17h55.01.381,mdp,2024.2.1,Win32,59.88023952,66fa4ebf79326e780c390304,,,,,,,,,,,,,,,,,,,,,1176.6024,1176.6025,1176.604,1177.8187,0,1,left,0.687,,1177.8199,1179.1348,1,1,right,1179.1364,1180.4346,0,0,left,1,1180.4347,1180.4347,1180.4361,1181.9339,0,41,41,41,1,0.2,0.8,0.6,0.4,,,,,,,,,,,,,,,0.7891,,0.6,0.4,0.2,0.8,0.6,0.4,0.4,0.6,,,0.7704,,0.2,0.8,0.2,0.8,0.6,0.4,0.4,0.6,1,0
,,66aa5aaa7f31ee53f61079ac,66fc993a35423bf8b2a11e9a,2024-10-01_17h55.01.381,mdp,2024.2.1,Win32,59.88023952,66fa4ebf79326e780c390304,,,,,,,,,,,,,,,,,,,,,1181.9344,1181.9344,1181.9358,1184.9001,0,1,left,2.4344,,1184.9013,1187.5818,1,0,right,1187.5842,1190.4153,1,0,right,1,1190.4154,1190.4154,1190.4168,1191.9142,0,42,42,42,1,0.2,0.8,0.6,0.4,,,,,,,,,,,,,,,2.1519,,0.6,0.4,0.2,0.8,0.6,0.4,0.4,0.6,,,2.295,,0.4,0.6,0.8,0.2,0.6,0.4,0.4,0.6,1,0
,,66aa5aaa7f31ee53f61079ac,66fc993a35423bf8b2a11e9a,2024-10-01_17h55.01.381,mdp,2024.2.1,Win32,59.88023952,66fa4ebf79326e780c390304,,,,,,,,,,,,,,,,,,,,,1191.9148,1191.9148,1191.9164,1193.1642,0,1,left,0.717,,1193.1655,1195.6483,1,1,right,1195.6495,1198.5277,1,1,right,0,1198.5278,1198.5278,1198.5307,1200.0274,0,43,43,43,1,0.2,0.8,0.6,0.4,,,,,,,,,,,,,,,1.9635,,0.6,0.4,0.2,0.8,0.6,0.4,0.4,0.6,,,2.3499,,0.4,0.6,0.8,0.2,0.6,0.4,0.4,0.6,1,0
,,66aa5aaa7f31ee53f61079ac,66fc993a35423bf8b2a11e9a,2024-10-01_17h55.01.381,mdp,2024.2.1,Win32,59.88023952,66fa4ebf79326e780c390304,,,,,,,,,,,,,,,,,,,,,1200.0293,1200.0293,1200.0311,1201.1438,0,1,left,0.584,,1201.1463,1202.6604,1,1,right,1202.6635,1205.1933,0,0,left,1,1205.1933,1205.1933,1205.1966,1206.6924,0,44,44,44,1,0.2,0.8,0.6,0.4,,,,,,,,,,,,,,,0.9909,,0.6,0.4,0.2,0.8,0.6,0.4,0.4,0.6,,,2.0023,,0.4,0.6,0.8,0.2,0.6,0.4,0.4,0.6,1,0
,,66aa5aaa7f31ee53f61079ac,66fc993a35423bf8b2a11e9a,2024-10-01_17h55.01.381,mdp,2024.2.1,Win32,59.88023952,66fa4ebf79326e780c390304,,,,,,,,,,,,,,,,,,,,,1206.6942,1206.6942,1206.6959,1208.9586,0,1,left,1.7346,,1208.9616,1210.5246,1,0,right,1210.5277,1212.7409,0,1,left,0,1212.741,1212.7411,1212.744,1214.2401,0,45,45,45,1,0.2,0.8,0.6,0.4,,,,,,,,,,,,,,,1.0419,,0.6,0.4,0.2,0.8,0.6,0.4,0.4,0.6,,,1.6812,,0.4,0.6,0.8,0.2,0.4,0.6,0.8,0.2,1,0
,,66aa5aaa7f31ee53f61079ac,66fc993a35423bf8b2a11e9a,2024-10-01_17h55.01.381,mdp,2024.2.1,Win32,59.88023952,66fa4ebf79326e780c390304,,,,,,,,,,,,,,,,,,,,,1214.2422,1214.2423,1214.2438,1215.7905,0,0,left,1.0182,,1215.7933,1217.5067,1,1,right,1217.5092,1219.5225,0,0,left,1,1219.5229,1219.5229,1219.5257,1221.022,0,46,46,46,1,0.2,0.8,0.6,0.4,,,,,,,,,,,,,,,1.1782,,0.6,0.4,0.2,0.8,0.4,0.6,0.8,0.2,,,1.4775,,0.4,0.6,0.8,0.2,0.4,0.6,0.8,0.2,1,0
,,66aa5aaa7f31ee53f61079ac,66fc993a35423bf8b2a11e9a,2024-10-01_17h55.01.381,mdp,2024.2.1,Win32,59.88023952,66fa4ebf79326e780c390304,,,,,,,,,,,,,,,,,,,,,1221.0237,1221.0237,1221.0255,1223.3377,0,1,left,1.7854,,1223.3409,1224.921,1,1,right,1224.9238,1227.3209,0,1,left,0,1227.321,1227.321,1227.3236,1228.8198,0,47,47,47,1,0.2,0.8,0.6,0.4,,,,,,,,,,,,,,,1.0479,,0.6,0.4,0.2,0.8,0.8,0.2,0.4,0.6,,,1.8669,,0.4,0.6,0.8,0.2,0.4,0.6,0.8,0.2,1,0
,,66aa5aaa7f31ee53f61079ac,66fc993a35423bf8b2a11e9a,2024-10-01_17h55.01.381,mdp,2024.2.1,Win32,59.88023952,66fa4ebf79326e780c390304,,,,,,,,,,,,,,,,,,,,,1228.8216,1228.8216,1228.8234,1229.9694,0,1,left,0.6259,,1229.9721,1231.136,1,1,right,1231.1392,1233.2853,1,1,right,0,1233.2853,1233.2854,1233.2882,1234.7834,0,48,48,48,1,0.2,0.8,0.6,0.4,,,,,,,,,,,,,,,0.6366,,0.6,0.4,0.2,0.8,0.8,0.2,0.4,0.6,,,1.6173,,0.4,0.6,0.8,0.2,0.4,0.6,0.8,0.2,1,0
,,66aa5aaa7f31ee53f61079ac,66fc993a35423bf8b2a11e9a,2024-10-01_17h55.01.381,mdp,2024.2.1,Win32,59.88023952,66fa4ebf79326e780c390304,,,,,,,,,,,,,,,,,,,,,1234.7844,1234.7849,1234.788,1235.835,0,1,left,0.5202,,1235.8375,1237.118,0,0,left,1237.1207,1238.3672,1,1,right,0,1238.3674,1238.3674,1238.3703,1239.8665,0,49,49,49,1,0.2,0.8,0.6,0.4,,,,,,,,,,,,,,,0.7505,,0.6,0.4,0.2,0.8,0.8,0.2,0.4,0.6,,,0.7138,,0.4,0.6,0.8,0.2,0.4,0.6,0.8,0.2,1,0
,,66aa5aaa7f31ee53f61079ac,66fc993a35423bf8b2a11e9a,2024-10-01_17h55.01.381,mdp,2024.2.1,Win32,59.88023952,66fa4ebf79326e780c390304,,,,,,,,,,,,,,,,,,,,,,,,,,,,,,,,,,,,,,,,,,,,,,,,,,,,,,,,1239.8672,1298.3836,0,3,3,8,1,imgs/giraffe.png,imgs/cat.png,imgs/squirrel.png,imgs/lion.png,imgs/rabbit.png,,,,,,,,,,,,,,,,,,,,,,,,
,,66aa5aaa7f31ee53f61079ac,66fc993a35423bf8b2a11e9a,2024-10-01_17h55.01.381,mdp,2024.2.1,Win32,59.88023952,66fa4ebf79326e780c390304,,,,,,,,,,,,,,1,seqs/st1seq27.csv,1298.3871,1300.3176,space,1.4018,,1300.3228,1300.3229,1300.3244,1302.0501,0,0,left,1.1963,,1302.0535,1302.0546,0,1,,1302.0558,1302.0568,1,0,,1,1302.0568,1302.0568,1302.0579,1303.5495,0,0,0,0,1,0.6,0.4,0.4,0.6,1,0,,,,,,,,,,,,,,,,,,,,,,,,,,,,,,,,,,,,
,,66aa5aaa7f31ee53f61079ac,66fc993a35423bf8b2a11e9a,2024-10-01_17h55.01.381,mdp,2024.2.1,Win32,59.88023952,66fa4ebf79326e780c390304,,,,,,,,,,,,,,,,,,,,,1303.5515,1303.5515,1303.5533,1305.7665,1,0,right,1.6851,,1305.7694,1305.7706,0,0,,1305.7718,1305.7731,1,1,,1,1305.7731,1305.7731,1305.7751,1307.2654,0,1,1,1,1,0.6,0.4,0.4,0.6,1,0,,,,,,,,,,,,,,,,,,,,,,,,,,,,,,,,,,,,
,,66aa5aaa7f31ee53f61079ac,66fc993a35423bf8b2a11e9a,2024-10-01_17h55.01.381,mdp,2024.2.1,Win32,59.88023952,66fa4ebf79326e780c390304,,,,,,,,,,,,,,,,,,,,,1307.2664,1307.2664,1307.2688,1309.2651,0,1,left,1.4711,,1309.2675,1309.2685,0,0,,1309.2696,1309.2705,1,1,,0,1309.2705,1309.2705,1309.2715,1310.7641,0,2,2,2,1,0.6,0.4,0.4,0.6,1,0,,,,,,,,,,,,,,,,,,,,,,,,,,,,,,,,,,,,
,,66aa5aaa7f31ee53f61079ac,66fc993a35423bf8b2a11e9a,2024-10-01_17h55.01.381,mdp,2024.2.1,Win32,59.88023952,66fa4ebf79326e780c390304,,,,,,,,,,,,,,,,,,,,,1310.7651,1310.7651,1310.7676,1311.8972,0,1,left,0.6077,,1311.9005,1311.9015,0,0,,1311.9025,1311.9035,1,0,,0,1311.9036,1311.9036,1311.9045,1313.3969,0,3,3,3,1,0.6,0.4,0.4,0.6,1,0,,,,,,,,,,,,,,,,,,,,,,,,,,,,,,,,,,,,
,,66aa5aaa7f31ee53f61079ac,66fc993a35423bf8b2a11e9a,2024-10-01_17h55.01.381,mdp,2024.2.1,Win32,59.88023952,66fa4ebf79326e780c390304,,,,,,,,,,,,,,,,,,,,,1313.3987,1313.3987,1313.4004,1314.6639,0,0,left,0.7342,,1314.6667,1314.6676,0,0,,1314.6687,1314.6696,1,0,,1,1314.6697,1314.6697,1314.6706,1316.163,0,4,4,4,1,0.6,0.4,0.4,0.6,1,0,,,,,,,,,,,,,,,,,,,,,,,,,,,,,,,,,,,,
,,66aa5aaa7f31ee53f61079ac,66fc993a35423bf8b2a11e9a,2024-10-01_17h55.01.381,mdp,2024.2.1,Win32,59.88023952,66fa4ebf79326e780c390304,,,,,,,,,,,,,,,,,,,,,1316.165,1316.165,1316.1667,1317.3126,1,0,right,0.6181,,1317.3159,1317.3168,0,1,,1317.3178,1317.3188,1,0,,1,1317.3188,1317.3188,1317.3198,1318.8116,0,5,5,5,1,0.2,0.8,0.6,0.4,1,0,,,,,,,,,,,,,,,,,,,,,,,,,,,,,,,,,,,,
,,66aa5aaa7f31ee53f61079ac,66fc993a35423bf8b2a11e9a,2024-10-01_17h55.01.381,mdp,2024.2.1,Win32,59.88023952,66fa4ebf79326e780c390304,,,,,,,,,,,,,,,,,,,,,1318.8127,1318.8128,1318.8154,1320.7946,1,0,right,1.4568,,1320.7978,1320.7987,0,1,,1320.7999,1320.8009,1,1,,1,1320.801,1320.801,1320.802,1322.294,0,6,6,6,1,0.8,0.2,0.2,0.8,1,0,,,,,,,,,,,,,,,,,,,,,,,,,,,,,,,,,,,,
,,66aa5aaa7f31ee53f61079ac,66fc993a35423bf8b2a11e9a,2024-10-01_17h55.01.381,mdp,2024.2.1,Win32,59.88023952,66fa4ebf79326e780c390304,,,,,,,,,,,,,,,,,,,,,1322.2951,1322.2951,1322.2979,1323.4943,0,0,left,0.668,,1323.4974,1323.4982,0,0,,1323.4994,1323.5002,1,0,,1,1323.5003,1323.5003,1323.5012,1324.9938,0,7,7,7,1,0.8,0.2,0.2,0.8,1,0,,,,,,,,,,,,,,,,,,,,,,,,,,,,,,,,,,,,
,,66aa5aaa7f31ee53f61079ac,66fc993a35423bf8b2a11e9a,2024-10-01_17h55.01.381,mdp,2024.2.1,Win32,59.88023952,66fa4ebf79326e780c390304,,,,,,,,,,,,,,,,,,,,,1324.9949,1324.9949,1324.9975,1326.3275,0,0,left,0.8018,,1326.3302,1326.3313,0,1,,1326.3327,1326.3336,1,1,,1,1326.3337,1326.3337,1326.3347,1327.8264,0,8,8,8,1,0.8,0.2,0.2,0.8,1,0,,,,,,,,,,,,,,,,,,,,,,,,,,,,,,,,,,,,
,,66aa5aaa7f31ee53f61079ac,66fc993a35423bf8b2a11e9a,2024-10-01_17h55.01.381,mdp,2024.2.1,Win32,59.88023952,66fa4ebf79326e780c390304,,,,,,,,,,,,,,,,,,,,,1327.8283,1327.8283,1327.8301,1328.8437,1,1,right,0.4935,,1328.8468,1328.8477,0,0,,1328.8489,1328.8497,1,1,,0,1328.8498,1328.8498,1328.8507,1330.342,0,9,9,9,1,0.8,0.2,0.2,0.8,1,0,,,,,,,,,,,,,,,,,,,,,,,,,,,,,,,,,,,,
,,66aa5aaa7f31ee53f61079ac,66fc993a35423bf8b2a11e9a,2024-10-01_17h55.01.381,mdp,2024.2.1,Win32,59.88023952,66fa4ebf79326e780c390304,,,,,,,,,,,,,,,,,,,,,1330.3431,1330.3431,1330.3456,1331.2926,0,0,left,0.4272,,1331.2959,1331.2969,0,1,,1331.2982,1331.2991,1,0,,1,1331.2991,1331.2992,1331.3001,1332.7912,0,10,10,10,1,0.8,0.2,0.2,0.8,1,0,,,,,,,,,,,,,,,,,,,,,,,,,,,,,,,,,,,,
,,66aa5aaa7f31ee53f61079ac,66fc993a35423bf8b2a11e9a,2024-10-01_17h55.01.381,mdp,2024.2.1,Win32,59.88023952,66fa4ebf79326e780c390304,,,,,,,,,,,,,,,,,,,,,1332.7929,1332.793,1332.7948,1333.8746,0,0,left,0.5585,,1333.8777,1333.8788,0,0,,1333.8799,1333.8808,1,0,,1,1333.8809,1333.8809,1333.8818,1335.3736,0,11,11,11,1,0.6,0.4,0.6,0.4,1,0,,,,,,,,,,,,,,,,,,,,,,,,,,,,,,,,,,,,
,,66aa5aaa7f31ee53f61079ac,66fc993a35423bf8b2a11e9a,2024-10-01_17h55.01.381,mdp,2024.2.1,Win32,59.88023952,66fa4ebf79326e780c390304,,,,,,,,,,,,,,,,,,,,,1335.3745,1335.3745,1335.3765,1336.7576,0,0,left,0.851,,1336.76,1336.761,0,0,,1336.7624,1336.7634,1,0,,1,1336.7634,1336.7634,1336.7647,1338.2576,0,12,12,12,1,0.6,0.4,0.6,0.4,1,0,,,,,,,,,,,,,,,,,,,,,,,,,,,,,,,,,,,,
,,66aa5aaa7f31ee53f61079ac,66fc993a35423bf8b2a11e9a,2024-10-01_17h55.01.381,mdp,2024.2.1,Win32,59.88023952,66fa4ebf79326e780c390304,,,,,,,,,,,,,,,,,,,,,1338.2589,1338.2589,1338.2605,1339.3574,1,1,right,0.568,,1339.3601,1339.3611,0,1,,1339.3621,1339.3631,1,0,,0,1339.3632,1339.3632,1339.3641,1340.8559,0,13,13,13,1,0.6,0.4,0.6,0.4,1,0,,,,,,,,,,,,,,,,,,,,,,,,,,,,,,,,,,,,
,,66aa5aaa7f31ee53f61079ac,66fc993a35423bf8b2a11e9a,2024-10-01_17h55.01.381,mdp,2024.2.1,Win32,59.88023952,66fa4ebf79326e780c390304,,,,,,,,,,,,,,,,,,,,,1340.8578,1340.8578,1340.8595,1341.7228,0,0,left,0.3413,,1341.7257,1341.7268,0,0,,1341.7279,1341.7288,1,0,,1,1341.7289,1341.7289,1341.7298,1343.2222,0,14,14,14,1,0.8,0.2,0.8,0.2,1,0,,,,,,,,,,,,,,,,,,,,,,,,,,,,,,,,,,,,
,,66aa5aaa7f31ee53f61079ac,66fc993a35423bf8b2a11e9a,2024-10-01_17h55.01.381,mdp,2024.2.1,Win32,59.88023952,66fa4ebf79326e780c390304,,,,,,,,,,,,,,,,,,,,,1343.2234,1343.2234,1343.2257,1344.4715,0,0,left,0.7176,,1344.4745,1344.4757,0,0,,1344.477,1344.4782,1,0,,1,1344.4783,1344.4783,1344.4796,1345.9714,0,15,15,15,1,0.8,0.2,0.8,0.2,1,0,,,,,,,,,,,,,,,,,,,,,,,,,,,,,,,,,,,,
,,66aa5aaa7f31ee53f61079ac,66fc993a35423bf8b2a11e9a,2024-10-01_17h55.01.381,mdp,2024.2.1,Win32,59.88023952,66fa4ebf79326e780c390304,,,,,,,,,,,,,,,,,,,,,1345.9725,1345.9725,1345.975,1346.8882,0,0,left,0.3898,,1346.8913,1346.8924,0,0,,1346.8935,1346.8945,1,0,,1,1346.8945,1346.8945,1346.8956,1348.3881,0,16,16,16,1,0.8,0.2,0.8,0.2,1,0,,,,,,,,,,,,,,,,,,,,,,,,,,,,,,,,,,,,
,,66aa5aaa7f31ee53f61079ac,66fc993a35423bf8b2a11e9a,2024-10-01_17h55.01.381,mdp,2024.2.1,Win32,59.88023952,66fa4ebf79326e780c390304,,,,,,,,,,,,,,,,,,,,,1348.3893,1348.3893,1348.3915,1349.4041,0,0,left,0.484,,1349.4072,1349.4083,0,1,,1349.4094,1349.4103,1,0,,1,1349.4104,1349.4104,1349.4112,1350.9035,0,17,17,17,1,0.8,0.2,0.8,0.2,1,0,,,,,,,,,,,,,,,,,,,,,,,,,,,,,,,,,,,,
,,66aa5aaa7f31ee53f61079ac,66fc993a35423bf8b2a11e9a,2024-10-01_17h55.01.381,mdp,2024.2.1,Win32,59.88023952,66fa4ebf79326e780c390304,,,,,,,,,,,,,,,,,,,,,1350.9046,1350.9046,1350.9072,1351.9032,0,0,left,0.4731,,1351.9063,1351.9073,0,0,,1351.9085,1351.9094,1,1,,1,1351.9094,1351.9094,1351.9104,1353.402,0,18,18,18,1,0.8,0.2,0.8,0.2,1,0,,,,,,,,,,,,,,,,,,,,,,,,,,,,,,,,,,,,
,,66aa5aaa7f31ee53f61079ac,66fc993a35423bf8b2a11e9a,2024-10-01_17h55.01.381,mdp,2024.2.1,Win32,59.88023952,66fa4ebf79326e780c390304,,,,,,,,,,,,,,,,,,,,,1353.4037,1353.4037,1353.4062,1354.4529,0,0,left,0.5181,,1354.4561,1354.4573,0,0,,1354.4585,1354.4595,1,0,,1,1354.4595,1354.4595,1354.4605,1355.9525,0,19,19,19,1,0.8,0.2,0.8,0.2,1,0,,,,,,,,,,,,,,,,,,,,,,,,,,,,,,,,,,,,
,,66aa5aaa7f31ee53f61079ac,66fc993a35423bf8b2a11e9a,2024-10-01_17h55.01.381,mdp,2024.2.1,Win32,59.88023952,66fa4ebf79326e780c390304,,,,,,,,,,,,,,,,,,,,,1355.9534,1355.9534,1355.956,1356.8514,0,1,left,0.3674,,1356.8546,1356.8557,0,1,,1356.8571,1356.8581,1,0,,0,1356.8581,1356.8581,1356.8592,1358.3516,0,20,20,20,1,0.2,0.8,0.6,0.4,1,0,,,,,,,,,,,,,,,,,,,,,,,,,,,,,,,,,,,,
,,66aa5aaa7f31ee53f61079ac,66fc993a35423bf8b2a11e9a,2024-10-01_17h55.01.381,mdp,2024.2.1,Win32,59.88023952,66fa4ebf79326e780c390304,,,,,,,,,,,,,,,,,,,,,1358.3527,1358.3527,1358.3554,1359.2684,0,1,left,0.3859,,1359.2713,1359.2725,0,1,,1359.2735,1359.2744,1,1,,0,1359.2745,1359.2745,1359.2754,1360.7674,0,21,21,21,1,0.2,0.8,0.6,0.4,1,0,,,,,,,,,,,,,,,,,,,,,,,,,,,,,,,,,,,,
,,66aa5aaa7f31ee53f61079ac,66fc993a35423bf8b2a11e9a,2024-10-01_17h55.01.381,mdp,2024.2.1,Win32,59.88023952,66fa4ebf79326e780c390304,,,,,,,,,,,,,,,,,,,,,1360.7693,1360.7693,1360.7709,1361.7341,0,1,left,0.4343,,1361.7372,1361.7382,0,0,,1361.7393,1361.7402,1,1,,0,1361.7402,1361.7402,1361.7411,1363.2336,0,22,22,22,1,0.2,0.8,0.6,0.4,1,0,,,,,,,,,,,,,,,,,,,,,,,,,,,,,,,,,,,,
,,66aa5aaa7f31ee53f61079ac,66fc993a35423bf8b2a11e9a,2024-10-01_17h55.01.381,mdp,2024.2.1,Win32,59.88023952,66fa4ebf79326e780c390304,,,,,,,,,,,,,,,,,,,,,1363.2352,1363.2352,1363.2372,1364.2501,0,0,left,0.4874,,1364.2533,1364.2543,0,0,,1364.2554,1364.2564,1,1,,1,1364.2564,1364.2564,1364.2575,1365.7494,0,23,23,23,1,0.2,0.8,0.6,0.4,1,0,,,,,,,,,,,,,,,,,,,,,,,,,,,,,,,,,,,,
,,66aa5aaa7f31ee53f61079ac,66fc993a35423bf8b2a11e9a,2024-10-01_17h55.01.381,mdp,2024.2.1,Win32,59.88023952,66fa4ebf79326e780c390304,,,,,,,,,,,,,,,,,,,,,1365.7505,1365.7505,1365.7531,1366.9003,0,1,left,0.6192,,1366.9031,1366.904,0,0,,1366.9052,1366.9061,1,1,,0,1366.9061,1366.9061,1366.9071,1368.3987,0,24,24,24,1,0.2,0.8,0.6,0.4,1,0,,,,,,,,,,,,,,,,,,,,,,,,,,,,,,,,,,,,
,,66aa5aaa7f31ee53f61079ac,66fc993a35423bf8b2a11e9a,2024-10-01_17h55.01.381,mdp,2024.2.1,Win32,59.88023952,66fa4ebf79326e780c390304,,,,,,,,,,,,,,,,,,,,,1368.3997,1368.3997,1368.4022,1369.5159,0,1,left,0.5868,,1369.5185,1369.5195,0,0,,1369.5206,1369.5216,1,1,,0,1369.5217,1369.5217,1369.5226,1371.0152,0,25,25,25,1,0.2,0.8,0.6,0.4,1,0,,,,,,,,,,,,,,,,,,,,,,,,,,,,,,,,,,,,
,,66aa5aaa7f31ee53f61079ac,66fc993a35423bf8b2a11e9a,2024-10-01_17h55.01.381,mdp,2024.2.1,Win32,59.88023952,66fa4ebf79326e780c390304,,,,,,,,,,,,,,,,,,,,,1371.0164,1371.0165,1371.0182,1372.8318,0,0,left,1.2846,,1372.8344,1372.8354,0,1,,1372.8364,1372.8375,1,0,,1,1372.8375,1372.8375,1372.8385,1374.3304,0,26,26,26,1,0.6,0.4,0.4,0.6,1,0,,,,,,,,,,,,,,,,,,,,,,,,,,,,,,,,,,,,
,,66aa5aaa7f31ee53f61079ac,66fc993a35423bf8b2a11e9a,2024-10-01_17h55.01.381,mdp,2024.2.1,Win32,59.88023952,66fa4ebf79326e780c390304,,,,,,,,,,,,,,,,,,,,,1374.3324,1374.3325,1374.3343,1375.7652,0,0,left,0.9025,,1375.7677,1375.7687,0,0,,1375.7698,1375.7707,1,0,,1,1375.7708,1375.7708,1375.7721,1377.2633,0,27,27,27,1,0.6,0.4,0.4,0.6,1,0,,,,,,,,,,,,,,,,,,,,,,,,,,,,,,,,,,,,
,,66aa5aaa7f31ee53f61079ac,66fc993a35423bf8b2a11e9a,2024-10-01_17h55.01.381,mdp,2024.2.1,Win32,59.88023952,66fa4ebf79326e780c390304,,,,,,,,,,,,,,,,,,,,,1377.265,1377.265,1377.2669,1378.297,0,0,left,0.501,,1378.2996,1378.3008,0,1,,1378.302,1378.3029,1,0,,1,1378.303,1378.303,1378.3039,1379.7957,0,28,28,28,1,0.6,0.4,0.4,0.6,1,0,,,,,,,,,,,,,,,,,,,,,,,,,,,,,,,,,,,,
,,66aa5aaa7f31ee53f61079ac,66fc993a35423bf8b2a11e9a,2024-10-01_17h55.01.381,mdp,2024.2.1,Win32,59.88023952,66fa4ebf79326e780c390304,,,,,,,,,,,,,,,,,,,,,1379.7976,1379.7977,1379.7994,1380.8291,0,1,left,0.502,,1380.832,1380.8331,0,1,,1380.8342,1380.8351,1,1,,0,1380.8352,1380.8352,1380.8362,1382.3285,0,29,29,29,1,0.4,0.6,0.6,0.4,1,0,,,,,,,,,,,,,,,,,,,,,,,,,,,,,,,,,,,,
,,66aa5aaa7f31ee53f61079ac,66fc993a35423bf8b2a11e9a,2024-10-01_17h55.01.381,mdp,2024.2.1,Win32,59.88023952,66fa4ebf79326e780c390304,,,,,,,,,,,,,,,,,,,,,1382.3297,1382.3297,1382.3321,1383.2455,0,1,left,0.3898,,1383.248,1383.2489,0,1,,1383.25,1383.2509,1,1,,0,1383.251,1383.251,1383.2519,1384.7451,0,30,30,30,1,0.4,0.6,0.6,0.4,1,0,,,,,,,,,,,,,,,,,,,,,,,,,,,,,,,,,,,,
,,66aa5aaa7f31ee53f61079ac,66fc993a35423bf8b2a11e9a,2024-10-01_17h55.01.381,mdp,2024.2.1,Win32,59.88023952,66fa4ebf79326e780c390304,,,,,,,,,,,,,,,,,,,,,1384.7462,1384.7464,1384.7481,1386.2777,0,1,left,1.0065,,1386.2802,1386.2812,0,0,,1386.2824,1386.2832,1,1,,0,1386.2833,1386.2833,1386.2842,1387.777,0,31,31,31,1,0.4,0.6,0.6,0.4,1,0,,,,,,,,,,,,,,,,,,,,,,,,,,,,,,,,,,,,
,,66aa5aaa7f31ee53f61079ac,66fc993a35423bf8b2a11e9a,2024-10-01_17h55.01.381,mdp,2024.2.1,Win32,59.88023952,66fa4ebf79326e780c390304,,,,,,,,,,,,,,,,,,,,,1387.7787,1387.7787,1387.7806,1388.8106,0,1,left,0.5016,,1388.8132,1388.8144,0,1,,1388.8161,1388.8172,1,0,,0,1388.8172,1388.8172,1388.818,1390.3099,0,32,32,32,1,0.8,0.2,0.8,0.2,1,0,,,,,,,,,,,,,,,,,,,,,,,,,,,,,,,,,,,,
,,66aa5aaa7f31ee53f61079ac,66fc993a35423bf8b2a11e9a,2024-10-01_17h55.01.381,mdp,2024.2.1,Win32,59.88023952,66fa4ebf79326e780c390304,,,,,,,,,,,,,,,,,,,,,1390.3115,1390.3115,1390.3132,1391.21,1,0,right,0.3679,,1391.2127,1391.2136,0,0,,1391.2147,1391.2157,1,0,,1,1391.2157,1391.2157,1391.2166,1392.7088,0,33,33,33,1,0.8,0.2,0.8,0.2,1,0,,,,,,,,,,,,,,,,,,,,,,,,,,,,,,,,,,,,
,,66aa5aaa7f31ee53f61079ac,66fc993a35423bf8b2a11e9a,2024-10-01_17h55.01.381,mdp,2024.2.1,Win32,59.88023952,66fa4ebf79326e780c390304,,,,,,,,,,,,,,,,,,,,,1392.7095,1392.7095,1392.7122,1393.6088,1,0,right,0.3674,,1393.612,1393.6132,0,1,,1393.6144,1393.6154,1,1,,1,1393.6155,1393.6155,1393.6165,1395.1068,0,34,34,34,1,0.6,0.4,0.2,0.8,1,0,,,,,,,,,,,,,,,,,,,,,,,,,,,,,,,,,,,,
,,66aa5aaa7f31ee53f61079ac,66fc993a35423bf8b2a11e9a,2024-10-01_17h55.01.381,mdp,2024.2.1,Win32,59.88023952,66fa4ebf79326e780c390304,,,,,,,,,,,,,,,,,,,,,1395.1087,1395.109,1395.1115,1396.0416,1,1,right,0.4099,,1396.0442,1396.0459,0,1,,1396.047,1396.0481,1,0,,0,1396.0481,1396.0482,1396.049,1397.5413,0,35,35,35,1,0.6,0.4,0.2,0.8,1,0,,,,,,,,,,,,,,,,,,,,,,,,,,,,,,,,,,,,
,,66aa5aaa7f31ee53f61079ac,66fc993a35423bf8b2a11e9a,2024-10-01_17h55.01.381,mdp,2024.2.1,Win32,59.88023952,66fa4ebf79326e780c390304,,,,,,,,,,,,,,,,,,,,,1397.5425,1397.5425,1397.545,1398.4251,0,0,left,0.3511,,1398.4277,1398.4287,0,1,,1398.4298,1398.4307,1,1,,1,1398.4308,1398.4308,1398.4317,1399.9229,0,36,36,36,1,0.6,0.4,0.2,0.8,1,0,,,,,,,,,,,,,,,,,,,,,,,,,,,,,,,,,,,,
,,66aa5aaa7f31ee53f61079ac,66fc993a35423bf8b2a11e9a,2024-10-01_17h55.01.381,mdp,2024.2.1,Win32,59.88023952,66fa4ebf79326e780c390304,,,,,,,,,,,,,,,,,,,,,1399.9247,1399.9249,1399.9268,1401.2403,0,1,left,0.785,,1401.2429,1401.2441,0,0,,1401.2453,1401.2471,1,1,,0,1401.2472,1401.2472,1401.2483,1402.7391,0,37,37,37,1,0.6,0.4,0.2,0.8,1,0,,,,,,,,,,,,,,,,,,,,,,,,,,,,,,,,,,,,
,,66aa5aaa7f31ee53f61079ac,66fc993a35423bf8b2a11e9a,2024-10-01_17h55.01.381,mdp,2024.2.1,Win32,59.88023952,66fa4ebf79326e780c390304,,,,,,,,,,,,,,,,,,,,,1402.7402,1402.7402,1402.7429,1403.8235,1,1,right,0.5518,,1403.8265,1403.8275,0,0,,1403.8286,1403.8297,1,1,,0,1403.8297,1403.8297,1403.8306,1405.3219,0,38,38,38,1,0.8,0.2,0.6,0.4,1,0,,,,,,,,,,,,,,,,,,,,,,,,,,,,,,,,,,,,
,,66aa5aaa7f31ee53f61079ac,66fc993a35423bf8b2a11e9a,2024-10-01_17h55.01.381,mdp,2024.2.1,Win32,59.88023952,66fa4ebf79326e780c390304,,,,,,,,,,,,,,,,,,,,,1405.3231,1405.3231,1405.3259,1406.1887,0,0,left,0.3349,,1406.1918,1406.1927,0,0,,1406.1939,1406.1949,1,1,,1,1406.195,1406.195,1406.1959,1407.6884,0,39,39,39,1,0.6,0.4,0.4,0.6,1,0,,,,,,,,,,,,,,,,,,,,,,,,,,,,,,,,,,,,
,,66aa5aaa7f31ee53f61079ac,66fc993a35423bf8b2a11e9a,2024-10-01_17h55.01.381,mdp,2024.2.1,Win32,59.88023952,66fa4ebf79326e780c390304,,,,,,,,,,,,,,,,,,,,,1407.6903,1407.6903,1407.692,1408.804,1,1,right,0.5887,,1408.8074,1408.8085,0,1,,1408.8098,1408.8109,1,1,,0,1408.8109,1408.8109,1408.812,1410.3048,0,40,40,40,1,0.4,0.6,0.6,0.4,1,0,,,,,,,,,,,,,,,,,,,,,,,,,,,,,,,,,,,,
