init_exp.started,init_exp.stopped,participant,session,date,expName,psychopyVersion,OS,frameRate,study_id,disp_instruction.started,disp_instruction.stopped,instruction.thisRepN,instruction.thisTrialN,instruction.thisN,instruction.thisIndex,instruction.ran,instimg_path,consent.started,consent.stopped,key_resp_3.keys,key_resp_3.rt,key_resp_3.duration,n_steps,sequence_path,init_block.started,init_block.stopped,key_resp.keys,key_resp.rt,key_resp.duration,init_trials.started,init_trials.stopped,step0.started,step0.stopped,act0,s1,res0.keys,res0.rt,res0.duration,step1.started,step1.stopped,act1,s2,res1.keys,step2.started,step2.stopped,act2,s3,res2.keys,rew,reward_comp.started,reward_comp.stopped,reward_disp.started,reward_disp.stopped,trials.thisRepN,trials.thisTrialN,trials.thisN,trials.thisIndex,trials.ran,s00a0s10,s00a0s11,s00a1s10,s00a1s11,rew10,rew11,break_block.started,break_block.stopped,block.thisRepN,block.thisTrialN,block.thisN,block.thisIndex,block.ran,s00path,s10path,s11path,s20path,s21path,res1.rt,res1.duration,s10a0s20,s10a0s21,s10a1s20,s10a1s21,s11a0s20,s11a0s21,s11a1s20,s11a1s21,rew20,rew21,res2.rt,res2.duration,s20a0s30,s20a0s31,s20a1s30,s20a1s31,s21a0s30,s21a0s31,s21a1s30,s21a1s31,rew30,rew31
0.0007,0.0046,66ae89305bcacb3aa6a78bb8,66fc9800ebcc4d1939fb065e,2024-10-02_02h51.01.400,mdp,2024.2.1,Win32,60.24096386,66fa4ebf79326e780c390304,,,,,,,,,,,,,,,,,,,,,,,,,,,,,,,,,,,,,,,,,,,,,,,,,,,,,,,,,,,,,,,,,,,,,,,,,,,,,,,,,,,,,,,,,,,
,,66ae89305bcacb3aa6a78bb8,66fc9800ebcc4d1939fb065e,2024-10-02_02h51.01.400,mdp,2024.2.1,Win32,60.24096386,66fa4ebf79326e780c390304,0.0119,206.3485,0,0,0,0,1,rlnn_exp/rlnn_exp.001.png,,,,,,,,,,,,,,,,,,,,,,,,,,,,,,,,,,,,,,,,,,,,,,,,,,,,,,,,,,,,,,,,,,,,,,,,,,,,,,,,,,,
,,66ae89305bcacb3aa6a78bb8,66fc9800ebcc4d1939fb065e,2024-10-02_02h51.01.400,mdp,2024.2.1,Win32,60.24096386,66fa4ebf79326e780c390304,206.3496,1147.9371,0,1,1,1,1,rlnn_exp/rlnn_exp.002.png,,,,,,,,,,,,,,,,,,,,,,,,,,,,,,,,,,,,,,,,,,,,,,,,,,,,,,,,,,,,,,,,,,,,,,,,,,,,,,,,,,,
,,66ae89305bcacb3aa6a78bb8,66fc9800ebcc4d1939fb065e,2024-10-02_02h51.01.400,mdp,2024.2.1,Win32,60.24096386,66fa4ebf79326e780c390304,1147.9403,1159.4375,0,2,2,2,1,rlnn_exp/rlnn_exp.003.png,,,,,,,,,,,,,,,,,,,,,,,,,,,,,,,,,,,,,,,,,,,,,,,,,,,,,,,,,,,,,,,,,,,,,,,,,,,,,,,,,,,
,,66ae89305bcacb3aa6a78bb8,66fc9800ebcc4d1939fb065e,2024-10-02_02h51.01.400,mdp,2024.2.1,Win32,60.24096386,66fa4ebf79326e780c390304,1159.4386,1170.3373,0,3,3,3,1,rlnn_exp/rlnn_exp.004.png,,,,,,,,,,,,,,,,,,,,,,,,,,,,,,,,,,,,,,,,,,,,,,,,,,,,,,,,,,,,,,,,,,,,,,,,,,,,,,,,,,,
,,66ae89305bcacb3aa6a78bb8,66fc9800ebcc4d1939fb065e,2024-10-02_02h51.01.400,mdp,2024.2.1,Win32,60.24096386,66fa4ebf79326e780c390304,,,,,,,,,1170.338,1195.9223,y,15.5413,,,,,,,,,,,,,,,,,,,,,,,,,,,,,,,,,,,,,,,,,,,,,,,,,,,,,,,,,,,,,,,,,,,,,,,,,,,,,,,
,,66ae89305bcacb3aa6a78bb8,66fc9800ebcc4d1939fb065e,2024-10-02_02h51.01.400,mdp,2024.2.1,Win32,60.24096386,66fa4ebf79326e780c390304,,,,,,,,,,,,,,1,seqs/st1seq17.csv,1195.9376,1198.8054,space,2.3575,,1198.811,1198.8111,1198.8117,1204.9224,0,1,left,5.5748,,1204.9234,1204.9267,,1,,1204.9274,1204.9298,,0,,0,1204.93,1204.9302,1204.9308,1206.4216,0,0,0,0,1,0.2,0.8,0.8,0.2,1,0,,,,,,,,,,,,,,,,,,,,,,,,,,,,,,,,,,,,
,,66ae89305bcacb3aa6a78bb8,66fc9800ebcc4d1939fb065e,2024-10-02_02h51.01.400,mdp,2024.2.1,Win32,60.24096386,66fa4ebf79326e780c390304,,,,,,,,,,,,,,,,,,,,,1206.4226,1206.4226,1206.425,1209.7047,0,0,left,2.7516,,1209.7075,1209.7092,,1,,1209.7106,1209.7116,,0,,1,1209.7117,1209.7117,1209.7128,1211.204,0,1,1,1,1,0.8,0.2,0.2,0.8,1,0,,,,,,,,,,,,,,,,,,,,,,,,,,,,,,,,,,,,
,,66ae89305bcacb3aa6a78bb8,66fc9800ebcc4d1939fb065e,2024-10-02_02h51.01.400,mdp,2024.2.1,Win32,60.24096386,66fa4ebf79326e780c390304,,,,,,,,,,,,,,,,,,,,,1211.2046,1211.2048,1211.2069,1213.389,0,0,left,1.6517,,1213.391,1213.3926,,0,,1213.394,1213.3951,,0,,1,1213.3952,1213.3952,1213.396,1214.8884,0,2,2,2,1,0.8,0.2,0.2,0.8,1,0,,,,,,,,,,,,,,,,,,,,,,,,,,,,,,,,,,,,
,,66ae89305bcacb3aa6a78bb8,66fc9800ebcc4d1939fb065e,2024-10-02_02h51.01.400,mdp,2024.2.1,Win32,60.24096386,66fa4ebf79326e780c390304,,,,,,,,,,,,,,,,,,,,,1214.8893,1214.8893,1214.8919,1217.3054,0,0,left,1.8845,,1217.3074,1217.3086,,0,,1217.3103,1217.3113,,1,,1,1217.3114,1217.3114,1217.3127,1218.8052,0,3,3,3,1,0.8,0.2,0.2,0.8,1,0,,,,,,,,,,,,,,,,,,,,,,,,,,,,,,,,,,,,
,,66ae89305bcacb3aa6a78bb8,66fc9800ebcc4d1939fb065e,2024-10-02_02h51.01.400,mdp,2024.2.1,Win32,60.24096386,66fa4ebf79326e780c390304,,,,,,,,,,,,,,,,,,,,,1218.806,1218.8061,1218.8078,1220.7227,0,0,left,1.3855,,1220.7248,1220.7262,,1,,1220.7278,1220.7288,,1,,1,1220.7289,1220.7289,1220.7301,1222.222,0,4,4,4,1,0.8,0.2,0.2,0.8,1,0,,,,,,,,,,,,,,,,,,,,,,,,,,,,,,,,,,,,
,,66ae89305bcacb3aa6a78bb8,66fc9800ebcc4d1939fb065e,2024-10-02_02h51.01.400,mdp,2024.2.1,Win32,60.24096386,66fa4ebf79326e780c390304,,,,,,,,,,,,,,,,,,,,,1222.2229,1222.223,1222.2253,1224.0891,0,1,left,1.3343,,1224.0914,1224.0927,,0,,1224.0943,1224.0954,,1,,0,1224.0954,1224.0955,1224.0964,1225.5977,0,5,5,5,1,0.8,0.2,0.2,0.8,1,0,,,,,,,,,,,,,,,,,,,,,,,,,,,,,,,,,,,,
,,66ae89305bcacb3aa6a78bb8,66fc9800ebcc4d1939fb065e,2024-10-02_02h51.01.400,mdp,2024.2.1,Win32,60.24096386,66fa4ebf79326e780c390304,,,,,,,,,,,,,,,,,,,,,1225.5987,1225.5987,1225.6011,1227.3382,0,0,left,1.2152,,1227.3406,1227.3421,,0,,1227.3435,1227.3447,,0,,1,1227.3447,1227.3447,1227.3457,1228.8387,0,6,6,6,1,0.8,0.2,0.2,0.8,1,0,,,,,,,,,,,,,,,,,,,,,,,,,,,,,,,,,,,,
,,66ae89305bcacb3aa6a78bb8,66fc9800ebcc4d1939fb065e,2024-10-02_02h51.01.400,mdp,2024.2.1,Win32,60.24096386,66fa4ebf79326e780c390304,,,,,,,,,,,,,,,,,,,,,1228.8399,1228.8399,1228.8437,1230.7551,0,0,left,1.387,,1230.7574,1230.759,,0,,1230.7604,1230.7616,,0,,1,1230.7617,1230.7617,1230.7627,1232.2549,0,7,7,7,1,0.8,0.2,0.2,0.8,1,0,,,,,,,,,,,,,,,,,,,,,,,,,,,,,,,,,,,,
,,66ae89305bcacb3aa6a78bb8,66fc9800ebcc4d1939fb065e,2024-10-02_02h51.01.400,mdp,2024.2.1,Win32,60.24096386,66fa4ebf79326e780c390304,,,,,,,,,,,,,,,,,,,,,1232.2556,1232.2558,1232.2586,1234.0471,0,1,left,1.2652,,1234.0495,1234.0507,,1,,1234.0518,1234.0527,,0,,0,1234.0527,1234.0529,1234.0537,1235.5551,0,8,8,8,1,0.4,0.6,0.6,0.4,1,0,,,,,,,,,,,,,,,,,,,,,,,,,,,,,,,,,,,,
,,66ae89305bcacb3aa6a78bb8,66fc9800ebcc4d1939fb065e,2024-10-02_02h51.01.400,mdp,2024.2.1,Win32,60.24096386,66fa4ebf79326e780c390304,,,,,,,,,,,,,,,,,,,,,1235.5561,1235.5564,1235.559,1237.0383,0,0,left,0.9565,,1237.0405,1237.042,,0,,1237.0431,1237.044,,0,,1,1237.0441,1237.0441,1237.0449,1238.5452,0,9,9,9,1,0.4,0.6,0.6,0.4,1,0,,,,,,,,,,,,,,,,,,,,,,,,,,,,,,,,,,,,
,,66ae89305bcacb3aa6a78bb8,66fc9800ebcc4d1939fb065e,2024-10-02_02h51.01.400,mdp,2024.2.1,Win32,60.24096386,66fa4ebf79326e780c390304,,,,,,,,,,,,,,,,,,,,,1238.5466,1238.5466,1238.5491,1239.6551,1,1,right,0.5708,,1239.6576,1239.6592,,1,,1239.6605,1239.6616,,1,,0,1239.6616,1239.6616,1239.6625,1241.1553,0,10,10,10,1,0.4,0.6,0.6,0.4,1,0,,,,,,,,,,,,,,,,,,,,,,,,,,,,,,,,,,,,
,,66ae89305bcacb3aa6a78bb8,66fc9800ebcc4d1939fb065e,2024-10-02_02h51.01.400,mdp,2024.2.1,Win32,60.24096386,66fa4ebf79326e780c390304,,,,,,,,,,,,,,,,,,,,,1241.1562,1241.1563,1241.1594,1242.2052,1,0,right,0.5174,,1242.2078,1242.2095,,1,,1242.2109,1242.212,,1,,1,1242.2121,1242.2121,1242.2129,1243.7053,0,11,11,11,1,0.6,0.4,0.4,0.6,1,0,,,,,,,,,,,,,,,,,,,,,,,,,,,,,,,,,,,,
,,66ae89305bcacb3aa6a78bb8,66fc9800ebcc4d1939fb065e,2024-10-02_02h51.01.400,mdp,2024.2.1,Win32,60.24096386,66fa4ebf79326e780c390304,,,,,,,,,,,,,,,,,,,,,1243.7059,1243.7059,1243.7084,1245.3555,1,1,right,1.118,,1245.3586,1245.3602,,0,,1245.362,1245.3637,,0,,0,1245.3639,1245.3639,1245.3649,1246.8553,0,12,12,12,1,0.6,0.4,0.4,0.6,1,0,,,,,,,,,,,,,,,,,,,,,,,,,,,,,,,,,,,,
,,66ae89305bcacb3aa6a78bb8,66fc9800ebcc4d1939fb065e,2024-10-02_02h51.01.400,mdp,2024.2.1,Win32,60.24096386,66fa4ebf79326e780c390304,,,,,,,,,,,,,,,,,,,,,1246.856,1246.8561,1246.8585,1248.2135,0,0,left,0.8419,,1248.2151,1248.2161,,1,,1248.2171,1248.2179,,1,,1,1248.218,1248.218,1248.2189,1249.7223,0,13,13,13,1,0.6,0.4,0.4,0.6,1,0,,,,,,,,,,,,,,,,,,,,,,,,,,,,,,,,,,,,
,,66ae89305bcacb3aa6a78bb8,66fc9800ebcc4d1939fb065e,2024-10-02_02h51.01.400,mdp,2024.2.1,Win32,60.24096386,66fa4ebf79326e780c390304,,,,,,,,,,,,,,,,,,,,,1249.7232,1249.7232,1249.726,1251.4223,0,1,left,1.1842,,1251.4246,1251.4261,,1,,1251.4274,1251.4284,,0,,0,1251.4284,1251.4284,1251.4294,1252.9222,0,14,14,14,1,0.6,0.4,0.4,0.6,1,0,,,,,,,,,,,,,,,,,,,,,,,,,,,,,,,,,,,,
,,66ae89305bcacb3aa6a78bb8,66fc9800ebcc4d1939fb065e,2024-10-02_02h51.01.400,mdp,2024.2.1,Win32,60.24096386,66fa4ebf79326e780c390304,,,,,,,,,,,,,,,,,,,,,1252.9229,1252.9229,1252.9254,1254.1223,0,0,left,0.6783,,1254.1246,1254.1262,,0,,1254.1276,1254.1286,,0,,1,1254.1288,1254.1288,1254.1296,1255.6283,0,15,15,15,1,0.6,0.4,0.4,0.6,1,0,,,,,,,,,,,,,,,,,,,,,,,,,,,,,,,,,,,,
,,66ae89305bcacb3aa6a78bb8,66fc9800ebcc4d1939fb065e,2024-10-02_02h51.01.400,mdp,2024.2.1,Win32,60.24096386,66fa4ebf79326e780c390304,,,,,,,,,,,,,,,,,,,,,1255.6292,1255.6292,1255.6318,1256.5559,0,0,left,0.4022,,1256.5589,1256.5606,,0,,1256.5619,1256.5633,,0,,1,1256.5633,1256.5633,1256.5644,1258.0567,0,16,16,16,1,0.6,0.4,0.4,0.6,1,0,,,,,,,,,,,,,,,,,,,,,,,,,,,,,,,,,,,,
,,66ae89305bcacb3aa6a78bb8,66fc9800ebcc4d1939fb065e,2024-10-02_02h51.01.400,mdp,2024.2.1,Win32,60.24096386,66fa4ebf79326e780c390304,,,,,,,,,,,,,,,,,,,,,1258.0575,1258.0575,1258.0598,1258.9726,0,1,left,0.3858,,1258.9753,1258.977,,0,,1258.9788,1258.98,,1,,0,1258.9801,1258.9801,1258.9812,1260.4723,0,17,17,17,1,0.2,0.8,0.6,0.4,1,0,,,,,,,,,,,,,,,,,,,,,,,,,,,,,,,,,,,,
,,66ae89305bcacb3aa6a78bb8,66fc9800ebcc4d1939fb065e,2024-10-02_02h51.01.400,mdp,2024.2.1,Win32,60.24096386,66fa4ebf79326e780c390304,,,,,,,,,,,,,,,,,,,,,1260.4729,1260.473,1260.4759,1261.3413,0,1,left,0.3404,,1261.3464,1261.3479,,1,,1261.3496,1261.3511,,1,,0,1261.3513,1261.3513,1261.3532,1262.856,0,18,18,18,1,0.2,0.8,0.6,0.4,1,0,,,,,,,,,,,,,,,,,,,,,,,,,,,,,,,,,,,,
,,66ae89305bcacb3aa6a78bb8,66fc9800ebcc4d1939fb065e,2024-10-02_02h51.01.400,mdp,2024.2.1,Win32,60.24096386,66fa4ebf79326e780c390304,,,,,,,,,,,,,,,,,,,,,1262.8569,1262.8569,1262.8602,1263.5228,1,0,right,0.135,,1263.5261,1263.5281,,1,,1263.5299,1263.531,,0,,1,1263.5312,1263.5312,1263.5321,1265.0225,0,19,19,19,1,0.2,0.8,0.6,0.4,1,0,,,,,,,,,,,,,,,,,,,,,,,,,,,,,,,,,,,,
,,66ae89305bcacb3aa6a78bb8,66fc9800ebcc4d1939fb065e,2024-10-02_02h51.01.400,mdp,2024.2.1,Win32,60.24096386,66fa4ebf79326e780c390304,,,,,,,,,,,,,,,,,,,,,1265.0233,1265.0234,1265.0264,1265.7893,1,1,right,0.2252,,1265.7924,1265.7937,,1,,1265.7949,1265.7962,,1,,0,1265.7963,1265.7963,1265.7971,1267.2889,0,20,20,20,1,0.2,0.8,0.6,0.4,1,0,,,,,,,,,,,,,,,,,,,,,,,,,,,,,,,,,,,,
,,66ae89305bcacb3aa6a78bb8,66fc9800ebcc4d1939fb065e,2024-10-02_02h51.01.400,mdp,2024.2.1,Win32,60.24096386,66fa4ebf79326e780c390304,,,,,,,,,,,,,,,,,,,,,1267.2895,1267.2895,1267.2923,1267.8395,1,1,right,0.0173,,1267.8422,1267.8439,,1,,1267.8454,1267.8464,,1,,0,1267.8465,1267.8465,1267.8474,1269.3392,0,21,21,21,1,0.2,0.8,0.6,0.4,1,0,,,,,,,,,,,,,,,,,,,,,,,,,,,,,,,,,,,,
,,66ae89305bcacb3aa6a78bb8,66fc9800ebcc4d1939fb065e,2024-10-02_02h51.01.400,mdp,2024.2.1,Win32,60.24096386,66fa4ebf79326e780c390304,,,,,,,,,,,,,,,,,,,,,1269.34,1269.3401,1269.3433,1270.4393,0,1,left,0.5689,,1270.4422,1270.4436,,1,,1270.4452,1270.4461,,0,,0,1270.4462,1270.4462,1270.447,1271.9393,0,22,22,22,1,0.2,0.8,0.6,0.4,1,0,,,,,,,,,,,,,,,,,,,,,,,,,,,,,,,,,,,,
,,66ae89305bcacb3aa6a78bb8,66fc9800ebcc4d1939fb065e,2024-10-02_02h51.01.400,mdp,2024.2.1,Win32,60.24096386,66fa4ebf79326e780c390304,,,,,,,,,,,,,,,,,,,,,1271.94,1271.94,1271.9425,1272.5397,0,0,left,0.0689,,1272.5424,1272.5439,,1,,1272.5451,1272.546,,1,,1,1272.546,1272.546,1272.547,1274.0396,0,23,23,23,1,0.2,0.8,0.6,0.4,1,0,,,,,,,,,,,,,,,,,,,,,,,,,,,,,,,,,,,,
,,66ae89305bcacb3aa6a78bb8,66fc9800ebcc4d1939fb065e,2024-10-02_02h51.01.400,mdp,2024.2.1,Win32,60.24096386,66fa4ebf79326e780c390304,,,,,,,,,,,,,,,,,,,,,1274.0405,1274.0405,1274.0429,1274.7059,0,1,left,0.135,,1274.7081,1274.7096,,1,,1274.711,1274.7122,,1,,0,1274.7123,1274.7123,1274.7133,1276.2057,0,24,24,24,1,0.2,0.8,0.6,0.4,1,0,,,,,,,,,,,,,,,,,,,,,,,,,,,,,,,,,,,,
,,66ae89305bcacb3aa6a78bb8,66fc9800ebcc4d1939fb065e,2024-10-02_02h51.01.400,mdp,2024.2.1,Win32,60.24096386,66fa4ebf79326e780c390304,,,,,,,,,,,,,,,,,,,,,1276.2063,1276.2063,1276.209,1276.8492,1,1,right,0.1166,,1276.8516,1276.8527,,1,,1276.8537,1276.8551,,0,,0,1276.8552,1276.8552,1276.8561,1278.346,0,25,25,25,1,0.2,0.8,0.6,0.4,1,0,,,,,,,,,,,,,,,,,,,,,,,,,,,,,,,,,,,,
,,66ae89305bcacb3aa6a78bb8,66fc9800ebcc4d1939fb065e,2024-10-02_02h51.01.400,mdp,2024.2.1,Win32,60.24096386,66fa4ebf79326e780c390304,,,,,,,,,,,,,,,,,,,,,1278.3473,1278.3473,1278.3497,1278.8802,1,1,right,0.0015,,1278.8827,1278.8836,,0,,1278.8846,1278.8858,,1,,0,1278.8859,1278.8859,1278.887,1280.3966,0,26,26,26,1,0.2,0.8,0.6,0.4,1,0,,,,,,,,,,,,,,,,,,,,,,,,,,,,,,,,,,,,
,,66ae89305bcacb3aa6a78bb8,66fc9800ebcc4d1939fb065e,2024-10-02_02h51.01.400,mdp,2024.2.1,Win32,60.24096386,66fa4ebf79326e780c390304,,,,,,,,,,,,,,,,,,,,,1280.3978,1280.3978,1280.4,1281.407,1,1,right,0.492,,1281.4092,1281.4107,,0,,1281.4121,1281.4131,,0,,0,1281.4131,1281.4132,1281.4141,1282.9127,0,27,27,27,1,0.2,0.8,0.6,0.4,1,0,,,,,,,,,,,,,,,,,,,,,,,,,,,,,,,,,,,,
,,66ae89305bcacb3aa6a78bb8,66fc9800ebcc4d1939fb065e,2024-10-02_02h51.01.400,mdp,2024.2.1,Win32,60.24096386,66fa4ebf79326e780c390304,,,,,,,,,,,,,,,,,,,,,1282.9134,1282.9134,1282.9159,1283.4395,0,1,left,0.0016,,1283.4415,1283.4432,,1,,1283.4445,1283.4453,,1,,0,1283.4454,1283.4454,1283.4462,1284.9396,0,28,28,28,1,0.2,0.8,0.6,0.4,1,0,,,,,,,,,,,,,,,,,,,,,,,,,,,,,,,,,,,,
,,66ae89305bcacb3aa6a78bb8,66fc9800ebcc4d1939fb065e,2024-10-02_02h51.01.400,mdp,2024.2.1,Win32,60.24096386,66fa4ebf79326e780c390304,,,,,,,,,,,,,,,,,,,,,1284.9403,1284.9403,1284.9426,1286.0896,0,0,left,0.6244,,1286.0916,1286.0929,,0,,1286.0943,1286.0953,,1,,1,1286.0953,1286.0953,1286.0962,1287.59,0,29,29,29,1,0.8,0.2,0.4,0.6,1,0,,,,,,,,,,,,,,,,,,,,,,,,,,,,,,,,,,,,
,,66ae89305bcacb3aa6a78bb8,66fc9800ebcc4d1939fb065e,2024-10-02_02h51.01.400,mdp,2024.2.1,Win32,60.24096386,66fa4ebf79326e780c390304,,,,,,,,,,,,,,,,,,,,,1287.5908,1287.5908,1287.5932,1289.1399,0,0,left,1.0121,,1289.1422,1289.1437,,0,,1289.145,1289.1459,,1,,1,1289.1459,1289.1459,1289.1467,1290.6438,0,30,30,30,1,0.8,0.2,0.4,0.6,1,0,,,,,,,,,,,,,,,,,,,,,,,,,,,,,,,,,,,,
,,66ae89305bcacb3aa6a78bb8,66fc9800ebcc4d1939fb065e,2024-10-02_02h51.01.400,mdp,2024.2.1,Win32,60.24096386,66fa4ebf79326e780c390304,,,,,,,,,,,,,,,,,,,,,1290.6445,1290.6445,1290.6465,1291.3561,0,1,left,0.1901,,1291.3578,1291.3593,,0,,1291.3606,1291.3614,,0,,0,1291.3616,1291.3617,1291.3628,1292.8566,0,31,31,31,1,0.8,0.2,0.4,0.6,1,0,,,,,,,,,,,,,,,,,,,,,,,,,,,,,,,,,,,,
,,66ae89305bcacb3aa6a78bb8,66fc9800ebcc4d1939fb065e,2024-10-02_02h51.01.400,mdp,2024.2.1,Win32,60.24096386,66fa4ebf79326e780c390304,,,,,,,,,,,,,,,,,,,,,1292.8572,1292.8572,1292.86,1293.6733,0,0,left,0.2839,,1293.6765,1293.6783,,0,,1293.68,1293.6812,,0,,1,1293.6812,1293.6813,1293.6822,1295.1734,0,32,32,32,1,0.8,0.2,0.4,0.6,1,0,,,,,,,,,,,,,,,,,,,,,,,,,,,,,,,,,,,,
,,66ae89305bcacb3aa6a78bb8,66fc9800ebcc4d1939fb065e,2024-10-02_02h51.01.400,mdp,2024.2.1,Win32,60.24096386,66fa4ebf79326e780c390304,,,,,,,,,,,,,,,,,,,,,1295.1741,1295.1741,1295.177,1295.9895,1,1,right,0.2884,,1295.9917,1295.9932,,1,,1295.9943,1295.9951,,0,,0,1295.9951,1295.9951,1295.996,1297.4896,0,33,33,33,1,0.8,0.2,0.4,0.6,1,0,,,,,,,,,,,,,,,,,,,,,,,,,,,,,,,,,,,,
,,66ae89305bcacb3aa6a78bb8,66fc9800ebcc4d1939fb065e,2024-10-02_02h51.01.400,mdp,2024.2.1,Win32,60.24096386,66fa4ebf79326e780c390304,,,,,,,,,,,,,,,,,,,,,1297.4909,1297.4909,1297.4937,1298.5782,0,0,left,0.558,,1298.5808,1298.5818,,0,,1298.5828,1298.5837,,0,,1,1298.5838,1298.5838,1298.5845,1300.0742,0,34,34,34,1,0.8,0.2,0.4,0.6,1,0,,,,,,,,,,,,,,,,,,,,,,,,,,,,,,,,,,,,
,,66ae89305bcacb3aa6a78bb8,66fc9800ebcc4d1939fb065e,2024-10-02_02h51.01.400,mdp,2024.2.1,Win32,60.24096386,66fa4ebf79326e780c390304,,,,,,,,,,,,,,,,,,,,,1300.0753,1300.0754,1300.0784,1301.1835,0,0,left,0.5711,,1301.1859,1301.1873,,0,,1301.1884,1301.1903,,0,,1,1301.1904,1301.1904,1301.1927,1302.6897,0,35,35,35,1,0.8,0.2,0.4,0.6,1,0,,,,,,,,,,,,,,,,,,,,,,,,,,,,,,,,,,,,
,,66ae89305bcacb3aa6a78bb8,66fc9800ebcc4d1939fb065e,2024-10-02_02h51.01.400,mdp,2024.2.1,Win32,60.24096386,66fa4ebf79326e780c390304,,,,,,,,,,,,,,,,,,,,,1302.6906,1302.6909,1302.6936,1303.9406,0,0,left,0.7027,,1303.9439,1303.9452,,0,,1303.9464,1303.9473,,1,,1,1303.9474,1303.9474,1303.9484,1305.4404,0,36,36,36,1,0.8,0.2,0.4,0.6,1,0,,,,,,,,,,,,,,,,,,,,,,,,,,,,,,,,,,,,
,,66ae89305bcacb3aa6a78bb8,66fc9800ebcc4d1939fb065e,2024-10-02_02h51.01.400,mdp,2024.2.1,Win32,60.24096386,66fa4ebf79326e780c390304,,,,,,,,,,,,,,,,,,,,,1305.4421,1305.4421,1305.4438,1306.7075,0,0,left,0.7347,,1306.7095,1306.7106,,0,,1306.7121,1306.7131,,1,,1,1306.7131,1306.7131,1306.7141,1308.2072,0,37,37,37,1,0.8,0.2,0.4,0.6,1,0,,,,,,,,,,,,,,,,,,,,,,,,,,,,,,,,,,,,
,,66ae89305bcacb3aa6a78bb8,66fc9800ebcc4d1939fb065e,2024-10-02_02h51.01.400,mdp,2024.2.1,Win32,60.24096386,66fa4ebf79326e780c390304,,,,,,,,,,,,,,,,,,,,,1308.2081,1308.2081,1308.2101,1309.3578,1,0,right,0.6176,,1309.3598,1309.361,,0,,1309.3623,1309.3634,,0,,1,1309.3635,1309.3635,1309.3643,1310.857,0,38,38,38,1,0.4,0.6,0.8,0.2,1,0,,,,,,,,,,,,,,,,,,,,,,,,,,,,,,,,,,,,
,,66ae89305bcacb3aa6a78bb8,66fc9800ebcc4d1939fb065e,2024-10-02_02h51.01.400,mdp,2024.2.1,Win32,60.24096386,66fa4ebf79326e780c390304,,,,,,,,,,,,,,,,,,,,,1310.8576,1310.8577,1310.8594,1311.7066,0,1,left,0.3218,,1311.7082,1311.7093,,1,,1311.7107,1311.7115,,1,,0,1311.7116,1311.7116,1311.7124,1313.2072,0,39,39,39,1,0.4,0.6,0.8,0.2,1,0,,,,,,,,,,,,,,,,,,,,,,,,,,,,,,,,,,,,
,,66ae89305bcacb3aa6a78bb8,66fc9800ebcc4d1939fb065e,2024-10-02_02h51.01.400,mdp,2024.2.1,Win32,60.24096386,66fa4ebf79326e780c390304,,,,,,,,,,,,,,,,,,,,,1313.2079,1313.2079,1313.2119,1313.7408,0,0,left,0.001,,1313.743,1313.744,,1,,1313.7452,1313.7464,,1,,1,1313.7464,1313.7464,1313.7473,1315.2407,0,40,40,40,1,0.4,0.6,0.8,0.2,1,0,,,,,,,,,,,,,,,,,,,,,,,,,,,,,,,,,,,,
,,66ae89305bcacb3aa6a78bb8,66fc9800ebcc4d1939fb065e,2024-10-02_02h51.01.400,mdp,2024.2.1,Win32,60.24096386,66fa4ebf79326e780c390304,,,,,,,,,,,,,,,,,,,,,1315.2416,1315.2416,1315.2432,1315.7741,0,1,left,0.0008,,1315.7759,1315.7769,,1,,1315.7781,1315.7792,,0,,0,1315.7793,1315.7793,1315.7803,1317.2742,0,41,41,41,1,0.4,0.6,0.8,0.2,1,0,,,,,,,,,,,,,,,,,,,,,,,,,,,,,,,,,,,,
,,66ae89305bcacb3aa6a78bb8,66fc9800ebcc4d1939fb065e,2024-10-02_02h51.01.400,mdp,2024.2.1,Win32,60.24096386,66fa4ebf79326e780c390304,,,,,,,,,,,,,,,,,,,,,1317.275,1317.275,1317.2766,1317.9243,1,0,right,0.1181,,1317.9266,1317.9278,,0,,1317.9291,1317.9301,,0,,1,1317.9301,1317.9302,1317.9311,1319.4243,0,42,42,42,1,0.4,0.6,0.8,0.2,1,0,,,,,,,,,,,,,,,,,,,,,,,,,,,,,,,,,,,,
,,66ae89305bcacb3aa6a78bb8,66fc9800ebcc4d1939fb065e,2024-10-02_02h51.01.400,mdp,2024.2.1,Win32,60.24096386,66fa4ebf79326e780c390304,,,,,,,,,,,,,,,,,,,,,1319.4251,1319.4251,1319.4271,1319.991,1,1,right,0.0345,,1319.9928,1319.9938,,1,,1319.9951,1319.9962,,1,,0,1319.9962,1319.9962,1319.9971,1321.4904,0,43,43,43,1,0.6,0.4,0.2,0.8,1,0,,,,,,,,,,,,,,,,,,,,,,,,,,,,,,,,,,,,
,,66ae89305bcacb3aa6a78bb8,66fc9800ebcc4d1939fb065e,2024-10-02_02h51.01.400,mdp,2024.2.1,Win32,60.24096386,66fa4ebf79326e780c390304,,,,,,,,,,,,,,,,,,,,,1321.4913,1321.4914,1321.4931,1322.8577,1,1,right,0.835,,1322.8593,1322.8603,,0,,1322.8617,1322.8628,,0,,0,1322.8628,1322.8628,1322.8639,1324.3582,0,44,44,44,1,0.6,0.4,0.2,0.8,1,0,,,,,,,,,,,,,,,,,,,,,,,,,,,,,,,,,,,,
,,66ae89305bcacb3aa6a78bb8,66fc9800ebcc4d1939fb065e,2024-10-02_02h51.01.400,mdp,2024.2.1,Win32,60.24096386,66fa4ebf79326e780c390304,,,,,,,,,,,,,,,,,,,,,1324.359,1324.359,1324.361,1325.7082,0,1,left,0.8182,,1325.7096,1325.7111,,1,,1325.7126,1325.714,,1,,0,1325.7141,1325.7141,1325.7151,1327.208,0,45,45,45,1,0.2,0.8,0.8,0.2,1,0,,,,,,,,,,,,,,,,,,,,,,,,,,,,,,,,,,,,
,,66ae89305bcacb3aa6a78bb8,66fc9800ebcc4d1939fb065e,2024-10-02_02h51.01.400,mdp,2024.2.1,Win32,60.24096386,66fa4ebf79326e780c390304,,,,,,,,,,,,,,,,,,,,,1327.2093,1327.2093,1327.2113,1328.1246,0,1,left,0.3857,,1328.1266,1328.1281,,1,,1328.1296,1328.1307,,0,,0,1328.1308,1328.1309,1328.1318,1329.624,0,46,46,46,1,0.2,0.8,0.8,0.2,1,0,,,,,,,,,,,,,,,,,,,,,,,,,,,,,,,,,,,,
,,66ae89305bcacb3aa6a78bb8,66fc9800ebcc4d1939fb065e,2024-10-02_02h51.01.400,mdp,2024.2.1,Win32,60.24096386,66fa4ebf79326e780c390304,,,,,,,,,,,,,,,,,,,,,1329.6245,1329.6246,1329.6262,1330.5242,0,1,left,0.3684,,1330.5261,1330.5273,,1,,1330.5289,1330.5301,,0,,0,1330.5302,1330.5302,1330.5314,1332.0245,0,47,47,47,1,0.2,0.8,0.8,0.2,1,0,,,,,,,,,,,,,,,,,,,,,,,,,,,,,,,,,,,,
,,66ae89305bcacb3aa6a78bb8,66fc9800ebcc4d1939fb065e,2024-10-02_02h51.01.400,mdp,2024.2.1,Win32,60.24096386,66fa4ebf79326e780c390304,,,,,,,,,,,,,,,,,,,,,1332.0257,1332.0257,1332.028,1332.9914,1,0,right,0.4344,,1332.9933,1332.9949,,0,,1332.9964,1332.9973,,0,,1,1332.9975,1332.9975,1332.9986,1334.4911,0,48,48,48,1,0.2,0.8,0.8,0.2,1,0,,,,,,,,,,,,,,,,,,,,,,,,,,,,,,,,,,,,
,,66ae89305bcacb3aa6a78bb8,66fc9800ebcc4d1939fb065e,2024-10-02_02h51.01.400,mdp,2024.2.1,Win32,60.24096386,66fa4ebf79326e780c390304,,,,,,,,,,,,,,,,,,,,,1334.4918,1334.4919,1334.4936,1335.208,0,1,left,0.1844,,1335.21,1335.2111,,1,,1335.2123,1335.2136,,1,,0,1335.2136,1335.2137,1335.2149,1336.7087,0,49,49,49,1,0.2,0.8,0.8,0.2,1,0,,,,,,,,,,,,,,,,,,,,,,,,,,,,,,,,,,,,
,,66ae89305bcacb3aa6a78bb8,66fc9800ebcc4d1939fb065e,2024-10-02_02h51.01.400,mdp,2024.2.1,Win32,60.24096386,66fa4ebf79326e780c390304,,,,,,,,,,,,,,,,,,,,,,,,,,,,,,,,,,,,,,,,,,,,,,,,,,,,,,,,1336.7097,1400.0412,0,0,0,0,1,imgs/rabbit.png,imgs/squirrel.png,imgs/lion.png,imgs/goat.png,imgs/cat.png,,,,,,,,,,,,,,,,,,,,,,,,
,,66ae89305bcacb3aa6a78bb8,66fc9800ebcc4d1939fb065e,2024-10-02_02h51.01.400,mdp,2024.2.1,Win32,60.24096386,66fa4ebf79326e780c390304,,,,,,,,,,,,,,2,seqs/st2seq29.csv,1400.0661,1403.8592,space,3.2685,,1403.8678,1403.8678,1403.869,1405.2265,0,0,left,0.841,,1405.2285,1406.7513,0,1,left,1406.7536,1406.7548,,1,,0,1406.7548,1406.7549,1406.7559,1408.2589,0,0,0,0,1,0.6,0.4,0.4,0.6,,,,,,,,,,,,,,,0.9836,,0.6,0.4,0.6,0.4,0.8,0.2,0.6,0.4,1,0,,,,,,,,,,,,
,,66ae89305bcacb3aa6a78bb8,66fc9800ebcc4d1939fb065e,2024-10-02_02h51.01.400,mdp,2024.2.1,Win32,60.24096386,66fa4ebf79326e780c390304,,,,,,,,,,,,,,,,,,,,,1408.2598,1408.2599,1408.2627,1409.2971,0,0,left,0.5276,,1409.2997,1410.1422,1,0,right,1410.1445,1410.1459,,0,,1,1410.146,1410.146,1410.1469,1411.6419,0,1,1,1,1,0.6,0.4,0.4,0.6,,,,,,,,,,,,,,,0.3089,,0.6,0.4,0.6,0.4,0.8,0.2,0.6,0.4,1,0,,,,,,,,,,,,
,,66ae89305bcacb3aa6a78bb8,66fc9800ebcc4d1939fb065e,2024-10-02_02h51.01.400,mdp,2024.2.1,Win32,60.24096386,66fa4ebf79326e780c390304,,,,,,,,,,,,,,,,,,,,,1411.6426,1411.6426,1411.6442,1412.8422,0,1,left,0.6681,,1412.8445,1413.9973,1,0,right,1413.9995,1414.0005,,0,,1,1414.0006,1414.0006,1414.0015,1415.4931,0,2,2,2,1,0.6,0.4,0.4,0.6,,,,,,,,,,,,,,,0.6142,,0.4,0.6,0.8,0.2,0.8,0.2,0.6,0.4,1,0,,,,,,,,,,,,
,,66ae89305bcacb3aa6a78bb8,66fc9800ebcc4d1939fb065e,2024-10-02_02h51.01.400,mdp,2024.2.1,Win32,60.24096386,66fa4ebf79326e780c390304,,,,,,,,,,,,,,,,,,,,,1415.4942,1415.4943,1415.4969,1418.5761,0,1,left,2.5511,,1418.5794,1419.9259,0,0,left,1419.9284,1419.93,,0,,1,1419.9301,1419.9301,1419.9316,1421.4252,0,3,3,3,1,0.6,0.4,0.4,0.6,,,,,,,,,,,,,,,0.816,,0.4,0.6,0.8,0.2,0.8,0.2,0.6,0.4,1,0,,,,,,,,,,,,
,,66ae89305bcacb3aa6a78bb8,66fc9800ebcc4d1939fb065e,2024-10-02_02h51.01.400,mdp,2024.2.1,Win32,60.24096386,66fa4ebf79326e780c390304,,,,,,,,,,,,,,,,,,,,,1421.4257,1421.4257,1421.4272,1422.5758,0,0,left,0.6182,,1422.5777,1424.1261,0,1,left,1424.1282,1424.1297,,1,,0,1424.1298,1424.1299,1424.1311,1425.6255,0,4,4,4,1,0.6,0.4,0.4,0.6,,,,,,,,,,,,,,,1.0194,,0.4,0.6,0.8,0.2,0.6,0.4,0.2,0.8,1,0,,,,,,,,,,,,
,,66ae89305bcacb3aa6a78bb8,66fc9800ebcc4d1939fb065e,2024-10-02_02h51.01.400,mdp,2024.2.1,Win32,60.24096386,66fa4ebf79326e780c390304,,,,,,,,,,,,,,,,,,,,,1425.6261,1425.6262,1425.6278,1426.7428,0,0,left,0.6022,,1426.7455,1428.1764,1,0,right,1428.1788,1428.1801,,0,,1,1428.1802,1428.1802,1428.1813,1429.6765,0,5,5,5,1,0.6,0.4,0.4,0.6,,,,,,,,,,,,,,,0.9114,,0.4,0.6,0.8,0.2,0.4,0.6,0.6,0.4,1,0,,,,,,,,,,,,
,,66ae89305bcacb3aa6a78bb8,66fc9800ebcc4d1939fb065e,2024-10-02_02h51.01.400,mdp,2024.2.1,Win32,60.24096386,66fa4ebf79326e780c390304,,,,,,,,,,,,,,,,,,,,,1429.6775,1429.6776,1429.6809,1430.7929,0,0,left,0.5844,,1430.7952,1432.0981,1,0,right,1432.1006,1432.1016,,0,,1,1432.1017,1432.1017,1432.1026,1433.5931,0,6,6,6,1,0.8,0.2,0.2,0.8,,,,,,,,,,,,,,,0.7626,,0.4,0.6,0.8,0.2,0.4,0.6,0.6,0.4,1,0,,,,,,,,,,,,
,,66ae89305bcacb3aa6a78bb8,66fc9800ebcc4d1939fb065e,2024-10-02_02h51.01.400,mdp,2024.2.1,Win32,60.24096386,66fa4ebf79326e780c390304,,,,,,,,,,,,,,,,,,,,,1433.594,1433.594,1433.5966,1435.1096,0,0,left,0.9809,,1435.1116,1436.36,1,0,right,1436.3628,1436.3644,,0,,1,1436.3646,1436.3647,1436.3662,1437.8599,0,7,7,7,1,0.8,0.2,0.2,0.8,,,,,,,,,,,,,,,0.7118,,0.4,0.6,0.8,0.2,0.2,0.8,0.4,0.6,1,0,,,,,,,,,,,,
,,66ae89305bcacb3aa6a78bb8,66fc9800ebcc4d1939fb065e,2024-10-02_02h51.01.400,mdp,2024.2.1,Win32,60.24096386,66fa4ebf79326e780c390304,,,,,,,,,,,,,,,,,,,,,1437.8606,1437.8607,1437.863,1438.7597,0,0,left,0.3681,,1438.7613,1440.0606,1,0,right,1440.0633,1440.0646,,0,,1,1440.0647,1440.0647,1440.0659,1441.5599,0,8,8,8,1,0.8,0.2,0.2,0.8,,,,,,,,,,,,,,,0.7749,,0.8,0.2,0.6,0.4,0.2,0.8,0.4,0.6,1,0,,,,,,,,,,,,
,,66ae89305bcacb3aa6a78bb8,66fc9800ebcc4d1939fb065e,2024-10-02_02h51.01.400,mdp,2024.2.1,Win32,60.24096386,66fa4ebf79326e780c390304,,,,,,,,,,,,,,,,,,,,,1441.5606,1441.5606,1441.563,1442.6607,0,0,left,0.5753,,1442.6628,1445.0479,1,1,right,1445.0501,1445.0514,,1,,0,1445.0515,1445.0515,1445.0524,1446.5433,0,9,9,9,1,0.8,0.2,0.2,0.8,,,,,,,,,,,,,,,1.8624,,0.8,0.2,0.6,0.4,0.2,0.8,0.4,0.6,1,0,,,,,,,,,,,,
,,66ae89305bcacb3aa6a78bb8,66fc9800ebcc4d1939fb065e,2024-10-02_02h51.01.400,mdp,2024.2.1,Win32,60.24096386,66fa4ebf79326e780c390304,,,,,,,,,,,,,,,,,,,,,1446.5441,1446.5441,1446.5466,1447.7267,0,1,left,0.6537,,1447.729,1448.9765,0,1,left,1448.9786,1448.9803,,1,,0,1448.9804,1448.9804,1448.9817,1450.4765,0,10,10,10,1,0.8,0.2,0.2,0.8,,,,,,,,,,,,,,,0.7072,,0.8,0.2,0.6,0.4,0.2,0.8,0.4,0.6,1,0,,,,,,,,,,,,
,,66ae89305bcacb3aa6a78bb8,66fc9800ebcc4d1939fb065e,2024-10-02_02h51.01.400,mdp,2024.2.1,Win32,60.24096386,66fa4ebf79326e780c390304,,,,,,,,,,,,,,,,,,,,,1450.4773,1450.4773,1450.4802,1451.4437,0,0,left,0.4454,,1451.4466,1452.7438,1,0,right,1452.7465,1452.7481,,0,,1,1452.7482,1452.7482,1452.7495,1454.252,0,11,11,11,1,0.8,0.2,0.2,0.8,,,,,,,,,,,,,,,0.7513,,0.8,0.2,0.6,0.4,0.2,0.8,0.4,0.6,1,0,,,,,,,,,,,,
,,66ae89305bcacb3aa6a78bb8,66fc9800ebcc4d1939fb065e,2024-10-02_02h51.01.400,mdp,2024.2.1,Win32,60.24096386,66fa4ebf79326e780c390304,,,,,,,,,,,,,,,,,,,,,1454.253,1454.253,1454.2556,1454.8442,0,0,left,0.0743,,1454.8476,1456.0296,1,0,right,1456.032,1456.0334,,0,,1,1456.0335,1456.0335,1456.0348,1457.527,0,12,12,12,1,0.8,0.2,0.2,0.8,,,,,,,,,,,,,,,0.6591,,0.6,0.4,0.8,0.2,0.2,0.8,0.4,0.6,1,0,,,,,,,,,,,,
,,66ae89305bcacb3aa6a78bb8,66fc9800ebcc4d1939fb065e,2024-10-02_02h51.01.400,mdp,2024.2.1,Win32,60.24096386,66fa4ebf79326e780c390304,,,,,,,,,,,,,,,,,,,,,1457.5278,1457.5279,1457.5317,1458.5939,0,1,left,0.5348,,1458.5969,1459.8605,0,1,left,1459.8623,1459.8635,,0,,0,1459.8636,1459.8636,1459.8647,1461.3601,0,13,13,13,1,0.8,0.2,0.2,0.8,,,,,,,,,,,,,,,0.7252,,0.6,0.4,0.8,0.2,0.2,0.8,0.4,0.6,1,0,,,,,,,,,,,,
,,66ae89305bcacb3aa6a78bb8,66fc9800ebcc4d1939fb065e,2024-10-02_02h51.01.400,mdp,2024.2.1,Win32,60.24096386,66fa4ebf79326e780c390304,,,,,,,,,,,,,,,,,,,,,1461.3608,1461.3609,1461.3626,1462.3438,0,1,left,0.4364,,1462.3465,1463.7438,1,1,right,1463.7462,1463.7481,,0,,0,1463.7481,1463.7481,1463.7496,1465.2554,0,14,14,14,1,0.8,0.2,0.2,0.8,,,,,,,,,,,,,,,0.8676,,0.6,0.4,0.8,0.2,0.2,0.8,0.4,0.6,1,0,,,,,,,,,,,,
,,66ae89305bcacb3aa6a78bb8,66fc9800ebcc4d1939fb065e,2024-10-02_02h51.01.400,mdp,2024.2.1,Win32,60.24096386,66fa4ebf79326e780c390304,,,,,,,,,,,,,,,,,,,,,1465.2562,1465.2563,1465.2584,1465.9272,0,1,left,0.1545,,1465.9296,1467.1608,0,1,left,1467.1639,1467.1653,,0,,0,1467.1655,1467.1655,1467.1668,1468.6601,0,15,15,15,1,0.8,0.2,0.2,0.8,,,,,,,,,,,,,,,0.7011,,0.6,0.4,0.8,0.2,0.6,0.4,0.2,0.8,1,0,,,,,,,,,,,,
,,66ae89305bcacb3aa6a78bb8,66fc9800ebcc4d1939fb065e,2024-10-02_02h51.01.400,mdp,2024.2.1,Win32,60.24096386,66fa4ebf79326e780c390304,,,,,,,,,,,,,,,,,,,,,1468.6606,1468.6607,1468.6632,1470.2191,0,0,left,1.0324,,1470.2214,1471.6105,1,1,right,1471.6127,1471.6144,,0,,0,1471.6146,1471.6146,1471.6159,1473.1106,0,16,16,16,1,0.8,0.2,0.2,0.8,,,,,,,,,,,,,,,0.8532,,0.2,0.8,0.6,0.4,0.6,0.4,0.2,0.8,1,0,,,,,,,,,,,,
,,66ae89305bcacb3aa6a78bb8,66fc9800ebcc4d1939fb065e,2024-10-02_02h51.01.400,mdp,2024.2.1,Win32,60.24096386,66fa4ebf79326e780c390304,,,,,,,,,,,,,,,,,,,,,1473.1111,1473.1111,1473.1135,1473.9767,0,1,left,0.3177,,1473.9787,1475.2945,1,1,right,1475.2967,1475.2981,,1,,0,1475.2983,1475.2983,1475.2994,1476.7939,0,17,17,17,1,0.8,0.2,0.2,0.8,,,,,,,,,,,,,,,0.7937,,0.2,0.8,0.6,0.4,0.6,0.4,0.2,0.8,1,0,,,,,,,,,,,,
,,66ae89305bcacb3aa6a78bb8,66fc9800ebcc4d1939fb065e,2024-10-02_02h51.01.400,mdp,2024.2.1,Win32,60.24096386,66fa4ebf79326e780c390304,,,,,,,,,,,,,,,,,,,,,1476.7946,1476.7946,1476.7966,1478.3105,1,1,right,0.989,,1478.3127,1479.2774,1,1,right,1479.2803,1479.2817,,0,,0,1479.2818,1479.2818,1479.2829,1480.7851,0,18,18,18,1,0.8,0.2,0.2,0.8,,,,,,,,,,,,,,,0.4565,,0.2,0.8,0.6,0.4,0.6,0.4,0.2,0.8,1,0,,,,,,,,,,,,
,,66ae89305bcacb3aa6a78bb8,66fc9800ebcc4d1939fb065e,2024-10-02_02h51.01.400,mdp,2024.2.1,Win32,60.24096386,66fa4ebf79326e780c390304,,,,,,,,,,,,,,,,,,,,,1480.7861,1480.7861,1480.7885,1481.6872,0,0,left,0.3675,,1481.6904,1482.9437,0,1,left,1482.9461,1482.9474,,1,,0,1482.9475,1482.9475,1482.9488,1484.4451,0,19,19,19,1,0.8,0.2,0.2,0.8,,,,,,,,,,,,,,,0.7202,,0.2,0.8,0.6,0.4,0.6,0.4,0.2,0.8,1,0,,,,,,,,,,,,
,,66ae89305bcacb3aa6a78bb8,66fc9800ebcc4d1939fb065e,2024-10-02_02h51.01.400,mdp,2024.2.1,Win32,60.24096386,66fa4ebf79326e780c390304,,,,,,,,,,,,,,,,,,,,,1484.4462,1484.4462,1484.4486,1484.9769,0,0,left,0.0011,,1484.9787,1486.0276,1,1,right,1486.0299,1486.032,,0,,0,1486.0322,1486.0322,1486.0341,1487.5274,0,20,20,20,1,0.8,0.2,0.2,0.8,,,,,,,,,,,,,,,0.5199,,0.2,0.8,0.6,0.4,0.4,0.6,0.8,0.2,1,0,,,,,,,,,,,,
,,66ae89305bcacb3aa6a78bb8,66fc9800ebcc4d1939fb065e,2024-10-02_02h51.01.400,mdp,2024.2.1,Win32,60.24096386,66fa4ebf79326e780c390304,,,,,,,,,,,,,,,,,,,,,1487.5279,1487.5279,1487.5301,1488.4542,1,1,right,0.3999,,1488.4562,1489.3109,0,0,left,1489.3131,1489.3148,,0,,1,1489.3149,1489.3149,1489.3162,1490.811,0,21,21,21,1,0.8,0.2,0.2,0.8,,,,,,,,,,,,,,,0.3193,,0.2,0.8,0.6,0.4,0.4,0.6,0.8,0.2,1,0,,,,,,,,,,,,
,,66ae89305bcacb3aa6a78bb8,66fc9800ebcc4d1939fb065e,2024-10-02_02h51.01.400,mdp,2024.2.1,Win32,60.24096386,66fa4ebf79326e780c390304,,,,,,,,,,,,,,,,,,,,,1490.8116,1490.8117,1490.814,1492.4443,1,1,right,1.1018,,1492.4475,1493.4278,0,0,left,1493.4308,1493.4323,,1,,1,1493.4324,1493.4324,1493.4335,1494.9277,0,22,22,22,1,0.8,0.2,0.2,0.8,,,,,,,,,,,,,,,0.4501,,0.2,0.8,0.6,0.4,0.4,0.6,0.8,0.2,1,0,,,,,,,,,,,,
,,66ae89305bcacb3aa6a78bb8,66fc9800ebcc4d1939fb065e,2024-10-02_02h51.01.400,mdp,2024.2.1,Win32,60.24096386,66fa4ebf79326e780c390304,,,,,,,,,,,,,,,,,,,,,1494.9284,1494.9284,1494.9316,1496.0446,1,1,right,0.5854,,1496.0474,1497.3109,1,1,right,1497.3135,1497.3151,,0,,0,1497.3151,1497.3151,1497.3164,1498.8108,0,23,23,23,1,0.8,0.2,0.2,0.8,,,,,,,,,,,,,,,0.735,,0.2,0.8,0.6,0.4,0.4,0.6,0.8,0.2,1,0,,,,,,,,,,,,
,,66ae89305bcacb3aa6a78bb8,66fc9800ebcc4d1939fb065e,2024-10-02_02h51.01.400,mdp,2024.2.1,Win32,60.24096386,66fa4ebf79326e780c390304,,,,,,,,,,,,,,,,,,,,,1498.8114,1498.8115,1498.8142,1499.5777,1,1,right,0.2353,,1499.5805,1500.378,0,1,left,1500.3804,1500.3819,,1,,0,1500.3821,1500.3821,1500.3833,1501.8778,0,24,24,24,1,0.4,0.6,0.4,0.6,,,,,,,,,,,,,,,0.2744,,0.2,0.8,0.6,0.4,0.4,0.6,0.8,0.2,1,0,,,,,,,,,,,,
,,66ae89305bcacb3aa6a78bb8,66fc9800ebcc4d1939fb065e,2024-10-02_02h51.01.400,mdp,2024.2.1,Win32,60.24096386,66fa4ebf79326e780c390304,,,,,,,,,,,,,,,,,,,,,1501.8784,1501.8785,1501.8809,1502.7447,0,0,left,0.3391,,1502.7466,1504.2116,0,1,left,1504.2135,1504.2145,,1,,0,1504.2146,1504.2146,1504.2157,1505.7109,0,25,25,25,1,0.2,0.8,0.8,0.2,,,,,,,,,,,,,,,0.9458,,0.2,0.8,0.6,0.4,0.4,0.6,0.8,0.2,1,0,,,,,,,,,,,,
,,66ae89305bcacb3aa6a78bb8,66fc9800ebcc4d1939fb065e,2024-10-02_02h51.01.400,mdp,2024.2.1,Win32,60.24096386,66fa4ebf79326e780c390304,,,,,,,,,,,,,,,,,,,,,1505.7114,1505.7114,1505.7129,1507.0954,0,0,left,0.8681,,1507.0976,1507.8611,1,1,right,1507.863,1507.8639,,0,,0,1507.864,1507.864,1507.8651,1509.3607,0,26,26,26,1,0.4,0.6,0.4,0.6,,,,,,,,,,,,,,,0.2394,,0.2,0.8,0.6,0.4,0.4,0.6,0.8,0.2,1,0,,,,,,,,,,,,
,,66ae89305bcacb3aa6a78bb8,66fc9800ebcc4d1939fb065e,2024-10-02_02h51.01.400,mdp,2024.2.1,Win32,60.24096386,66fa4ebf79326e780c390304,,,,,,,,,,,,,,,,,,,,,1509.3612,1509.3612,1509.3626,1509.9109,0,0,left,0.0174,,1509.9126,1511.2117,1,1,right,1511.2137,1511.2153,,1,,0,1511.2154,1511.2154,1511.2171,1512.7118,0,27,27,27,1,0.4,0.6,0.4,0.6,,,,,,,,,,,,,,,0.7736,,0.2,0.8,0.6,0.4,0.4,0.6,0.8,0.2,1,0,,,,,,,,,,,,
,,66ae89305bcacb3aa6a78bb8,66fc9800ebcc4d1939fb065e,2024-10-02_02h51.01.400,mdp,2024.2.1,Win32,60.24096386,66fa4ebf79326e780c390304,,,,,,,,,,,,,,,,,,,,,1512.7126,1512.7126,1512.716,1513.2779,0,1,left,0.035,,1513.2795,1514.7112,1,0,right,1514.7133,1514.7151,,0,,1,1514.7153,1514.7153,1514.7173,1516.2116,0,28,28,28,1,0.4,0.6,0.4,0.6,,,,,,,,,,,,,,,0.8968,,0.2,0.8,0.6,0.4,0.4,0.6,0.8,0.2,1,0,,,,,,,,,,,,
,,66ae89305bcacb3aa6a78bb8,66fc9800ebcc4d1939fb065e,2024-10-02_02h51.01.400,mdp,2024.2.1,Win32,60.24096386,66fa4ebf79326e780c390304,,,,,,,,,,,,,,,,,,,,,1516.2123,1516.2123,1516.2158,1517.5869,0,1,left,0.8496,,1517.5889,1518.9783,1,0,right,1518.9821,1518.9837,,1,,1,1518.9839,1518.9839,1518.9854,1520.4788,0,29,29,29,1,0.4,0.6,0.4,0.6,,,,,,,,,,,,,,,0.8703,,0.2,0.8,0.6,0.4,0.4,0.6,0.8,0.2,1,0,,,,,,,,,,,,
,,66ae89305bcacb3aa6a78bb8,66fc9800ebcc4d1939fb065e,2024-10-02_02h51.01.400,mdp,2024.2.1,Win32,60.24096386,66fa4ebf79326e780c390304,,,,,,,,,,,,,,,,,,,,,1520.4796,1520.4796,1520.4832,1521.5651,0,1,left,0.569,,1521.5673,1522.9789,1,0,right,1522.9844,1522.987,,0,,1,1522.9871,1522.9871,1522.9896,1524.4793,0,30,30,30,1,0.4,0.6,0.4,0.6,,,,,,,,,,,,,,,0.8868,,0.2,0.8,0.6,0.4,0.4,0.6,0.8,0.2,1,0,,,,,,,,,,,,
,,66ae89305bcacb3aa6a78bb8,66fc9800ebcc4d1939fb065e,2024-10-02_02h51.01.400,mdp,2024.2.1,Win32,60.24096386,66fa4ebf79326e780c390304,,,,,,,,,,,,,,,,,,,,,1524.48,1524.48,1524.4816,1526.6784,0,1,left,1.6678,,1526.68,1528.2117,1,1,right,1528.2134,1528.2145,,0,,0,1528.2145,1528.2145,1528.2158,1529.7121,0,31,31,31,1,0.4,0.6,0.4,0.6,,,,,,,,,,,,,,,1.0057,,0.2,0.8,0.6,0.4,0.4,0.6,0.8,0.2,1,0,,,,,,,,,,,,
,,66ae89305bcacb3aa6a78bb8,66fc9800ebcc4d1939fb065e,2024-10-02_02h51.01.400,mdp,2024.2.1,Win32,60.24096386,66fa4ebf79326e780c390304,,,,,,,,,,,,,,,,,,,,,1529.7134,1529.7135,1529.7151,1530.6623,0,1,left,0.4162,,1530.6646,1531.8638,0,0,left,1531.8654,1531.8665,,0,,1,1531.8666,1531.8666,1531.8679,1533.3621,0,32,32,32,1,0.4,0.6,0.4,0.6,,,,,,,,,,,,,,,0.6747,,0.2,0.8,0.6,0.4,0.4,0.6,0.8,0.2,1,0,,,,,,,,,,,,
,,66ae89305bcacb3aa6a78bb8,66fc9800ebcc4d1939fb065e,2024-10-02_02h51.01.400,mdp,2024.2.1,Win32,60.24096386,66fa4ebf79326e780c390304,,,,,,,,,,,,,,,,,,,,,1533.3629,1533.3629,1533.3647,1534.328,0,0,left,0.4321,,1534.3293,1535.7622,0,1,left,1535.7643,1535.7652,,1,,0,1535.7652,1535.7652,1535.7666,1537.2624,0,33,33,33,1,0.4,0.6,0.4,0.6,,,,,,,,,,,,,,,0.9137,,0.2,0.8,0.6,0.4,0.4,0.6,0.8,0.2,1,0,,,,,,,,,,,,
,,66ae89305bcacb3aa6a78bb8,66fc9800ebcc4d1939fb065e,2024-10-02_02h51.01.400,mdp,2024.2.1,Win32,60.24096386,66fa4ebf79326e780c390304,,,,,,,,,,,,,,,,,,,,,1537.2633,1537.2633,1537.2651,1538.179,0,1,left,0.3837,,1538.1808,1539.0449,1,0,right,1539.0464,1539.0473,,0,,1,1539.0473,1539.0473,1539.0483,1540.5454,0,34,34,34,1,0.4,0.6,0.4,0.6,,,,,,,,,,,,,,,0.328,,0.2,0.8,0.6,0.4,0.4,0.6,0.8,0.2,1,0,,,,,,,,,,,,
,,66ae89305bcacb3aa6a78bb8,66fc9800ebcc4d1939fb065e,2024-10-02_02h51.01.400,mdp,2024.2.1,Win32,60.24096386,66fa4ebf79326e780c390304,,,,,,,,,,,,,,,,,,,,,1540.5464,1540.5464,1540.5482,1541.4625,0,1,left,0.3848,,1541.4644,1542.9114,1,0,right,1542.9123,1542.913,,0,,1,1542.913,1542.913,1542.9143,1544.414,0,35,35,35,1,0.4,0.6,0.4,0.6,,,,,,,,,,,,,,,0.9163,,0.2,0.8,0.6,0.4,0.4,0.6,0.8,0.2,1,0,,,,,,,,,,,,
,,66ae89305bcacb3aa6a78bb8,66fc9800ebcc4d1939fb065e,2024-10-02_02h51.01.400,mdp,2024.2.1,Win32,60.24096386,66fa4ebf79326e780c390304,,,,,,,,,,,,,,,,,,,,,1544.4147,1544.4147,1544.4164,1545.2296,0,0,left,0.2845,,1545.2319,1546.9628,0,1,left,1546.9651,1546.9662,,1,,0,1546.9664,1546.9664,1546.9676,1548.4626,0,36,36,36,1,0.4,0.6,0.4,0.6,,,,,,,,,,,,,,,1.2125,,0.2,0.8,0.6,0.4,0.4,0.6,0.8,0.2,1,0,,,,,,,,,,,,
,,66ae89305bcacb3aa6a78bb8,66fc9800ebcc4d1939fb065e,2024-10-02_02h51.01.400,mdp,2024.2.1,Win32,60.24096386,66fa4ebf79326e780c390304,,,,,,,,,,,,,,,,,,,,,1548.4638,1548.4638,1548.4654,1549.4782,0,0,left,0.4844,,1549.4794,1551.1629,1,1,right,1551.1652,1551.1668,,0,,0,1551.1669,1551.1669,1551.1683,1552.6629,0,37,37,37,1,0.4,0.6,0.4,0.6,,,,,,,,,,,,,,,1.1531,,0.2,0.8,0.6,0.4,0.4,0.6,0.8,0.2,1,0,,,,,,,,,,,,
,,66ae89305bcacb3aa6a78bb8,66fc9800ebcc4d1939fb065e,2024-10-02_02h51.01.400,mdp,2024.2.1,Win32,60.24096386,66fa4ebf79326e780c390304,,,,,,,,,,,,,,,,,,,,,1552.6638,1552.6638,1552.6656,1553.7123,0,1,left,0.5225,,1553.7144,1555.3301,1,0,right,1555.3319,1555.333,,0,,1,1555.3331,1555.3331,1555.3344,1556.8297,0,38,38,38,1,0.4,0.6,0.4,0.6,,,,,,,,,,,,,,,1.0818,,0.4,0.6,0.4,0.6,0.4,0.6,0.8,0.2,1,0,,,,,,,,,,,,
,,66ae89305bcacb3aa6a78bb8,66fc9800ebcc4d1939fb065e,2024-10-02_02h51.01.400,mdp,2024.2.1,Win32,60.24096386,66fa4ebf79326e780c390304,,,,,,,,,,,,,,,,,,,,,1556.8305,1556.8305,1556.8322,1557.6294,0,1,left,0.2677,,1557.6312,1558.7796,1,0,right,1558.7813,1558.7827,,1,,1,1558.7828,1558.7828,1558.784,1560.2802,0,39,39,39,1,0.4,0.6,0.4,0.6,,,,,,,,,,,,,,,0.6189,,0.4,0.6,0.4,0.6,0.4,0.6,0.8,0.2,1,0,,,,,,,,,,,,
,,66ae89305bcacb3aa6a78bb8,66fc9800ebcc4d1939fb065e,2024-10-02_02h51.01.400,mdp,2024.2.1,Win32,60.24096386,66fa4ebf79326e780c390304,,,,,,,,,,,,,,,,,,,,,1560.2815,1560.2816,1560.2832,1561.4957,0,1,left,0.6884,,1561.4972,1562.7134,1,0,right,1562.7156,1562.7168,,0,,1,1562.7169,1562.717,1562.7184,1564.2126,0,40,40,40,1,0.4,0.6,0.4,0.6,,,,,,,,,,,,,,,0.7011,,0.4,0.6,0.4,0.6,0.4,0.6,0.8,0.2,1,0,,,,,,,,,,,,
,,66ae89305bcacb3aa6a78bb8,66fc9800ebcc4d1939fb065e,2024-10-02_02h51.01.400,mdp,2024.2.1,Win32,60.24096386,66fa4ebf79326e780c390304,,,,,,,,,,,,,,,,,,,,,1564.2134,1564.2134,1564.2151,1565.1461,0,1,left,0.4062,,1565.1478,1566.3304,1,0,right,1566.3328,1566.3342,,0,,1,1566.3343,1566.3343,1566.3353,1567.8296,0,41,41,41,1,0.2,0.8,0.6,0.4,,,,,,,,,,,,,,,0.6509,,0.4,0.6,0.4,0.6,0.4,0.6,0.8,0.2,1,0,,,,,,,,,,,,
,,66ae89305bcacb3aa6a78bb8,66fc9800ebcc4d1939fb065e,2024-10-02_02h51.01.400,mdp,2024.2.1,Win32,60.24096386,66fa4ebf79326e780c390304,,,,,,,,,,,,,,,,,,,,,1567.8309,1567.8309,1567.8329,1568.696,0,1,left,0.3347,,1568.6982,1570.0632,1,0,right,1570.0658,1570.0669,,1,,1,1570.0672,1570.0672,1570.0685,1571.5634,0,42,42,42,1,0.2,0.8,0.6,0.4,,,,,,,,,,,,,,,0.8515,,0.4,0.6,0.4,0.6,0.4,0.6,0.8,0.2,1,0,,,,,,,,,,,,
,,66ae89305bcacb3aa6a78bb8,66fc9800ebcc4d1939fb065e,2024-10-02_02h51.01.400,mdp,2024.2.1,Win32,60.24096386,66fa4ebf79326e780c390304,,,,,,,,,,,,,,,,,,,,,1571.5644,1571.5644,1571.5661,1572.5632,0,1,left,0.467,,1572.5649,1573.6794,1,0,right,1573.6811,1573.682,,0,,1,1573.6821,1573.6822,1573.6831,1575.1799,0,43,43,43,1,0.2,0.8,0.6,0.4,,,,,,,,,,,,,,,0.5872,,0.4,0.6,0.4,0.6,0.8,0.2,0.6,0.4,1,0,,,,,,,,,,,,
,,66ae89305bcacb3aa6a78bb8,66fc9800ebcc4d1939fb065e,2024-10-02_02h51.01.400,mdp,2024.2.1,Win32,60.24096386,66fa4ebf79326e780c390304,,,,,,,,,,,,,,,,,,,,,1575.1808,1575.1808,1575.1825,1576.0968,0,1,left,0.3846,,1576.0988,1577.1963,1,0,right,1577.1983,1577.1993,,0,,1,1577.1994,1577.1994,1577.2005,1578.6969,0,44,44,44,1,0.2,0.8,0.6,0.4,,,,,,,,,,,,,,,0.5699,,0.2,0.8,0.6,0.4,0.8,0.2,0.6,0.4,1,0,,,,,,,,,,,,
,,66ae89305bcacb3aa6a78bb8,66fc9800ebcc4d1939fb065e,2024-10-02_02h51.01.400,mdp,2024.2.1,Win32,60.24096386,66fa4ebf79326e780c390304,,,,,,,,,,,,,,,,,,,,,1578.698,1578.698,1578.6996,1580.0295,0,1,left,0.8013,,1580.0315,1581.3304,1,0,right,1581.3323,1581.3334,,1,,1,1581.3335,1581.3335,1581.3347,1582.8301,0,45,45,45,1,0.2,0.8,0.6,0.4,,,,,,,,,,,,,,,0.7842,,0.2,0.8,0.6,0.4,0.8,0.2,0.6,0.4,1,0,,,,,,,,,,,,
,,66ae89305bcacb3aa6a78bb8,66fc9800ebcc4d1939fb065e,2024-10-02_02h51.01.400,mdp,2024.2.1,Win32,60.24096386,66fa4ebf79326e780c390304,,,,,,,,,,,,,,,,,,,,,1582.8309,1582.8309,1582.8327,1583.8309,0,1,left,0.469,,1583.8324,1585.2299,1,0,right,1585.2316,1585.2326,,0,,1,1585.2327,1585.2327,1585.2338,1586.7303,0,46,46,46,1,0.2,0.8,0.6,0.4,,,,,,,,,,,,,,,0.8693,,0.2,0.8,0.6,0.4,0.8,0.2,0.6,0.4,1,0,,,,,,,,,,,,
,,66ae89305bcacb3aa6a78bb8,66fc9800ebcc4d1939fb065e,2024-10-02_02h51.01.400,mdp,2024.2.1,Win32,60.24096386,66fa4ebf79326e780c390304,,,,,,,,,,,,,,,,,,,,,1586.7314,1586.7314,1586.7332,1588.3302,0,1,left,1.0678,,1588.3323,1589.4475,1,0,right,1589.4494,1589.4505,,0,,1,1589.4505,1589.4505,1589.4517,1590.947,0,47,47,47,1,0.2,0.8,0.6,0.4,,,,,,,,,,,,,,,0.5849,,0.2,0.8,0.6,0.4,0.8,0.2,0.6,0.4,1,0,,,,,,,,,,,,
,,66ae89305bcacb3aa6a78bb8,66fc9800ebcc4d1939fb065e,2024-10-02_02h51.01.400,mdp,2024.2.1,Win32,60.24096386,66fa4ebf79326e780c390304,,,,,,,,,,,,,,,,,,,,,1590.9481,1590.9482,1590.9501,1592.0973,0,1,left,0.6174,,1592.0997,1593.1638,1,0,right,1593.1663,1593.1676,,1,,1,1593.1677,1593.1677,1593.1691,1594.6636,0,48,48,48,1,0.2,0.8,0.6,0.4,,,,,,,,,,,,,,,0.5358,,0.2,0.8,0.6,0.4,0.2,0.8,0.4,0.6,1,0,,,,,,,,,,,,
,,66ae89305bcacb3aa6a78bb8,66fc9800ebcc4d1939fb065e,2024-10-02_02h51.01.400,mdp,2024.2.1,Win32,60.24096386,66fa4ebf79326e780c390304,,,,,,,,,,,,,,,,,,,,,1594.6647,1594.6648,1594.6664,1598.4804,0,1,left,3.2849,,1598.4826,1599.7639,1,1,right,1599.7657,1599.7668,,0,,0,1599.7668,1599.7669,1599.7681,1601.2642,0,49,49,49,1,0.2,0.8,0.6,0.4,,,,,,,,,,,,,,,0.7687,,0.2,0.8,0.6,0.4,0.2,0.8,0.4,0.6,1,0,,,,,,,,,,,,
,,66ae89305bcacb3aa6a78bb8,66fc9800ebcc4d1939fb065e,2024-10-02_02h51.01.400,mdp,2024.2.1,Win32,60.24096386,66fa4ebf79326e780c390304,,,,,,,,,,,,,,,,,,,,,,,,,,,,,,,,,,,,,,,,,,,,,,,,,,,,,,,,1601.2645,1690.9427,0,1,1,3,1,imgs/rabbit.png,imgs/squirrel.png,imgs/dog.png,imgs/elephant.png,imgs/giraffe.png,,,,,,,,,,,,,,,,,,,,,,,,
,,66ae89305bcacb3aa6a78bb8,66fc9800ebcc4d1939fb065e,2024-10-02_02h51.01.400,mdp,2024.2.1,Win32,60.24096386,66fa4ebf79326e780c390304,,,,,,,,,,,,,,3,seqs/st3seq24.csv,1690.9804,1743.1162,space,51.6205,,1743.1431,1743.1431,1743.1445,1747.3829,0,1,left,3.7005,,1747.3846,1748.8167,0,1,left,1748.8184,1751.0334,0,1,left,0,1751.0335,1751.0336,1751.0351,1752.5344,0,0,0,0,1,0.8,0.2,0.4,0.6,,,,,,,,,,,,,,,0.8978,,0.4,0.6,0.6,0.4,0.2,0.8,0.2,0.8,,,1.692,,0.6,0.4,0.2,0.8,0.6,0.4,0.2,0.8,1,0
,,66ae89305bcacb3aa6a78bb8,66fc9800ebcc4d1939fb065e,2024-10-02_02h51.01.400,mdp,2024.2.1,Win32,60.24096386,66fa4ebf79326e780c390304,,,,,,,,,,,,,,,,,,,,,1752.5357,1752.5357,1752.5374,1753.4836,0,0,left,0.4185,,1753.4857,1755.3507,1,1,right,1755.3527,1757.6335,1,1,right,0,1757.6341,1757.6341,1757.6357,1759.1341,0,1,1,1,1,0.8,0.2,0.4,0.6,,,,,,,,,,,,,,,1.3275,,0.4,0.6,0.6,0.4,0.2,0.8,0.2,0.8,,,1.7521,,0.6,0.4,0.2,0.8,0.6,0.4,0.2,0.8,1,0
,,66ae89305bcacb3aa6a78bb8,66fc9800ebcc4d1939fb065e,2024-10-02_02h51.01.400,mdp,2024.2.1,Win32,60.24096386,66fa4ebf79326e780c390304,,,,,,,,,,,,,,,,,,,,,1759.1349,1759.135,1759.1365,1760.1506,0,0,left,0.4876,,1760.1525,1761.5176,1,1,right,1761.5197,1762.5342,0,1,left,0,1762.5343,1762.5343,1762.5365,1764.0337,0,2,2,2,1,0.8,0.2,0.4,0.6,,,,,,,,,,,,,,,0.8352,,0.4,0.6,0.6,0.4,0.2,0.8,0.2,0.8,,,0.4847,,0.6,0.4,0.2,0.8,0.6,0.4,0.2,0.8,1,0
,,66ae89305bcacb3aa6a78bb8,66fc9800ebcc4d1939fb065e,2024-10-02_02h51.01.400,mdp,2024.2.1,Win32,60.24096386,66fa4ebf79326e780c390304,,,,,,,,,,,,,,,,,,,,,1764.0343,1764.0343,1764.0357,1765.2673,0,0,left,0.704,,1765.2692,1767.1338,0,0,left,1767.1353,1768.2342,1,1,right,0,1768.2344,1768.2344,1768.236,1769.7343,0,3,3,3,1,0.8,0.2,0.4,0.6,,,,,,,,,,,,,,,1.3332,,0.4,0.6,0.6,0.4,0.2,0.8,0.2,0.8,,,0.5614,,0.6,0.4,0.2,0.8,0.6,0.4,0.2,0.8,1,0
,,66ae89305bcacb3aa6a78bb8,66fc9800ebcc4d1939fb065e,2024-10-02_02h51.01.400,mdp,2024.2.1,Win32,60.24096386,66fa4ebf79326e780c390304,,,,,,,,,,,,,,,,,,,,,1769.7353,1769.7353,1769.737,1770.8845,0,0,left,0.6197,,1770.8865,1772.7845,1,0,right,1772.7869,1774.1175,1,1,right,0,1774.1176,1774.1176,1774.1194,1775.6171,0,4,4,4,1,0.8,0.2,0.4,0.6,,,,,,,,,,,,,,,1.3687,,0.4,0.6,0.6,0.4,0.2,0.8,0.2,0.8,,,0.8006,,0.6,0.4,0.2,0.8,0.6,0.4,0.2,0.8,1,0
,,66ae89305bcacb3aa6a78bb8,66fc9800ebcc4d1939fb065e,2024-10-02_02h51.01.400,mdp,2024.2.1,Win32,60.24096386,66fa4ebf79326e780c390304,,,,,,,,,,,,,,,,,,,,,1775.6178,1775.6178,1775.6192,1776.5514,0,1,left,0.4178,,1776.5535,1777.8683,0,1,left,1777.8704,1779.0683,0,0,left,1,1779.0685,1779.0685,1779.0704,1780.5692,0,5,5,5,1,0.8,0.2,0.4,0.6,,,,,,,,,,,,,,,0.7772,,0.4,0.6,0.6,0.4,0.2,0.8,0.2,0.8,,,0.6634,,0.6,0.4,0.2,0.8,0.6,0.4,0.2,0.8,1,0
,,66ae89305bcacb3aa6a78bb8,66fc9800ebcc4d1939fb065e,2024-10-02_02h51.01.400,mdp,2024.2.1,Win32,60.24096386,66fa4ebf79326e780c390304,,,,,,,,,,,,,,,,,,,,,1780.57,1780.57,1780.5716,1781.1511,0,0,left,0.0525,,1781.1529,1783.6173,0,0,left,1783.619,1784.8514,1,1,right,0,1784.8515,1784.8515,1784.8539,1786.3504,0,6,6,6,1,0.8,0.2,0.4,0.6,,,,,,,,,,,,,,,1.9284,,0.4,0.6,0.6,0.4,0.2,0.8,0.2,0.8,,,0.7128,,0.6,0.4,0.2,0.8,0.6,0.4,0.2,0.8,1,0
,,66ae89305bcacb3aa6a78bb8,66fc9800ebcc4d1939fb065e,2024-10-02_02h51.01.400,mdp,2024.2.1,Win32,60.24096386,66fa4ebf79326e780c390304,,,,,,,,,,,,,,,,,,,,,1786.351,1786.351,1786.3524,1786.9846,0,0,left,0.1172,,1786.9867,1788.7341,1,1,right,1788.7358,1791.451,1,1,right,0,1791.4511,1791.4511,1791.4527,1792.951,0,7,7,7,1,0.8,0.2,0.4,0.6,,,,,,,,,,,,,,,1.2186,,0.4,0.6,0.6,0.4,0.2,0.8,0.2,0.8,,,2.2005,,0.6,0.4,0.2,0.8,0.6,0.4,0.2,0.8,1,0
,,66ae89305bcacb3aa6a78bb8,66fc9800ebcc4d1939fb065e,2024-10-02_02h51.01.400,mdp,2024.2.1,Win32,60.24096386,66fa4ebf79326e780c390304,,,,,,,,,,,,,,,,,,,,,1792.9519,1792.952,1792.9539,1794.0181,0,0,left,0.5347,,1794.0202,1795.0849,1,0,right,1795.0866,1795.9183,0,0,left,1,1795.9186,1795.9186,1795.9204,1797.4185,0,8,8,8,1,0.8,0.2,0.4,0.6,,,,,,,,,,,,,,,0.5363,,0.4,0.6,0.6,0.4,0.2,0.8,0.2,0.8,,,0.2948,,0.6,0.4,0.2,0.8,0.6,0.4,0.2,0.8,1,0
,,66ae89305bcacb3aa6a78bb8,66fc9800ebcc4d1939fb065e,2024-10-02_02h51.01.400,mdp,2024.2.1,Win32,60.24096386,66fa4ebf79326e780c390304,,,,,,,,,,,,,,,,,,,,,1797.4197,1797.4197,1797.4214,1798.8351,0,0,left,0.8841,,1798.8372,1799.9683,1,0,right,1799.9703,1801.0352,0,1,left,0,1801.0354,1801.0354,1801.0374,1802.5346,0,9,9,9,1,0.8,0.2,0.4,0.6,,,,,,,,,,,,,,,0.6018,,0.4,0.6,0.6,0.4,0.2,0.8,0.2,0.8,,,0.5357,,0.6,0.4,0.2,0.8,0.6,0.4,0.2,0.8,1,0
,,66ae89305bcacb3aa6a78bb8,66fc9800ebcc4d1939fb065e,2024-10-02_02h51.01.400,mdp,2024.2.1,Win32,60.24096386,66fa4ebf79326e780c390304,,,,,,,,,,,,,,,,,,,,,1802.5356,1802.5356,1802.5372,1803.3513,0,1,left,0.285,,1803.3535,1804.7022,0,1,left,1804.7043,1805.9349,0,1,left,0,1805.9351,1805.9351,1805.9367,1807.4348,0,10,10,10,1,0.8,0.2,0.4,0.6,,,,,,,,,,,,,,,0.8306,,0.4,0.6,0.6,0.4,0.2,0.8,0.2,0.8,,,0.6995,,0.6,0.4,0.2,0.8,0.6,0.4,0.2,0.8,1,0
,,66ae89305bcacb3aa6a78bb8,66fc9800ebcc4d1939fb065e,2024-10-02_02h51.01.400,mdp,2024.2.1,Win32,60.24096386,66fa4ebf79326e780c390304,,,,,,,,,,,,,,,,,,,,,1807.4358,1807.4358,1807.4376,1808.3347,0,0,left,0.3664,,1808.3361,1809.5354,1,1,right,1809.5377,1812.1019,1,1,right,0,1812.1022,1812.1022,1812.1042,1813.602,0,11,11,11,1,0.8,0.2,0.4,0.6,,,,,,,,,,,,,,,0.6652,,0.4,0.6,0.6,0.4,0.2,0.8,0.2,0.8,,,2.036,,0.6,0.4,0.2,0.8,0.6,0.4,0.2,0.8,1,0
,,66ae89305bcacb3aa6a78bb8,66fc9800ebcc4d1939fb065e,2024-10-02_02h51.01.400,mdp,2024.2.1,Win32,60.24096386,66fa4ebf79326e780c390304,,,,,,,,,,,,,,,,,,,,,1813.6029,1813.6029,1813.6047,1814.4693,0,0,left,0.3348,,1814.4716,1815.3188,1,1,right,1815.3209,1816.4192,0,0,left,1,1816.4198,1816.4198,1816.4215,1817.9186,0,12,12,12,1,0.8,0.2,0.4,0.6,,,,,,,,,,,,,,,0.3187,,0.4,0.6,0.6,0.4,0.2,0.8,0.2,0.8,,,0.5688,,0.6,0.4,0.2,0.8,0.6,0.4,0.2,0.8,1,0
,,66ae89305bcacb3aa6a78bb8,66fc9800ebcc4d1939fb065e,2024-10-02_02h51.01.400,mdp,2024.2.1,Win32,60.24096386,66fa4ebf79326e780c390304,,,,,,,,,,,,,,,,,,,,,1817.9194,1817.9194,1817.921,1819.1685,0,0,left,0.7206,,1819.1704,1820.0682,1,0,right,1820.0698,1821.4855,0,1,left,0,1821.4857,1821.4857,1821.4874,1822.9856,0,13,13,13,1,0.8,0.2,0.4,0.6,,,,,,,,,,,,,,,0.3877,,0.8,0.2,0.8,0.2,0.2,0.8,0.2,0.8,,,0.8964,,0.6,0.4,0.2,0.8,0.6,0.4,0.2,0.8,1,0
,,66ae89305bcacb3aa6a78bb8,66fc9800ebcc4d1939fb065e,2024-10-02_02h51.01.400,mdp,2024.2.1,Win32,60.24096386,66fa4ebf79326e780c390304,,,,,,,,,,,,,,,,,,,,,1822.9865,1822.9865,1822.9883,1823.8192,0,0,left,0.3007,,1823.8216,1824.7025,1,0,right,1824.7043,1825.5856,1,1,right,0,1825.5859,1825.5859,1825.5881,1827.0853,0,14,14,14,1,0.8,0.2,0.4,0.6,,,,,,,,,,,,,,,0.3512,,0.8,0.2,0.8,0.2,0.2,0.8,0.2,0.8,,,0.3512,,0.6,0.4,0.2,0.8,0.6,0.4,0.2,0.8,1,0
,,66ae89305bcacb3aa6a78bb8,66fc9800ebcc4d1939fb065e,2024-10-02_02h51.01.400,mdp,2024.2.1,Win32,60.24096386,66fa4ebf79326e780c390304,,,,,,,,,,,,,,,,,,,,,1827.0863,1827.0863,1827.088,1830.2707,1,1,right,2.6512,,1830.2725,1832.7022,0,1,left,1832.7041,1834.0192,1,1,right,0,1834.0193,1834.0193,1834.021,1835.5188,0,15,15,15,1,0.8,0.2,0.4,0.6,,,,,,,,,,,,,,,1.8968,,0.8,0.2,0.8,0.2,0.2,0.8,0.2,0.8,,,0.7768,,0.6,0.4,0.2,0.8,0.6,0.4,0.2,0.8,1,0
,,66ae89305bcacb3aa6a78bb8,66fc9800ebcc4d1939fb065e,2024-10-02_02h51.01.400,mdp,2024.2.1,Win32,60.24096386,66fa4ebf79326e780c390304,,,,,,,,,,,,,,,,,,,,,1835.5196,1835.5196,1835.5209,1836.5191,1,1,right,0.4685,,1836.5212,1837.8696,1,1,right,1837.8717,1838.7691,1,0,right,1,1838.7694,1838.7694,1838.7711,1840.2692,0,16,16,16,1,0.8,0.2,0.4,0.6,,,,,,,,,,,,,,,0.8174,,0.8,0.2,0.8,0.2,0.2,0.8,0.2,0.8,,,0.3693,,0.6,0.4,0.2,0.8,0.6,0.4,0.2,0.8,1,0
,,66ae89305bcacb3aa6a78bb8,66fc9800ebcc4d1939fb065e,2024-10-02_02h51.01.400,mdp,2024.2.1,Win32,60.24096386,66fa4ebf79326e780c390304,,,,,,,,,,,,,,,,,,,,,1840.2702,1840.2702,1840.272,1841.2027,1,1,right,0.4015,,1841.2049,1842.4194,1,0,right,1842.4218,1843.8026,1,0,right,1,1843.8027,1843.8027,1843.8044,1845.3029,0,17,17,17,1,0.8,0.2,0.4,0.6,,,,,,,,,,,,,,,0.6845,,0.6,0.4,0.2,0.8,0.2,0.8,0.2,0.8,,,0.8461,,0.6,0.4,0.2,0.8,0.6,0.4,0.2,0.8,1,0
,,66ae89305bcacb3aa6a78bb8,66fc9800ebcc4d1939fb065e,2024-10-02_02h51.01.400,mdp,2024.2.1,Win32,60.24096386,66fa4ebf79326e780c390304,,,,,,,,,,,,,,,,,,,,,1845.304,1845.3041,1845.3059,1847.3198,1,1,right,1.4892,,1847.3217,1848.469,1,1,right,1848.4708,1849.503,1,1,right,0,1849.5032,1849.5032,1849.5049,1851.0021,0,18,18,18,1,0.8,0.2,0.4,0.6,,,,,,,,,,,,,,,0.6162,,0.6,0.4,0.2,0.8,0.2,0.8,0.2,0.8,,,0.496,,0.6,0.4,0.2,0.8,0.6,0.4,0.2,0.8,1,0
,,66ae89305bcacb3aa6a78bb8,66fc9800ebcc4d1939fb065e,2024-10-02_02h51.01.400,mdp,2024.2.1,Win32,60.24096386,66fa4ebf79326e780c390304,,,,,,,,,,,,,,,,,,,,,1851.003,1851.003,1851.0048,1851.8872,0,0,left,0.3571,,1851.8886,1852.752,0,1,left,1852.7537,1853.486,1,1,right,0,1853.4863,1853.4863,1853.4883,1854.9859,0,19,19,19,1,0.8,0.2,0.4,0.6,,,,,,,,,,,,,,,0.3343,,0.6,0.4,0.2,0.8,0.2,0.8,0.2,0.8,,,0.2194,,0.6,0.4,0.2,0.8,0.6,0.4,0.2,0.8,1,0
,,66ae89305bcacb3aa6a78bb8,66fc9800ebcc4d1939fb065e,2024-10-02_02h51.01.400,mdp,2024.2.1,Win32,60.24096386,66fa4ebf79326e780c390304,,,,,,,,,,,,,,,,,,,,,1854.9868,1854.9868,1854.9886,1855.886,0,0,left,0.3701,,1855.8879,1856.7028,1,0,right,1856.705,1859.2863,0,0,left,1,1859.2864,1859.2864,1859.2885,1860.786,0,20,20,20,1,0.8,0.2,0.4,0.6,,,,,,,,,,,,,,,0.2825,,0.6,0.4,0.2,0.8,0.2,0.8,0.2,0.8,,,2.0448,,0.6,0.4,0.2,0.8,0.6,0.4,0.2,0.8,1,0
,,66ae89305bcacb3aa6a78bb8,66fc9800ebcc4d1939fb065e,2024-10-02_02h51.01.400,mdp,2024.2.1,Win32,60.24096386,66fa4ebf79326e780c390304,,,,,,,,,,,,,,,,,,,,,1860.7871,1860.7871,1860.7886,1861.7036,0,0,left,0.3836,,1861.7061,1863.1031,1,0,right,1863.1053,1864.1692,0,0,left,1,1864.1695,1864.1695,1864.1709,1865.6696,0,21,21,21,1,0.8,0.2,0.4,0.6,,,,,,,,,,,,,,,0.8699,,0.4,0.6,0.8,0.2,0.2,0.8,0.2,0.8,,,0.5366,,0.6,0.4,0.2,0.8,0.6,0.4,0.2,0.8,1,0
,,66ae89305bcacb3aa6a78bb8,66fc9800ebcc4d1939fb065e,2024-10-02_02h51.01.400,mdp,2024.2.1,Win32,60.24096386,66fa4ebf79326e780c390304,,,,,,,,,,,,,,,,,,,,,1865.6707,1865.6707,1865.6722,1866.4868,0,0,left,0.285,,1866.4889,1867.6533,1,0,right,1867.6552,1868.6198,0,0,left,1,1868.6203,1868.6203,1868.6231,1870.1196,0,22,22,22,1,0.8,0.2,0.4,0.6,,,,,,,,,,,,,,,0.6355,,0.4,0.6,0.8,0.2,0.2,0.8,0.2,0.8,,,0.4347,,0.6,0.4,0.2,0.8,0.6,0.4,0.2,0.8,1,0
,,66ae89305bcacb3aa6a78bb8,66fc9800ebcc4d1939fb065e,2024-10-02_02h51.01.400,mdp,2024.2.1,Win32,60.24096386,66fa4ebf79326e780c390304,,,,,,,,,,,,,,,,,,,,,1870.1206,1870.1206,1870.1223,1870.9242,0,0,left,0.2785,,1870.927,1871.8699,1,0,right,1871.8724,1872.9041,0,0,left,1,1872.9042,1872.9042,1872.9064,1874.4031,0,23,23,23,1,0.8,0.2,0.4,0.6,,,,,,,,,,,,,,,0.4176,,0.4,0.6,0.8,0.2,0.2,0.8,0.2,0.8,,,0.5062,,0.6,0.4,0.2,0.8,0.6,0.4,0.2,0.8,1,0
,,66ae89305bcacb3aa6a78bb8,66fc9800ebcc4d1939fb065e,2024-10-02_02h51.01.400,mdp,2024.2.1,Win32,60.24096386,66fa4ebf79326e780c390304,,,,,,,,,,,,,,,,,,,,,1874.4042,1874.4042,1874.4061,1875.2194,0,1,left,0.2879,,1875.2212,1876.6526,0,0,left,1876.6547,1877.9204,0,1,left,0,1877.9207,1877.9208,1877.9228,1879.4203,0,24,24,24,1,0.8,0.2,0.4,0.6,,,,,,,,,,,,,,,0.9128,,0.4,0.6,0.8,0.2,0.2,0.8,0.2,0.8,,,0.7506,,0.6,0.4,0.2,0.8,0.6,0.4,0.2,0.8,1,0
,,66ae89305bcacb3aa6a78bb8,66fc9800ebcc4d1939fb065e,2024-10-02_02h51.01.400,mdp,2024.2.1,Win32,60.24096386,66fa4ebf79326e780c390304,,,,,,,,,,,,,,,,,,,,,1879.4215,1879.4215,1879.4233,1880.2368,0,1,left,0.2841,,1880.2388,1881.2368,1,1,right,1881.2389,1882.0866,0,0,left,1,1882.0867,1882.0867,1882.0886,1883.5872,0,25,25,25,1,0.8,0.2,0.4,0.6,,,,,,,,,,,,,,,0.4705,,0.4,0.6,0.8,0.2,0.2,0.8,0.2,0.8,,,0.3129,,0.6,0.4,0.2,0.8,0.6,0.4,0.2,0.8,1,0
,,66ae89305bcacb3aa6a78bb8,66fc9800ebcc4d1939fb065e,2024-10-02_02h51.01.400,mdp,2024.2.1,Win32,60.24096386,66fa4ebf79326e780c390304,,,,,,,,,,,,,,,,,,,,,1883.5884,1883.5884,1883.59,1884.4534,0,0,left,0.3353,,1884.4564,1885.5371,1,0,right,1885.5394,1886.7366,0,0,left,1,1886.7368,1886.7368,1886.7392,1888.2362,0,26,26,26,1,0.8,0.2,0.4,0.6,,,,,,,,,,,,,,,0.5453,,0.4,0.6,0.8,0.2,0.2,0.8,0.2,0.8,,,0.6644,,0.6,0.4,0.2,0.8,0.6,0.4,0.2,0.8,1,0
,,66ae89305bcacb3aa6a78bb8,66fc9800ebcc4d1939fb065e,2024-10-02_02h51.01.400,mdp,2024.2.1,Win32,60.24096386,66fa4ebf79326e780c390304,,,,,,,,,,,,,,,,,,,,,1888.2367,1888.2367,1888.2382,1889.2874,0,1,left,0.5173,,1889.2901,1890.9372,1,1,right,1890.9395,1892.121,0,0,left,1,1892.1211,1892.1211,1892.1226,1893.6196,0,27,27,27,1,0.4,0.6,0.8,0.2,,,,,,,,,,,,,,,1.1126,,0.4,0.6,0.8,0.2,0.2,0.8,0.2,0.8,,,0.6525,,0.6,0.4,0.2,0.8,0.6,0.4,0.2,0.8,1,0
,,66ae89305bcacb3aa6a78bb8,66fc9800ebcc4d1939fb065e,2024-10-02_02h51.01.400,mdp,2024.2.1,Win32,60.24096386,66fa4ebf79326e780c390304,,,,,,,,,,,,,,,,,,,,,1893.6205,1893.6205,1893.6221,1894.4209,0,1,left,0.2676,,1894.423,1895.7871,1,0,right,1895.7889,1896.9874,0,0,left,1,1896.9877,1896.9877,1896.9894,1898.4873,0,28,28,28,1,0.4,0.6,0.8,0.2,,,,,,,,,,,,,,,0.84,,0.4,0.6,0.8,0.2,0.2,0.8,0.2,0.8,,,0.6611,,0.6,0.4,0.2,0.8,0.6,0.4,0.2,0.8,1,0
,,66ae89305bcacb3aa6a78bb8,66fc9800ebcc4d1939fb065e,2024-10-02_02h51.01.400,mdp,2024.2.1,Win32,60.24096386,66fa4ebf79326e780c390304,,,,,,,,,,,,,,,,,,,,,1898.4887,1898.4887,1898.4905,1899.3705,0,0,left,0.3513,,1899.3723,1900.3715,1,1,right,1900.3733,1902.0537,0,1,left,0,1902.0539,1902.0539,1902.0558,1903.5538,0,29,29,29,1,0.4,0.6,0.8,0.2,,,,,,,,,,,,,,,0.4634,,0.4,0.6,0.8,0.2,0.2,0.8,0.2,0.8,,,1.148,,0.6,0.4,0.2,0.8,0.6,0.4,0.2,0.8,1,0
,,66ae89305bcacb3aa6a78bb8,66fc9800ebcc4d1939fb065e,2024-10-02_02h51.01.400,mdp,2024.2.1,Win32,60.24096386,66fa4ebf79326e780c390304,,,,,,,,,,,,,,,,,,,,,1903.555,1903.555,1903.5567,1904.4539,0,0,left,0.3694,,1904.4559,1905.4039,1,0,right,1905.4054,1906.6035,0,0,left,1,1906.6036,1906.6036,1906.6052,1908.1039,0,30,30,30,1,0.4,0.6,0.8,0.2,,,,,,,,,,,,,,,0.4206,,0.4,0.6,0.8,0.2,0.2,0.8,0.2,0.8,,,0.667,,0.6,0.4,0.2,0.8,0.6,0.4,0.2,0.8,1,0
,,66ae89305bcacb3aa6a78bb8,66fc9800ebcc4d1939fb065e,2024-10-02_02h51.01.400,mdp,2024.2.1,Win32,60.24096386,66fa4ebf79326e780c390304,,,,,,,,,,,,,,,,,,,,,1908.1048,1908.1049,1908.1064,1908.9201,0,1,left,0.2877,,1908.922,1910.5207,1,0,right,1910.5225,1911.5713,0,1,left,0,1911.5714,1911.5715,1911.5729,1913.0707,0,31,31,31,1,0.4,0.6,0.8,0.2,,,,,,,,,,,,,,,1.0798,,0.4,0.6,0.8,0.2,0.2,0.8,0.2,0.8,,,0.5185,,0.6,0.4,0.2,0.8,0.6,0.4,0.2,0.8,1,0
,,66ae89305bcacb3aa6a78bb8,66fc9800ebcc4d1939fb065e,2024-10-02_02h51.01.400,mdp,2024.2.1,Win32,60.24096386,66fa4ebf79326e780c390304,,,,,,,,,,,,,,,,,,,,,1913.0715,1913.0718,1913.0732,1913.9211,0,1,left,0.318,,1913.9231,1914.9879,0,0,left,1914.9903,1916.1044,0,0,left,1,1916.1046,1916.1046,1916.1062,1917.6043,0,32,32,32,1,0.4,0.6,0.8,0.2,,,,,,,,,,,,,,,0.5337,,0.4,0.6,0.8,0.2,0.2,0.8,0.2,0.8,,,0.5862,,0.6,0.4,0.2,0.8,0.6,0.4,0.2,0.8,1,0
,,66ae89305bcacb3aa6a78bb8,66fc9800ebcc4d1939fb065e,2024-10-02_02h51.01.400,mdp,2024.2.1,Win32,60.24096386,66fa4ebf79326e780c390304,,,,,,,,,,,,,,,,,,,,,1917.6054,1917.6054,1917.6073,1918.4806,0,0,left,0.3514,,1918.4828,1919.5481,1,0,right,1919.5499,1920.7871,0,0,left,1,1920.7872,1920.7872,1920.7899,1922.2939,0,33,33,33,1,0.4,0.6,0.8,0.2,,,,,,,,,,,,,,,0.5361,,0.4,0.6,0.8,0.2,0.2,0.8,0.2,0.8,,,0.7039,,0.6,0.4,0.2,0.8,0.6,0.4,0.2,0.8,1,0
,,66ae89305bcacb3aa6a78bb8,66fc9800ebcc4d1939fb065e,2024-10-02_02h51.01.400,mdp,2024.2.1,Win32,60.24096386,66fa4ebf79326e780c390304,,,,,,,,,,,,,,,,,,,,,1922.2949,1922.2949,1922.297,1923.1472,0,0,left,0.3336,,1923.1489,1924.7207,1,1,right,1924.7241,1926.4781,1,1,right,0,1926.4782,1926.4782,1926.4807,1927.9706,0,34,34,34,1,0.4,0.6,0.8,0.2,,,,,,,,,,,,,,,1.0388,,0.4,0.6,0.8,0.2,0.2,0.8,0.2,0.8,,,1.2173,,0.6,0.4,0.2,0.8,0.6,0.4,0.2,0.8,1,0
,,66ae89305bcacb3aa6a78bb8,66fc9800ebcc4d1939fb065e,2024-10-02_02h51.01.400,mdp,2024.2.1,Win32,60.24096386,66fa4ebf79326e780c390304,,,,,,,,,,,,,,,,,,,,,1927.9715,1927.9715,1927.9736,1928.7543,0,1,left,0.2515,,1928.7578,1930.4213,1,1,right,1930.4243,1931.8207,0,1,left,0,1931.821,1931.821,1931.8234,1933.321,0,35,35,35,1,0.4,0.6,0.8,0.2,,,,,,,,,,,,,,,1.1186,,0.4,0.6,0.8,0.2,0.2,0.8,0.2,0.8,,,0.8687,,0.6,0.4,0.2,0.8,0.6,0.4,0.2,0.8,1,0
,,66ae89305bcacb3aa6a78bb8,66fc9800ebcc4d1939fb065e,2024-10-02_02h51.01.400,mdp,2024.2.1,Win32,60.24096386,66fa4ebf79326e780c390304,,,,,,,,,,,,,,,,,,,,,1933.3223,1933.3223,1933.3245,1934.2044,0,0,left,0.352,,1934.2076,1935.4378,1,0,right,1935.4408,1936.9423,0,0,left,1,1936.9424,1936.9425,1936.9448,1938.4404,0,36,36,36,1,0.4,0.6,0.8,0.2,,,,,,,,,,,,,,,0.6839,,0.4,0.6,0.8,0.2,0.2,0.8,0.2,0.8,,,0.9631,,0.6,0.4,0.2,0.8,0.6,0.4,0.2,0.8,1,0
,,66ae89305bcacb3aa6a78bb8,66fc9800ebcc4d1939fb065e,2024-10-02_02h51.01.400,mdp,2024.2.1,Win32,60.24096386,66fa4ebf79326e780c390304,,,,,,,,,,,,,,,,,,,,,1938.4412,1938.4412,1938.4429,1939.5705,0,0,left,0.6016,,1939.5726,1940.7044,1,0,right,1940.7063,1941.9428,1,1,right,0,1941.943,1941.943,1941.945,1943.4373,0,37,37,37,1,0.4,0.6,0.8,0.2,,,,,,,,,,,,,,,0.5877,,0.4,0.6,0.8,0.2,0.2,0.8,0.2,0.8,,,0.7117,,0.8,0.2,0.8,0.2,0.6,0.4,0.2,0.8,1,0
,,66ae89305bcacb3aa6a78bb8,66fc9800ebcc4d1939fb065e,2024-10-02_02h51.01.400,mdp,2024.2.1,Win32,60.24096386,66fa4ebf79326e780c390304,,,,,,,,,,,,,,,,,,,,,1943.4384,1943.4384,1943.4408,1944.2452,0,1,left,0.2971,,1944.2481,1945.6234,1,1,right,1945.6257,1946.8378,1,1,right,0,1946.838,1946.838,1946.8412,1948.3386,0,38,38,38,1,0.4,0.6,0.8,0.2,,,,,,,,,,,,,,,0.8441,,0.4,0.6,0.8,0.2,0.2,0.8,0.2,0.8,,,0.6861,,0.8,0.2,0.8,0.2,0.6,0.4,0.2,0.8,1,0
,,66ae89305bcacb3aa6a78bb8,66fc9800ebcc4d1939fb065e,2024-10-02_02h51.01.400,mdp,2024.2.1,Win32,60.24096386,66fa4ebf79326e780c390304,,,,,,,,,,,,,,,,,,,,,1948.3396,1948.3396,1948.3413,1949.1551,0,0,left,0.2842,,1949.1572,1950.0713,1,1,right,1950.0737,1951.505,0,0,left,1,1951.5051,1951.5051,1951.5069,1953.0054,0,39,39,39,1,0.4,0.6,0.8,0.2,,,,,,,,,,,,,,,0.3795,,0.4,0.6,0.8,0.2,0.8,0.2,0.6,0.4,,,0.9007,,0.8,0.2,0.8,0.2,0.6,0.4,0.2,0.8,1,0
,,66ae89305bcacb3aa6a78bb8,66fc9800ebcc4d1939fb065e,2024-10-02_02h51.01.400,mdp,2024.2.1,Win32,60.24096386,66fa4ebf79326e780c390304,,,,,,,,,,,,,,,,,,,,,1953.007,1953.007,1953.0088,1953.973,0,0,left,0.4409,,1953.9744,1955.272,1,0,right,1955.2739,1956.4721,0,0,left,1,1956.4724,1956.4724,1956.4743,1957.972,0,40,40,40,1,0.4,0.6,0.8,0.2,,,,,,,,,,,,,,,0.7707,,0.4,0.6,0.8,0.2,0.8,0.2,0.6,0.4,,,0.6637,,0.8,0.2,0.8,0.2,0.6,0.4,0.2,0.8,1,0
,,66ae89305bcacb3aa6a78bb8,66fc9800ebcc4d1939fb065e,2024-10-02_02h51.01.400,mdp,2024.2.1,Win32,60.24096386,66fa4ebf79326e780c390304,,,,,,,,,,,,,,,,,,,,,1957.973,1957.9732,1957.9749,1958.7735,0,1,left,0.2675,,1958.7752,1960.4388,1,1,right,1960.4407,1962.3725,0,0,left,1,1962.373,1962.3731,1962.3749,1963.8723,0,41,41,41,1,0.4,0.6,0.8,0.2,,,,,,,,,,,,,,,1.1286,,0.4,0.6,0.8,0.2,0.8,0.2,0.6,0.4,,,1.3957,,0.8,0.2,0.8,0.2,0.6,0.4,0.2,0.8,1,0
,,66ae89305bcacb3aa6a78bb8,66fc9800ebcc4d1939fb065e,2024-10-02_02h51.01.400,mdp,2024.2.1,Win32,60.24096386,66fa4ebf79326e780c390304,,,,,,,,,,,,,,,,,,,,,1963.8735,1963.8736,1963.8751,1964.4403,0,1,left,0.0419,,1964.4419,1965.8557,1,0,right,1965.8578,1966.9721,0,0,left,1,1966.9724,1966.9725,1966.9742,1968.472,0,42,42,42,1,0.4,0.6,0.8,0.2,,,,,,,,,,,,,,,0.8846,,0.4,0.6,0.8,0.2,0.8,0.2,0.6,0.4,,,0.5799,,0.8,0.2,0.8,0.2,0.6,0.4,0.2,0.8,1,0
,,66ae89305bcacb3aa6a78bb8,66fc9800ebcc4d1939fb065e,2024-10-02_02h51.01.400,mdp,2024.2.1,Win32,60.24096386,66fa4ebf79326e780c390304,,,,,,,,,,,,,,,,,,,,,1968.4732,1968.4732,1968.4745,1969.1059,0,1,left,0.1016,,1969.1082,1970.4886,1,0,right,1970.4906,1971.5728,0,0,left,1,1971.573,1971.5731,1971.5748,1973.0723,0,43,43,43,1,0.4,0.6,0.8,0.2,,,,,,,,,,,,,,,0.8516,,0.4,0.6,0.8,0.2,0.8,0.2,0.6,0.4,,,0.5508,,0.8,0.2,0.8,0.2,0.6,0.4,0.2,0.8,1,0
,,66ae89305bcacb3aa6a78bb8,66fc9800ebcc4d1939fb065e,2024-10-02_02h51.01.400,mdp,2024.2.1,Win32,60.24096386,66fa4ebf79326e780c390304,,,,,,,,,,,,,,,,,,,,,1973.0735,1973.0735,1973.0749,1973.8388,0,1,left,0.2344,,1973.8409,1975.7563,1,1,right,1975.7582,1977.0385,0,0,left,1,1977.0387,1977.0387,1977.0405,1978.5393,0,44,44,44,1,0.4,0.6,0.8,0.2,,,,,,,,,,,,,,,1.3854,,0.6,0.4,0.6,0.4,0.8,0.2,0.6,0.4,,,0.7495,,0.8,0.2,0.8,0.2,0.6,0.4,0.2,0.8,1,0
,,66ae89305bcacb3aa6a78bb8,66fc9800ebcc4d1939fb065e,2024-10-02_02h51.01.400,mdp,2024.2.1,Win32,60.24096386,66fa4ebf79326e780c390304,,,,,,,,,,,,,,,,,,,,,1978.5399,1978.54,1978.5419,1979.1062,0,1,left,0.0355,,1979.1078,1980.5717,1,0,right,1980.5733,1981.5723,0,0,left,1,1981.5724,1981.5724,1981.5741,1983.073,0,45,45,45,1,0.4,0.6,0.8,0.2,,,,,,,,,,,,,,,0.9371,,0.6,0.4,0.6,0.4,0.8,0.2,0.6,0.4,,,0.463,,0.8,0.2,0.8,0.2,0.6,0.4,0.2,0.8,1,0
,,66ae89305bcacb3aa6a78bb8,66fc9800ebcc4d1939fb065e,2024-10-02_02h51.01.400,mdp,2024.2.1,Win32,60.24096386,66fa4ebf79326e780c390304,,,,,,,,,,,,,,,,,,,,,1983.0739,1983.0739,1983.0757,1983.7059,0,1,left,0.1008,,1983.7079,1984.7723,1,1,right,1984.7741,1985.6218,0,1,left,0,1985.6219,1985.6219,1985.6235,1987.1225,0,46,46,46,1,0.4,0.6,0.8,0.2,,,,,,,,,,,,,,,0.5507,,0.6,0.4,0.6,0.4,0.8,0.2,0.6,0.4,,,0.3146,,0.8,0.2,0.8,0.2,0.6,0.4,0.2,0.8,1,0
,,66ae89305bcacb3aa6a78bb8,66fc9800ebcc4d1939fb065e,2024-10-02_02h51.01.400,mdp,2024.2.1,Win32,60.24096386,66fa4ebf79326e780c390304,,,,,,,,,,,,,,,,,,,,,1987.1235,1987.1236,1987.1254,1987.6553,0,1,left,0.0012,,1987.6574,1988.9895,1,0,right,1988.9917,1990.1563,0,0,left,1,1990.1566,1990.1568,1990.1585,1991.6556,0,47,47,47,1,0.4,0.6,0.8,0.2,,,,,,,,,,,,,,,0.8019,,0.6,0.4,0.6,0.4,0.8,0.2,0.6,0.4,,,0.6294,,0.8,0.2,0.8,0.2,0.6,0.4,0.2,0.8,1,0
,,66ae89305bcacb3aa6a78bb8,66fc9800ebcc4d1939fb065e,2024-10-02_02h51.01.400,mdp,2024.2.1,Win32,60.24096386,66fa4ebf79326e780c390304,,,,,,,,,,,,,,,,,,,,,1991.6564,1991.6564,1991.6577,1992.222,0,0,left,0.039,,1992.2238,1993.2561,1,0,right,1993.258,1994.4063,0,0,left,1,1994.4064,1994.4064,1994.408,1995.9059,0,48,48,48,1,0.4,0.6,0.8,0.2,,,,,,,,,,,,,,,0.5139,,0.6,0.4,0.6,0.4,0.8,0.2,0.6,0.4,,,0.6225,,0.8,0.2,0.8,0.2,0.6,0.4,0.2,0.8,1,0
,,66ae89305bcacb3aa6a78bb8,66fc9800ebcc4d1939fb065e,2024-10-02_02h51.01.400,mdp,2024.2.1,Win32,60.24096386,66fa4ebf79326e780c390304,,,,,,,,,,,,,,,,,,,,,1995.9071,1995.9072,1995.9086,1996.7739,0,0,left,0.3353,,1996.7754,1997.7393,1,0,right,1997.7416,1998.8393,0,0,left,1,1998.8394,1998.8395,1998.8416,2000.3396,0,49,49,49,1,0.4,0.6,0.8,0.2,,,,,,,,,,,,,,,0.4348,,0.6,0.4,0.6,0.4,0.8,0.2,0.6,0.4,,,0.5676,,0.8,0.2,0.8,0.2,0.6,0.4,0.2,0.8,1,0
,,66ae89305bcacb3aa6a78bb8,66fc9800ebcc4d1939fb065e,2024-10-02_02h51.01.400,mdp,2024.2.1,Win32,60.24096386,66fa4ebf79326e780c390304,,,,,,,,,,,,,,,,,,,,,,,,,,,,,,,,,,,,,,,,,,,,,,,,,,,,,,,,2000.34,2058.8406,0,2,2,8,1,imgs/goat.png,imgs/pig.png,imgs/squirrel.png,imgs/dog.png,imgs/cat.png,,,,,,,,,,,,,,,,,,,,,,,,
,,66ae89305bcacb3aa6a78bb8,66fc9800ebcc4d1939fb065e,2024-10-02_02h51.01.400,mdp,2024.2.1,Win32,60.24096386,66fa4ebf79326e780c390304,,,,,,,,,,,,,,3,seqs/st3seq46.csv,2058.8419,2334.9717,space,275.6043,,2334.9971,2334.9971,2334.9987,2337.3795,0,0,left,1.8413,,2337.3807,2338.7801,0,0,left,2338.7813,2340.0627,0,0,left,1,2340.0628,2340.0628,2340.0642,2341.5627,0,0,0,0,1,0.4,0.6,0.6,0.4,,,,,,,,,,,,,,,0.8647,,0.8,0.2,0.6,0.4,0.8,0.2,0.2,0.8,,,0.7432,,0.6,0.4,0.4,0.6,0.8,0.2,0.6,0.4,1,0
,,66ae89305bcacb3aa6a78bb8,66fc9800ebcc4d1939fb065e,2024-10-02_02h51.01.400,mdp,2024.2.1,Win32,60.24096386,66fa4ebf79326e780c390304,,,,,,,,,,,,,,,,,,,,,2341.5632,2341.5632,2341.5643,2342.8461,0,1,left,0.7507,,2342.8476,2344.0631,1,0,right,2344.0645,2345.6962,0,0,left,1,2345.6963,2345.6963,2345.6975,2347.196,0,1,1,1,1,0.4,0.6,0.6,0.4,,,,,,,,,,,,,,,0.6825,,0.8,0.2,0.6,0.4,0.8,0.2,0.2,0.8,,,1.0997,,0.6,0.4,0.4,0.6,0.8,0.2,0.6,0.4,1,0
,,66ae89305bcacb3aa6a78bb8,66fc9800ebcc4d1939fb065e,2024-10-02_02h51.01.400,mdp,2024.2.1,Win32,60.24096386,66fa4ebf79326e780c390304,,,,,,,,,,,,,,,,,,,,,2347.1965,2347.1965,2347.1976,2348.0795,0,0,left,0.3568,,2348.081,2349.5962,0,0,left,2349.5974,2350.7796,0,0,left,1,2350.7797,2350.7797,2350.7808,2352.2794,0,2,2,2,1,0.4,0.6,0.6,0.4,,,,,,,,,,,,,,,0.983,,0.8,0.2,0.6,0.4,0.8,0.2,0.2,0.8,,,0.6573,,0.6,0.4,0.4,0.6,0.6,0.4,0.2,0.8,1,0
,,66ae89305bcacb3aa6a78bb8,66fc9800ebcc4d1939fb065e,2024-10-02_02h51.01.400,mdp,2024.2.1,Win32,60.24096386,66fa4ebf79326e780c390304,,,,,,,,,,,,,,,,,,,,,2352.2799,2352.2799,2352.2809,2353.18,0,0,left,0.372,,2353.1814,2354.263,0,1,left,2354.2642,2355.3466,1,1,right,0,2355.3466,2355.3466,2355.3478,2356.8464,0,3,3,3,1,0.4,0.6,0.6,0.4,,,,,,,,,,,,,,,0.5525,,0.8,0.2,0.6,0.4,0.8,0.2,0.2,0.8,,,0.5472,,0.6,0.4,0.4,0.6,0.6,0.4,0.2,0.8,1,0
,,66ae89305bcacb3aa6a78bb8,66fc9800ebcc4d1939fb065e,2024-10-02_02h51.01.400,mdp,2024.2.1,Win32,60.24096386,66fa4ebf79326e780c390304,,,,,,,,,,,,,,,,,,,,,2356.8473,2356.8473,2356.8489,2357.6964,0,1,left,0.3203,,2357.6978,2358.98,1,1,right,2358.9815,2360.03,1,1,right,0,2360.0301,2360.0301,2360.0319,2361.5304,0,4,4,4,1,0.4,0.6,0.6,0.4,,,,,,,,,,,,,,,0.7462,,0.8,0.2,0.6,0.4,0.8,0.2,0.2,0.8,,,0.5135,,0.6,0.4,0.4,0.6,0.6,0.4,0.2,0.8,1,0
,,66ae89305bcacb3aa6a78bb8,66fc9800ebcc4d1939fb065e,2024-10-02_02h51.01.400,mdp,2024.2.1,Win32,60.24096386,66fa4ebf79326e780c390304,,,,,,,,,,,,,,,,,,,,,2361.5314,2361.5314,2361.5328,2363.0799,1,0,right,1.024,,2363.0817,2364.1801,1,0,right,2364.1822,2365.5131,1,0,right,1,2365.5132,2365.5132,2365.5147,2367.0133,0,5,5,5,1,0.4,0.6,0.6,0.4,,,,,,,,,,,,,,,0.5538,,0.8,0.2,0.6,0.4,0.8,0.2,0.2,0.8,,,0.8064,,0.6,0.4,0.4,0.6,0.6,0.4,0.2,0.8,1,0
,,66ae89305bcacb3aa6a78bb8,66fc9800ebcc4d1939fb065e,2024-10-02_02h51.01.400,mdp,2024.2.1,Win32,60.24096386,66fa4ebf79326e780c390304,,,,,,,,,,,,,,,,,,,,,2367.014,2367.014,2367.0157,2368.6811,1,0,right,1.1337,,2368.6842,2369.6238,1,0,right,2369.6258,2370.8138,1,1,right,0,2370.8139,2370.8139,2370.8153,2372.3138,0,6,6,6,1,0.4,0.6,0.6,0.4,,,,,,,,,,,,,,,0.4183,,0.8,0.2,0.6,0.4,0.8,0.2,0.2,0.8,,,0.6754,,0.6,0.4,0.4,0.6,0.6,0.4,0.2,0.8,1,0
,,66ae89305bcacb3aa6a78bb8,66fc9800ebcc4d1939fb065e,2024-10-02_02h51.01.400,mdp,2024.2.1,Win32,60.24096386,66fa4ebf79326e780c390304,,,,,,,,,,,,,,,,,,,,,2372.3145,2372.3145,2372.3168,2373.3309,1,1,right,0.4847,,2373.3334,2374.4864,0,0,left,2374.4883,2375.597,1,1,right,0,2375.5972,2375.5972,2375.5993,2377.0971,0,7,7,7,1,0.4,0.6,0.6,0.4,,,,,,,,,,,,,,,0.6135,,0.8,0.2,0.6,0.4,0.8,0.2,0.2,0.8,,,0.5845,,0.6,0.4,0.4,0.6,0.6,0.4,0.2,0.8,1,0
,,66ae89305bcacb3aa6a78bb8,66fc9800ebcc4d1939fb065e,2024-10-02_02h51.01.400,mdp,2024.2.1,Win32,60.24096386,66fa4ebf79326e780c390304,,,,,,,,,,,,,,,,,,,,,2377.0979,2377.0979,2377.1007,2378.2142,0,0,left,0.5793,,2378.217,2379.3643,0,0,left,2379.3666,2380.447,0,0,left,1,2380.4472,2380.4472,2380.4489,2381.9478,0,8,8,8,1,0.4,0.6,0.6,0.4,,,,,,,,,,,,,,,0.6055,,0.8,0.2,0.6,0.4,0.8,0.2,0.2,0.8,,,0.5504,,0.6,0.4,0.4,0.6,0.6,0.4,0.2,0.8,1,0
,,66ae89305bcacb3aa6a78bb8,66fc9800ebcc4d1939fb065e,2024-10-02_02h51.01.400,mdp,2024.2.1,Win32,60.24096386,66fa4ebf79326e780c390304,,,,,,,,,,,,,,,,,,,,,2381.9485,2381.9486,2381.9506,2383.148,0,0,left,0.6685,,2383.1501,2386.3247,0,0,left,2386.3264,2387.3811,0,0,left,1,2387.3813,2387.3814,2387.3843,2388.8801,0,9,9,9,1,0.4,0.6,0.6,0.4,,,,,,,,,,,,,,,2.6511,,0.8,0.2,0.6,0.4,0.8,0.2,0.2,0.8,,,0.5349,,0.6,0.4,0.4,0.6,0.6,0.4,0.2,0.8,1,0
,,66ae89305bcacb3aa6a78bb8,66fc9800ebcc4d1939fb065e,2024-10-02_02h51.01.400,mdp,2024.2.1,Win32,60.24096386,66fa4ebf79326e780c390304,,,,,,,,,,,,,,,,,,,,,2388.8806,2388.8806,2388.882,2389.4139,0,1,left,0.0231,,2389.4158,2390.4875,1,0,right,2390.49,2391.5975,0,1,left,0,2391.5976,2391.5977,2391.5998,2393.0973,0,10,10,10,1,0.4,0.6,0.6,0.4,,,,,,,,,,,,,,,0.5475,,0.8,0.2,0.6,0.4,0.8,0.2,0.2,0.8,,,0.5923,,0.6,0.4,0.4,0.6,0.6,0.4,0.2,0.8,1,0
,,66ae89305bcacb3aa6a78bb8,66fc9800ebcc4d1939fb065e,2024-10-02_02h51.01.400,mdp,2024.2.1,Win32,60.24096386,66fa4ebf79326e780c390304,,,,,,,,,,,,,,,,,,,,,2393.0981,2393.0982,2393.1014,2393.8981,0,1,left,0.2695,,2393.901,2395.214,1,1,right,2395.2157,2396.6068,1,1,right,0,2396.607,2396.607,2396.6091,2398.098,0,11,11,11,1,0.4,0.6,0.6,0.4,,,,,,,,,,,,,,,0.7869,,0.6,0.4,0.8,0.2,0.8,0.2,0.2,0.8,,,0.8664,,0.6,0.4,0.4,0.6,0.6,0.4,0.2,0.8,1,0
,,66ae89305bcacb3aa6a78bb8,66fc9800ebcc4d1939fb065e,2024-10-02_02h51.01.400,mdp,2024.2.1,Win32,60.24096386,66fa4ebf79326e780c390304,,,,,,,,,,,,,,,,,,,,,2398.0988,2398.0988,2398.1019,2399.0483,1,0,right,0.4188,,2399.0512,2400.1982,1,0,right,2400.2002,2401.4815,1,1,right,0,2401.4816,2401.4816,2401.4846,2402.9814,0,12,12,12,1,0.4,0.6,0.6,0.4,,,,,,,,,,,,,,,0.6032,,0.6,0.4,0.8,0.2,0.8,0.2,0.2,0.8,,,0.7365,,0.6,0.4,0.4,0.6,0.6,0.4,0.2,0.8,1,0
,,66ae89305bcacb3aa6a78bb8,66fc9800ebcc4d1939fb065e,2024-10-02_02h51.01.400,mdp,2024.2.1,Win32,60.24096386,66fa4ebf79326e780c390304,,,,,,,,,,,,,,,,,,,,,2402.9822,2402.9822,2402.9847,2403.7649,0,1,left,0.2512,,2403.7668,2405.6645,1,1,right,2405.6665,2407.2816,1,1,right,0,2407.2817,2407.2817,2407.2843,2408.7814,0,13,13,13,1,0.4,0.6,0.6,0.4,,,,,,,,,,,,,,,1.3501,,0.6,0.4,0.8,0.2,0.8,0.2,0.2,0.8,,,1.0717,,0.6,0.4,0.4,0.6,0.8,0.2,0.6,0.4,1,0
,,66ae89305bcacb3aa6a78bb8,66fc9800ebcc4d1939fb065e,2024-10-02_02h51.01.400,mdp,2024.2.1,Win32,60.24096386,66fa4ebf79326e780c390304,,,,,,,,,,,,,,,,,,,,,2408.7829,2408.783,2408.7861,2409.6713,0,0,left,0.3647,,2409.6722,2410.872,0,1,left,2410.8741,2412.3319,0,0,left,1,2412.332,2412.332,2412.3344,2413.8318,0,14,14,14,1,0.4,0.6,0.6,0.4,,,,,,,,,,,,,,,0.6822,,0.6,0.4,0.8,0.2,0.8,0.2,0.2,0.8,,,0.9346,,0.6,0.4,0.4,0.6,0.8,0.2,0.6,0.4,1,0
,,66ae89305bcacb3aa6a78bb8,66fc9800ebcc4d1939fb065e,2024-10-02_02h51.01.400,mdp,2024.2.1,Win32,60.24096386,66fa4ebf79326e780c390304,,,,,,,,,,,,,,,,,,,,,2413.8331,2413.8337,2413.8366,2414.7311,0,0,left,0.3661,,2414.7328,2415.6318,0,0,left,2415.6346,2416.8316,0,0,left,1,2416.8317,2416.8318,2416.836,2418.331,0,15,15,15,1,0.4,0.6,0.6,0.4,,,,,,,,,,,,,,,0.39,,0.6,0.4,0.8,0.2,0.8,0.2,0.2,0.8,,,0.6657,,0.6,0.4,0.4,0.6,0.8,0.2,0.6,0.4,1,0
,,66ae89305bcacb3aa6a78bb8,66fc9800ebcc4d1939fb065e,2024-10-02_02h51.01.400,mdp,2024.2.1,Win32,60.24096386,66fa4ebf79326e780c390304,,,,,,,,,,,,,,,,,,,,,2418.3317,2418.3317,2418.3333,2419.1818,0,1,left,0.3113,,2419.1841,2420.7316,1,0,right,2420.7341,2421.9317,0,0,left,1,2421.9317,2421.9318,2421.9337,2423.4319,0,16,16,16,1,0.4,0.6,0.6,0.4,,,,,,,,,,,,,,,1.0056,,0.6,0.4,0.8,0.2,0.8,0.2,0.2,0.8,,,0.6721,,0.6,0.4,0.4,0.6,0.8,0.2,0.6,0.4,1,0
,,66ae89305bcacb3aa6a78bb8,66fc9800ebcc4d1939fb065e,2024-10-02_02h51.01.400,mdp,2024.2.1,Win32,60.24096386,66fa4ebf79326e780c390304,,,,,,,,,,,,,,,,,,,,,2423.4329,2423.4329,2423.4354,2424.2646,0,1,left,0.306,,2424.2661,2428.6986,1,0,right,2428.7017,2429.8982,0,0,left,1,2429.8983,2429.8983,2429.9002,2431.3983,0,17,17,17,1,0.4,0.6,0.6,0.4,,,,,,,,,,,,,,,3.9171,,0.8,0.2,0.4,0.6,0.8,0.2,0.2,0.8,,,0.6678,,0.6,0.4,0.4,0.6,0.8,0.2,0.6,0.4,1,0
,,66ae89305bcacb3aa6a78bb8,66fc9800ebcc4d1939fb065e,2024-10-02_02h51.01.400,mdp,2024.2.1,Win32,60.24096386,66fa4ebf79326e780c390304,,,,,,,,,,,,,,,,,,,,,2431.399,2431.399,2431.4013,2431.9319,0,1,left,0.0086,,2431.9339,2433.1987,1,1,right,2433.2009,2434.7912,0,0,left,1,2434.7915,2434.7915,2434.7936,2436.2822,0,18,18,18,1,0.4,0.6,0.6,0.4,,,,,,,,,,,,,,,0.7417,,0.8,0.2,0.4,0.6,0.8,0.2,0.2,0.8,,,1.0497,,0.6,0.4,0.4,0.6,0.8,0.2,0.6,0.4,1,0
,,66ae89305bcacb3aa6a78bb8,66fc9800ebcc4d1939fb065e,2024-10-02_02h51.01.400,mdp,2024.2.1,Win32,60.24096386,66fa4ebf79326e780c390304,,,,,,,,,,,,,,,,,,,,,2436.2829,2436.2829,2436.2852,2437.0821,0,1,left,0.2677,,2437.0854,2438.3324,1,0,right,2438.3354,2439.449,0,0,left,1,2439.4491,2439.4491,2439.4513,2440.9489,0,19,19,19,1,0.4,0.6,0.6,0.4,,,,,,,,,,,,,,,0.7198,,0.8,0.2,0.4,0.6,0.8,0.2,0.2,0.8,,,0.5745,,0.6,0.4,0.4,0.6,0.8,0.2,0.6,0.4,1,0
,,66ae89305bcacb3aa6a78bb8,66fc9800ebcc4d1939fb065e,2024-10-02_02h51.01.400,mdp,2024.2.1,Win32,60.24096386,66fa4ebf79326e780c390304,,,,,,,,,,,,,,,,,,,,,2440.95,2440.9501,2440.9524,2441.5421,0,1,left,0.0676,,2441.5441,2442.7988,1,0,right,2442.8017,2443.8097,0,0,left,1,2443.8098,2443.8098,2443.812,2445.3079,0,20,20,20,1,0.4,0.6,0.6,0.4,,,,,,,,,,,,,,,0.7227,,0.8,0.2,0.4,0.6,0.8,0.2,0.2,0.8,,,0.494,,0.6,0.4,0.4,0.6,0.8,0.2,0.6,0.4,1,0
,,66ae89305bcacb3aa6a78bb8,66fc9800ebcc4d1939fb065e,2024-10-02_02h51.01.400,mdp,2024.2.1,Win32,60.24096386,66fa4ebf79326e780c390304,,,,,,,,,,,,,,,,,,,,,2445.3091,2445.3092,2445.3114,2446.5158,0,0,left,0.6737,,2446.5187,2447.6659,0,0,left,2447.6692,2449.2736,0,0,left,1,2449.2738,2449.2738,2449.276,2450.7657,0,21,21,21,1,0.6,0.4,0.4,0.6,,,,,,,,,,,,,,,0.6022,,0.8,0.2,0.4,0.6,0.8,0.2,0.2,0.8,,,1.0815,,0.6,0.4,0.4,0.6,0.8,0.2,0.6,0.4,1,0
,,66ae89305bcacb3aa6a78bb8,66fc9800ebcc4d1939fb065e,2024-10-02_02h51.01.400,mdp,2024.2.1,Win32,60.24096386,66fa4ebf79326e780c390304,,,,,,,,,,,,,,,,,,,,,2450.7665,2450.7665,2450.7689,2451.6321,0,1,left,0.3351,,2451.6338,2452.9325,1,1,right,2452.9346,2453.8997,1,0,right,1,2453.8998,2453.8998,2453.9017,2455.3995,0,22,22,22,1,0.6,0.4,0.4,0.6,,,,,,,,,,,,,,,0.7686,,0.8,0.2,0.4,0.6,0.8,0.2,0.2,0.8,,,0.4254,,0.6,0.4,0.4,0.6,0.8,0.2,0.6,0.4,1,0
,,66ae89305bcacb3aa6a78bb8,66fc9800ebcc4d1939fb065e,2024-10-02_02h51.01.400,mdp,2024.2.1,Win32,60.24096386,66fa4ebf79326e780c390304,,,,,,,,,,,,,,,,,,,,,2455.4003,2455.4004,2455.4027,2456.3491,0,1,left,0.4188,,2456.3521,2457.5157,1,1,right,2457.5182,2458.4501,0,0,left,1,2458.4503,2458.4504,2458.4526,2459.9495,0,23,23,23,1,0.6,0.4,0.4,0.6,,,,,,,,,,,,,,,0.6535,,0.8,0.2,0.4,0.6,0.8,0.2,0.2,0.8,,,0.4251,,0.6,0.4,0.4,0.6,0.8,0.2,0.6,0.4,1,0
,,66ae89305bcacb3aa6a78bb8,66fc9800ebcc4d1939fb065e,2024-10-02_02h51.01.400,mdp,2024.2.1,Win32,60.24096386,66fa4ebf79326e780c390304,,,,,,,,,,,,,,,,,,,,,2459.9502,2459.9502,2459.9525,2460.6995,0,1,left,0.2206,,2460.7024,2461.9768,1,0,right,2461.9791,2462.8325,0,0,left,1,2462.8326,2462.8326,2462.8343,2464.3326,0,24,24,24,1,0.6,0.4,0.4,0.6,,,,,,,,,,,,,,,0.7477,,0.2,0.8,0.2,0.8,0.8,0.2,0.2,0.8,,,0.3243,,0.6,0.4,0.4,0.6,0.8,0.2,0.6,0.4,1,0
,,66ae89305bcacb3aa6a78bb8,66fc9800ebcc4d1939fb065e,2024-10-02_02h51.01.400,mdp,2024.2.1,Win32,60.24096386,66fa4ebf79326e780c390304,,,,,,,,,,,,,,,,,,,,,2464.3336,2464.3337,2464.3368,2465.1329,0,0,left,0.2694,,2465.1353,2466.5998,0,1,left,2466.6022,2467.7827,0,0,left,1,2467.7828,2467.7828,2467.7852,2469.2828,0,25,25,25,1,0.6,0.4,0.4,0.6,,,,,,,,,,,,,,,0.9178,,0.2,0.8,0.2,0.8,0.8,0.2,0.2,0.8,,,0.6404,,0.6,0.4,0.4,0.6,0.6,0.4,0.8,0.2,1,0
,,66ae89305bcacb3aa6a78bb8,66fc9800ebcc4d1939fb065e,2024-10-02_02h51.01.400,mdp,2024.2.1,Win32,60.24096386,66fa4ebf79326e780c390304,,,,,,,,,,,,,,,,,,,,,2469.2836,2469.2837,2469.286,2561.4009,0,1,left,91.5885,,2561.4185,2563.9009,1,1,right,2563.9025,2565.3344,0,1,left,0,2565.3345,2565.3345,2565.3365,2566.8347,0,26,26,26,1,0.6,0.4,0.4,0.6,,,,,,,,,,,,,,,1.9505,,0.2,0.8,0.2,0.8,0.8,0.2,0.2,0.8,,,0.9006,,0.6,0.4,0.4,0.6,0.6,0.4,0.8,0.2,1,0
,,66ae89305bcacb3aa6a78bb8,66fc9800ebcc4d1939fb065e,2024-10-02_02h51.01.400,mdp,2024.2.1,Win32,60.24096386,66fa4ebf79326e780c390304,,,,,,,,,,,,,,,,,,,,,2566.8355,2566.8355,2566.8375,2567.6605,0,0,left,0.3005,,2567.6622,2568.8347,0,1,left,2568.8368,2570.0353,0,0,left,1,2570.0354,2570.0355,2570.0376,2571.5355,0,27,27,27,1,0.6,0.4,0.4,0.6,,,,,,,,,,,,,,,0.6373,,0.2,0.8,0.2,0.8,0.8,0.2,0.2,0.8,,,0.691,,0.6,0.4,0.4,0.6,0.6,0.4,0.8,0.2,1,0
,,66ae89305bcacb3aa6a78bb8,66fc9800ebcc4d1939fb065e,2024-10-02_02h51.01.400,mdp,2024.2.1,Win32,60.24096386,66fa4ebf79326e780c390304,,,,,,,,,,,,,,,,,,,,,2571.5365,2571.5365,2571.539,2572.2851,0,0,left,0.2205,,2572.2876,2573.4848,0,0,left,2573.4868,2574.6111,0,1,left,0,2574.6112,2574.6112,2574.614,2576.1018,0,28,28,28,1,0.6,0.4,0.4,0.6,,,,,,,,,,,,,,,0.6662,,0.2,0.8,0.2,0.8,0.8,0.2,0.2,0.8,,,0.6026,,0.6,0.4,0.4,0.6,0.6,0.4,0.8,0.2,1,0
,,66ae89305bcacb3aa6a78bb8,66fc9800ebcc4d1939fb065e,2024-10-02_02h51.01.400,mdp,2024.2.1,Win32,60.24096386,66fa4ebf79326e780c390304,,,,,,,,,,,,,,,,,,,,,2576.1028,2576.1028,2576.1064,2576.7519,0,0,left,0.1205,,2576.7545,2578.0853,0,1,left,2578.088,2579.3514,0,0,left,1,2579.3515,2579.3515,2579.3532,2580.8519,0,29,29,29,1,0.6,0.4,0.4,0.6,,,,,,,,,,,,,,,0.8013,,0.2,0.8,0.2,0.8,0.8,0.2,0.2,0.8,,,0.7186,,0.6,0.4,0.4,0.6,0.6,0.4,0.8,0.2,1,0
,,66ae89305bcacb3aa6a78bb8,66fc9800ebcc4d1939fb065e,2024-10-02_02h51.01.400,mdp,2024.2.1,Win32,60.24096386,66fa4ebf79326e780c390304,,,,,,,,,,,,,,,,,,,,,2580.8526,2580.8528,2580.8551,2581.7018,0,0,left,0.3097,,2581.7045,2582.6183,0,1,left,2582.6205,2583.8354,0,0,left,1,2583.8355,2583.8355,2583.8376,2585.3405,0,30,30,30,1,0.6,0.4,0.4,0.6,,,,,,,,,,,,,,,0.3874,,0.2,0.8,0.2,0.8,0.8,0.2,0.2,0.8,,,0.702,,0.6,0.4,0.4,0.6,0.6,0.4,0.8,0.2,1,0
,,66ae89305bcacb3aa6a78bb8,66fc9800ebcc4d1939fb065e,2024-10-02_02h51.01.400,mdp,2024.2.1,Win32,60.24096386,66fa4ebf79326e780c390304,,,,,,,,,,,,,,,,,,,,,2585.3415,2585.3415,2585.3438,2586.0763,0,0,left,0.2161,,2586.079,2587.1185,0,1,left,2587.1211,2588.3023,0,0,left,1,2588.3025,2588.3025,2588.3054,2589.8022,0,31,31,31,1,0.6,0.4,0.4,0.6,,,,,,,,,,,,,,,0.52,,0.2,0.8,0.2,0.8,0.8,0.2,0.2,0.8,,,0.6464,,0.6,0.4,0.4,0.6,0.6,0.4,0.8,0.2,1,0
,,66ae89305bcacb3aa6a78bb8,66fc9800ebcc4d1939fb065e,2024-10-02_02h51.01.400,mdp,2024.2.1,Win32,60.24096386,66fa4ebf79326e780c390304,,,,,,,,,,,,,,,,,,,,,2589.8029,2589.8029,2589.8051,2590.3352,0,0,left,0.0109,,2590.3375,2591.4941,0,1,left,2591.4962,2592.5688,0,0,left,1,2592.5689,2592.569,2592.5706,2594.069,0,32,32,32,1,0.6,0.4,0.4,0.6,,,,,,,,,,,,,,,0.6491,,0.2,0.8,0.2,0.8,0.8,0.2,0.2,0.8,,,0.555,,0.6,0.4,0.4,0.6,0.6,0.4,0.8,0.2,1,0
,,66ae89305bcacb3aa6a78bb8,66fc9800ebcc4d1939fb065e,2024-10-02_02h51.01.400,mdp,2024.2.1,Win32,60.24096386,66fa4ebf79326e780c390304,,,,,,,,,,,,,,,,,,,,,2594.0698,2594.0698,2594.0724,2595.0187,0,0,left,0.4181,,2595.0208,2595.9357,0,0,left,2595.9379,2597.2193,1,1,right,0,2597.2194,2597.2194,2597.2225,2598.719,0,33,33,33,1,0.6,0.4,0.4,0.6,,,,,,,,,,,,,,,0.3866,,0.2,0.8,0.2,0.8,0.8,0.2,0.2,0.8,,,0.7354,,0.6,0.4,0.4,0.6,0.6,0.4,0.8,0.2,1,0
,,66ae89305bcacb3aa6a78bb8,66fc9800ebcc4d1939fb065e,2024-10-02_02h51.01.400,mdp,2024.2.1,Win32,60.24096386,66fa4ebf79326e780c390304,,,,,,,,,,,,,,,,,,,,,2598.7198,2598.7198,2598.7217,2599.5358,0,0,left,0.2851,,2599.5378,2600.5527,0,0,left,2600.5548,2601.6021,0,1,left,0,2601.6021,2601.6021,2601.6045,2603.1023,0,34,34,34,1,0.6,0.4,0.4,0.6,,,,,,,,,,,,,,,0.4907,,0.2,0.8,0.2,0.8,0.8,0.2,0.2,0.8,,,0.5207,,0.6,0.4,0.4,0.6,0.6,0.4,0.8,0.2,1,0
,,66ae89305bcacb3aa6a78bb8,66fc9800ebcc4d1939fb065e,2024-10-02_02h51.01.400,mdp,2024.2.1,Win32,60.24096386,66fa4ebf79326e780c390304,,,,,,,,,,,,,,,,,,,,,2603.1031,2603.1031,2603.1057,2604.0026,0,0,left,0.3655,,2604.0057,2604.8856,1,1,right,2604.8875,2605.7691,0,1,left,0,2605.7691,2605.7691,2605.7709,2607.2693,0,35,35,35,1,0.6,0.4,0.4,0.6,,,,,,,,,,,,,,,0.3442,,0.2,0.8,0.2,0.8,0.8,0.2,0.2,0.8,,,0.3396,,0.6,0.4,0.4,0.6,0.6,0.4,0.8,0.2,1,0
,,66ae89305bcacb3aa6a78bb8,66fc9800ebcc4d1939fb065e,2024-10-02_02h51.01.400,mdp,2024.2.1,Win32,60.24096386,66fa4ebf79326e780c390304,,,,,,,,,,,,,,,,,,,,,2607.27,2607.27,2607.2724,2607.9522,0,0,left,0.1554,,2607.954,2608.8855,0,0,left,2608.8876,2609.8193,0,0,left,1,2609.8194,2609.8194,2609.8216,2611.3193,0,36,36,36,1,0.6,0.4,0.4,0.6,,,,,,,,,,,,,,,0.4018,,0.6,0.4,0.4,0.6,0.8,0.2,0.2,0.8,,,0.4016,,0.6,0.4,0.4,0.6,0.6,0.4,0.8,0.2,1,0
,,66ae89305bcacb3aa6a78bb8,66fc9800ebcc4d1939fb065e,2024-10-02_02h51.01.400,mdp,2024.2.1,Win32,60.24096386,66fa4ebf79326e780c390304,,,,,,,,,,,,,,,,,,,,,2611.3201,2611.3201,2611.3225,2612.1528,0,0,left,0.3005,,2612.1552,2613.3282,0,0,left,2613.3308,2616.0195,1,1,right,0,2616.0196,2616.0196,2616.0218,2617.5194,0,37,37,37,1,0.6,0.4,0.4,0.6,,,,,,,,,,,,,,,0.65,,0.6,0.4,0.4,0.6,0.8,0.2,0.2,0.8,,,2.1738,,0.6,0.4,0.4,0.6,0.6,0.4,0.8,0.2,1,0
,,66ae89305bcacb3aa6a78bb8,66fc9800ebcc4d1939fb065e,2024-10-02_02h51.01.400,mdp,2024.2.1,Win32,60.24096386,66fa4ebf79326e780c390304,,,,,,,,,,,,,,,,,,,,,2617.5201,2617.5201,2617.5223,2618.4617,0,1,left,0.4166,,2618.4642,2619.8964,1,1,right,2619.8988,2621.4198,0,0,left,1,2621.42,2621.42,2621.423,2622.9196,0,38,38,38,1,0.6,0.4,0.4,0.6,,,,,,,,,,,,,,,0.9012,,0.6,0.4,0.4,0.6,0.8,0.2,0.2,0.8,,,0.9851,,0.6,0.4,0.4,0.6,0.6,0.4,0.8,0.2,1,0
,,66ae89305bcacb3aa6a78bb8,66fc9800ebcc4d1939fb065e,2024-10-02_02h51.01.400,mdp,2024.2.1,Win32,60.24096386,66fa4ebf79326e780c390304,,,,,,,,,,,,,,,,,,,,,2622.9203,2622.9203,2622.9235,2623.7028,0,1,left,0.2517,,2623.705,2624.5801,1,0,right,2624.5824,2625.6692,0,1,left,0,2625.6693,2625.6693,2625.6708,2627.1792,0,39,39,39,1,0.6,0.4,0.4,0.6,,,,,,,,,,,,,,,0.3506,,0.6,0.4,0.4,0.6,0.8,0.2,0.2,0.8,,,0.5562,,0.6,0.4,0.4,0.6,0.6,0.4,0.8,0.2,1,0
,,66ae89305bcacb3aa6a78bb8,66fc9800ebcc4d1939fb065e,2024-10-02_02h51.01.400,mdp,2024.2.1,Win32,60.24096386,66fa4ebf79326e780c390304,,,,,,,,,,,,,,,,,,,,,2627.1805,2627.1806,2627.1832,2628.0533,0,1,left,0.3579,,2628.0554,2629.2526,1,1,right,2629.2548,2630.4727,0,1,left,0,2630.4729,2630.4729,2630.4744,2631.9695,0,40,40,40,1,0.6,0.4,0.4,0.6,,,,,,,,,,,,,,,0.671,,0.6,0.4,0.4,0.6,0.8,0.2,0.2,0.8,,,0.6792,,0.6,0.4,0.4,0.6,0.6,0.4,0.8,0.2,1,0
,,66ae89305bcacb3aa6a78bb8,66fc9800ebcc4d1939fb065e,2024-10-02_02h51.01.400,mdp,2024.2.1,Win32,60.24096386,66fa4ebf79326e780c390304,,,,,,,,,,,,,,,,,,,,,2631.9702,2631.9702,2631.9724,2632.7365,0,1,left,0.238,,2632.7382,2633.9032,1,1,right,2633.9059,2634.9697,1,0,right,1,2634.9699,2634.9699,2634.972,2636.47,0,41,41,41,1,0.6,0.4,0.4,0.6,,,,,,,,,,,,,,,0.6516,,0.6,0.4,0.4,0.6,0.8,0.2,0.2,0.8,,,0.5389,,0.6,0.4,0.4,0.6,0.6,0.4,0.8,0.2,1,0
,,66ae89305bcacb3aa6a78bb8,66fc9800ebcc4d1939fb065e,2024-10-02_02h51.01.400,mdp,2024.2.1,Win32,60.24096386,66fa4ebf79326e780c390304,,,,,,,,,,,,,,,,,,,,,2636.4709,2636.4709,2636.4735,2637.0201,0,1,left,0.0184,,2637.0231,2638.1866,1,0,right,2638.1888,2639.1364,1,1,right,0,2639.1366,2639.1366,2639.139,2640.6447,0,42,42,42,1,0.6,0.4,0.4,0.6,,,,,,,,,,,,,,,0.635,,0.6,0.4,0.4,0.6,0.8,0.2,0.2,0.8,,,0.411,,0.6,0.4,0.4,0.6,0.6,0.4,0.8,0.2,1,0
,,66ae89305bcacb3aa6a78bb8,66fc9800ebcc4d1939fb065e,2024-10-02_02h51.01.400,mdp,2024.2.1,Win32,60.24096386,66fa4ebf79326e780c390304,,,,,,,,,,,,,,,,,,,,,2640.6457,2640.6458,2640.6476,2641.2704,0,0,left,0.1014,,2641.2733,2642.2197,0,1,left,2642.2216,2643.3702,0,1,left,0,2643.3703,2643.3704,2643.3724,2644.8701,0,43,43,43,1,0.6,0.4,0.4,0.6,,,,,,,,,,,,,,,0.4085,,0.2,0.8,0.6,0.4,0.8,0.2,0.2,0.8,,,0.6196,,0.6,0.4,0.4,0.6,0.6,0.4,0.8,0.2,1,0
,,66ae89305bcacb3aa6a78bb8,66fc9800ebcc4d1939fb065e,2024-10-02_02h51.01.400,mdp,2024.2.1,Win32,60.24096386,66fa4ebf79326e780c390304,,,,,,,,,,,,,,,,,,,,,2644.871,2644.8711,2644.8736,2645.6704,0,1,left,0.2676,,2645.6737,2646.8366,1,0,right,2646.8386,2648.3902,0,1,left,0,2648.3903,2648.3904,2648.3922,2649.8864,0,44,44,44,1,0.6,0.4,0.4,0.6,,,,,,,,,,,,,,,0.622,,0.2,0.8,0.6,0.4,0.8,0.2,0.2,0.8,,,1.0302,,0.6,0.4,0.4,0.6,0.6,0.4,0.8,0.2,1,0
,,66ae89305bcacb3aa6a78bb8,66fc9800ebcc4d1939fb065e,2024-10-02_02h51.01.400,mdp,2024.2.1,Win32,60.24096386,66fa4ebf79326e780c390304,,,,,,,,,,,,,,,,,,,,,2649.8873,2649.8873,2649.8903,2650.8868,0,1,left,0.4564,,2650.8886,2652.1035,1,1,right,2652.1056,2653.0541,1,0,right,1,2653.0543,2653.0543,2653.0561,2654.5537,0,45,45,45,1,0.6,0.4,0.4,0.6,,,,,,,,,,,,,,,0.7045,,0.2,0.8,0.6,0.4,0.8,0.2,0.2,0.8,,,0.42,,0.6,0.4,0.4,0.6,0.6,0.4,0.8,0.2,1,0
,,66ae89305bcacb3aa6a78bb8,66fc9800ebcc4d1939fb065e,2024-10-02_02h51.01.400,mdp,2024.2.1,Win32,60.24096386,66fa4ebf79326e780c390304,,,,,,,,,,,,,,,,,,,,,2654.5544,2654.5544,2654.557,2655.0867,0,1,left,0.001,,2655.0887,2656.5035,1,1,right,2656.5057,2657.7033,0,0,left,1,2657.7033,2657.7033,2657.705,2659.2039,0,46,46,46,1,0.6,0.4,0.4,0.6,,,,,,,,,,,,,,,0.8998,,0.2,0.8,0.6,0.4,0.8,0.2,0.2,0.8,,,0.689,,0.6,0.4,0.4,0.6,0.6,0.4,0.8,0.2,1,0
,,66ae89305bcacb3aa6a78bb8,66fc9800ebcc4d1939fb065e,2024-10-02_02h51.01.400,mdp,2024.2.1,Win32,60.24096386,66fa4ebf79326e780c390304,,,,,,,,,,,,,,,,,,,,,2659.2047,2659.2047,2659.2074,2660.03,0,1,left,0.3017,,2660.0323,2661.2038,1,1,right,2661.2055,2662.4204,1,0,right,1,2662.4205,2662.4205,2662.4226,2663.9205,0,47,47,47,1,0.6,0.4,0.4,0.6,,,,,,,,,,,,,,,0.6533,,0.2,0.8,0.6,0.4,0.8,0.2,0.2,0.8,,,0.6873,,0.6,0.4,0.4,0.6,0.6,0.4,0.8,0.2,1,0
,,66ae89305bcacb3aa6a78bb8,66fc9800ebcc4d1939fb065e,2024-10-02_02h51.01.400,mdp,2024.2.1,Win32,60.24096386,66fa4ebf79326e780c390304,,,,,,,,,,,,,,,,,,,,,2663.9213,2663.9213,2663.9236,2664.5372,0,1,left,0.0731,,2664.5394,2665.9371,1,1,right,2665.9392,2667.904,1,1,right,0,2667.9041,2667.9041,2667.9069,2669.4133,0,48,48,48,1,0.6,0.4,0.4,0.6,,,,,,,,,,,,,,,0.8699,,0.2,0.8,0.6,0.4,0.8,0.2,0.2,0.8,,,1.4504,,0.6,0.4,0.4,0.6,0.6,0.4,0.8,0.2,1,0
,,66ae89305bcacb3aa6a78bb8,66fc9800ebcc4d1939fb065e,2024-10-02_02h51.01.400,mdp,2024.2.1,Win32,60.24096386,66fa4ebf79326e780c390304,,,,,,,,,,,,,,,,,,,,,2669.4143,2669.4143,2669.417,2670.5538,0,0,left,0.6214,,2670.5557,2671.7041,0,1,left,2671.7065,2675.7708,0,1,left,0,2675.7709,2675.771,2675.7729,2677.271,0,49,49,49,1,0.6,0.4,0.4,0.6,,,,,,,,,,,,,,,0.6197,,0.2,0.8,0.6,0.4,0.8,0.2,0.2,0.8,,,3.5374,,0.6,0.4,0.4,0.6,0.6,0.4,0.8,0.2,1,0
,,66ae89305bcacb3aa6a78bb8,66fc9800ebcc4d1939fb065e,2024-10-02_02h51.01.400,mdp,2024.2.1,Win32,60.24096386,66fa4ebf79326e780c390304,,,,,,,,,,,,,,,,,,,,,,,,,,,,,,,,,,,,,,,,,,,,,,,,,,,,,,,,2677.2717,2754.4192,0,3,3,4,1,imgs/bear.png,imgs/pig.png,imgs/cat.png,imgs/elephant.png,imgs/goat.png,,,,,,,,,,,,,,,,,,,,,,,,
,,66ae89305bcacb3aa6a78bb8,66fc9800ebcc4d1939fb065e,2024-10-02_02h51.01.400,mdp,2024.2.1,Win32,60.24096386,66fa4ebf79326e780c390304,,,,,,,,,,,,,,1,seqs/st1seq24.csv,2754.4422,2855.5414,space,100.5585,,2855.565,2855.565,2855.5661,2859.0914,0,0,left,2.9894,,2859.094,2859.0954,0,0,,2859.0965,2859.0974,0,0,,1,2859.0975,2859.0975,2859.0981,2860.5933,0,0,0,0,1,0.6,0.4,0.2,0.8,1,0,,,,,,,,,,,,,,,,,,,,,,,,,,,,,,,,,,,,
,,66ae89305bcacb3aa6a78bb8,66fc9800ebcc4d1939fb065e,2024-10-02_02h51.01.400,mdp,2024.2.1,Win32,60.24096386,66fa4ebf79326e780c390304,,,,,,,,,,,,,,,,,,,,,2860.5941,2860.5941,2860.5959,2861.8247,0,1,left,0.7078,,2861.8265,2861.828,0,0,,2861.8291,2861.8299,0,1,,0,2861.8299,2861.8299,2861.8307,2863.3248,0,1,1,1,1,0.2,0.8,0.8,0.2,1,0,,,,,,,,,,,,,,,,,,,,,,,,,,,,,,,,,,,,
,,66ae89305bcacb3aa6a78bb8,66fc9800ebcc4d1939fb065e,2024-10-02_02h51.01.400,mdp,2024.2.1,Win32,60.24096386,66fa4ebf79326e780c390304,,,,,,,,,,,,,,,,,,,,,2863.3256,2863.3256,2863.3288,2864.4249,0,1,left,0.5721,,2864.4271,2864.4287,0,1,,2864.4301,2864.4313,0,0,,0,2864.4313,2864.4313,2864.4324,2865.9329,0,2,2,2,1,0.2,0.8,0.8,0.2,1,0,,,,,,,,,,,,,,,,,,,,,,,,,,,,,,,,,,,,
,,66ae89305bcacb3aa6a78bb8,66fc9800ebcc4d1939fb065e,2024-10-02_02h51.01.400,mdp,2024.2.1,Win32,60.24096386,66fa4ebf79326e780c390304,,,,,,,,,,,,,,,,,,,,,2865.9338,2865.9338,2865.9363,2867.0918,1,0,right,0.635,,2867.095,2867.0965,0,0,,2867.0978,2867.0987,0,0,,1,2867.0988,2867.0988,2867.0998,2868.5918,0,3,3,3,1,0.2,0.8,0.8,0.2,1,0,,,,,,,,,,,,,,,,,,,,,,,,,,,,,,,,,,,,
,,66ae89305bcacb3aa6a78bb8,66fc9800ebcc4d1939fb065e,2024-10-02_02h51.01.400,mdp,2024.2.1,Win32,60.24096386,66fa4ebf79326e780c390304,,,,,,,,,,,,,,,,,,,,,2868.5924,2868.5925,2868.5949,2869.6753,1,0,right,0.5507,,2869.6781,2869.6795,0,0,,2869.6808,2869.6816,0,0,,1,2869.6816,2869.6817,2869.6824,2871.1749,0,4,4,4,1,0.2,0.8,0.8,0.2,1,0,,,,,,,,,,,,,,,,,,,,,,,,,,,,,,,,,,,,
,,66ae89305bcacb3aa6a78bb8,66fc9800ebcc4d1939fb065e,2024-10-02_02h51.01.400,mdp,2024.2.1,Win32,60.24096386,66fa4ebf79326e780c390304,,,,,,,,,,,,,,,,,,,,,2871.1754,2871.1754,2871.1777,2872.3251,1,0,right,0.6147,,2872.3271,2872.3286,0,0,,2872.3299,2872.3308,0,0,,1,2872.3309,2872.3309,2872.3318,2873.8253,0,5,5,5,1,0.2,0.8,0.8,0.2,1,0,,,,,,,,,,,,,,,,,,,,,,,,,,,,,,,,,,,,
,,66ae89305bcacb3aa6a78bb8,66fc9800ebcc4d1939fb065e,2024-10-02_02h51.01.400,mdp,2024.2.1,Win32,60.24096386,66fa4ebf79326e780c390304,,,,,,,,,,,,,,,,,,,,,2873.8259,2873.8259,2873.8282,2874.9109,1,0,right,0.5598,,2874.9128,2874.9141,0,0,,2874.9153,2874.9163,0,0,,1,2874.9163,2874.9163,2874.9171,2876.4084,0,6,6,6,1,0.2,0.8,0.8,0.2,1,0,,,,,,,,,,,,,,,,,,,,,,,,,,,,,,,,,,,,
,,66ae89305bcacb3aa6a78bb8,66fc9800ebcc4d1939fb065e,2024-10-02_02h51.01.400,mdp,2024.2.1,Win32,60.24096386,66fa4ebf79326e780c390304,,,,,,,,,,,,,,,,,,,,,2876.409,2876.409,2876.4111,2877.4423,1,1,right,0.5019,,2877.4452,2877.447,0,1,,2877.4486,2877.45,0,0,,0,2877.45,2877.4501,2877.4513,2878.9417,0,7,7,7,1,0.6,0.4,0.4,0.6,1,0,,,,,,,,,,,,,,,,,,,,,,,,,,,,,,,,,,,,
,,66ae89305bcacb3aa6a78bb8,66fc9800ebcc4d1939fb065e,2024-10-02_02h51.01.400,mdp,2024.2.1,Win32,60.24096386,66fa4ebf79326e780c390304,,,,,,,,,,,,,,,,,,,,,2878.9423,2878.9423,2878.9443,2879.9256,1,1,right,0.4518,,2879.9291,2879.9309,0,0,,2879.9328,2879.9341,0,1,,0,2879.9341,2879.9341,2879.9351,2881.4269,0,8,8,8,1,0.6,0.4,0.4,0.6,1,0,,,,,,,,,,,,,,,,,,,,,,,,,,,,,,,,,,,,
,,66ae89305bcacb3aa6a78bb8,66fc9800ebcc4d1939fb065e,2024-10-02_02h51.01.400,mdp,2024.2.1,Win32,60.24096386,66fa4ebf79326e780c390304,,,,,,,,,,,,,,,,,,,,,2881.4278,2881.4278,2881.4301,2882.361,0,1,left,0.4192,,2882.3631,2882.3644,0,0,,2882.3657,2882.3666,0,0,,0,2882.3666,2882.3666,2882.3674,2883.8684,0,9,9,9,1,0.6,0.4,0.4,0.6,1,0,,,,,,,,,,,,,,,,,,,,,,,,,,,,,,,,,,,,
,,66ae89305bcacb3aa6a78bb8,66fc9800ebcc4d1939fb065e,2024-10-02_02h51.01.400,mdp,2024.2.1,Win32,60.24096386,66fa4ebf79326e780c390304,,,,,,,,,,,,,,,,,,,,,2883.8695,2883.8695,2883.8716,2884.8418,0,0,left,0.4407,,2884.8438,2884.8452,0,0,,2884.8465,2884.8475,0,0,,1,2884.8476,2884.8476,2884.8484,2886.3422,0,10,10,10,1,0.6,0.4,0.4,0.6,1,0,,,,,,,,,,,,,,,,,,,,,,,,,,,,,,,,,,,,
,,66ae89305bcacb3aa6a78bb8,66fc9800ebcc4d1939fb065e,2024-10-02_02h51.01.400,mdp,2024.2.1,Win32,60.24096386,66fa4ebf79326e780c390304,,,,,,,,,,,,,,,,,,,,,2886.3428,2886.3429,2886.3454,2887.1428,0,0,left,0.2679,,2887.1454,2887.1467,0,0,,2887.1479,2887.1487,0,1,,1,2887.1488,2887.1488,2887.1496,2888.642,0,11,11,11,1,0.6,0.4,0.4,0.6,1,0,,,,,,,,,,,,,,,,,,,,,,,,,,,,,,,,,,,,
,,66ae89305bcacb3aa6a78bb8,66fc9800ebcc4d1939fb065e,2024-10-02_02h51.01.400,mdp,2024.2.1,Win32,60.24096386,66fa4ebf79326e780c390304,,,,,,,,,,,,,,,,,,,,,2888.6425,2888.6425,2888.6446,2889.2257,0,1,left,0.0521,,2889.228,2889.2296,0,1,,2889.2309,2889.2317,0,1,,0,2889.2318,2889.2318,2889.2326,2890.7257,0,12,12,12,1,0.6,0.4,0.4,0.6,1,0,,,,,,,,,,,,,,,,,,,,,,,,,,,,,,,,,,,,
,,66ae89305bcacb3aa6a78bb8,66fc9800ebcc4d1939fb065e,2024-10-02_02h51.01.400,mdp,2024.2.1,Win32,60.24096386,66fa4ebf79326e780c390304,,,,,,,,,,,,,,,,,,,,,2890.7265,2890.7265,2890.7289,2891.6437,1,0,right,0.3924,,2891.6454,2891.6465,0,0,,2891.6475,2891.6483,0,1,,1,2891.6484,2891.6484,2891.6492,2893.1424,0,13,13,13,1,0.6,0.4,0.4,0.6,1,0,,,,,,,,,,,,,,,,,,,,,,,,,,,,,,,,,,,,
,,66ae89305bcacb3aa6a78bb8,66fc9800ebcc4d1939fb065e,2024-10-02_02h51.01.400,mdp,2024.2.1,Win32,60.24096386,66fa4ebf79326e780c390304,,,,,,,,,,,,,,,,,,,,,2893.143,2893.143,2893.1454,2893.7287,1,0,right,0.0622,,2893.73,2893.7308,0,0,,2893.7318,2893.7327,0,1,,1,2893.7327,2893.7327,2893.7335,2895.2258,0,14,14,14,1,0.6,0.4,0.4,0.6,1,0,,,,,,,,,,,,,,,,,,,,,,,,,,,,,,,,,,,,
,,66ae89305bcacb3aa6a78bb8,66fc9800ebcc4d1939fb065e,2024-10-02_02h51.01.400,mdp,2024.2.1,Win32,60.24096386,66fa4ebf79326e780c390304,,,,,,,,,,,,,,,,,,,,,2895.2265,2895.2265,2895.2288,2896.2926,1,1,right,0.5349,,2896.295,2896.297,0,1,,2896.2985,2896.2994,0,1,,0,2896.2995,2896.2995,2896.3006,2897.8021,0,15,15,15,1,0.6,0.4,0.4,0.6,1,0,,,,,,,,,,,,,,,,,,,,,,,,,,,,,,,,,,,,
,,66ae89305bcacb3aa6a78bb8,66fc9800ebcc4d1939fb065e,2024-10-02_02h51.01.400,mdp,2024.2.1,Win32,60.24096386,66fa4ebf79326e780c390304,,,,,,,,,,,,,,,,,,,,,2897.803,2897.803,2897.805,2898.4186,1,1,right,0.0857,,2898.4215,2898.4226,0,1,,2898.4239,2898.4255,0,1,,0,2898.4256,2898.4256,2898.4265,2899.9258,0,16,16,16,1,0.6,0.4,0.4,0.6,1,0,,,,,,,,,,,,,,,,,,,,,,,,,,,,,,,,,,,,
,,66ae89305bcacb3aa6a78bb8,66fc9800ebcc4d1939fb065e,2024-10-02_02h51.01.400,mdp,2024.2.1,Win32,60.24096386,66fa4ebf79326e780c390304,,,,,,,,,,,,,,,,,,,,,2899.9264,2899.9264,2899.9289,2901.0095,1,1,right,0.5506,,2901.0119,2901.0136,0,1,,2901.0149,2901.0159,0,0,,0,2901.0159,2901.0159,2901.0167,2902.5089,0,17,17,17,1,0.6,0.4,0.4,0.6,1,0,,,,,,,,,,,,,,,,,,,,,,,,,,,,,,,,,,,,
,,66ae89305bcacb3aa6a78bb8,66fc9800ebcc4d1939fb065e,2024-10-02_02h51.01.400,mdp,2024.2.1,Win32,60.24096386,66fa4ebf79326e780c390304,,,,,,,,,,,,,,,,,,,,,2902.5095,2902.5095,2902.5113,2903.3328,0,1,left,0.2979,,2903.3346,2903.3355,0,1,,2903.3365,2903.3373,0,0,,0,2903.3374,2903.3374,2903.3381,2904.8253,0,18,18,18,1,0.6,0.4,0.4,0.6,1,0,,,,,,,,,,,,,,,,,,,,,,,,,,,,,,,,,,,,
,,66ae89305bcacb3aa6a78bb8,66fc9800ebcc4d1939fb065e,2024-10-02_02h51.01.400,mdp,2024.2.1,Win32,60.24096386,66fa4ebf79326e780c390304,,,,,,,,,,,,,,,,,,,,,2904.8259,2904.8259,2904.8275,2905.5429,1,1,right,0.1849,,2905.5458,2905.5475,0,0,,2905.549,2905.5501,0,0,,0,2905.5501,2905.5501,2905.5511,2907.0423,0,19,19,19,1,0.2,0.8,0.6,0.4,1,0,,,,,,,,,,,,,,,,,,,,,,,,,,,,,,,,,,,,
,,66ae89305bcacb3aa6a78bb8,66fc9800ebcc4d1939fb065e,2024-10-02_02h51.01.400,mdp,2024.2.1,Win32,60.24096386,66fa4ebf79326e780c390304,,,,,,,,,,,,,,,,,,,,,2907.0429,2907.0429,2907.0449,2907.5933,0,0,left,0.0181,,2907.5971,2907.5986,0,0,,2907.6003,2907.6014,0,1,,1,2907.6015,2907.6015,2907.6024,2909.0927,0,20,20,20,1,0.2,0.8,0.6,0.4,1,0,,,,,,,,,,,,,,,,,,,,,,,,,,,,,,,,,,,,
,,66ae89305bcacb3aa6a78bb8,66fc9800ebcc4d1939fb065e,2024-10-02_02h51.01.400,mdp,2024.2.1,Win32,60.24096386,66fa4ebf79326e780c390304,,,,,,,,,,,,,,,,,,,,,2909.0932,2909.0932,2909.0958,2910.0094,0,1,left,0.3862,,2910.0116,2910.0133,0,0,,2910.0148,2910.0158,0,1,,0,2910.0159,2910.0159,2910.0169,2911.5107,0,21,21,21,1,0.2,0.8,0.6,0.4,1,0,,,,,,,,,,,,,,,,,,,,,,,,,,,,,,,,,,,,
,,66ae89305bcacb3aa6a78bb8,66fc9800ebcc4d1939fb065e,2024-10-02_02h51.01.400,mdp,2024.2.1,Win32,60.24096386,66fa4ebf79326e780c390304,,,,,,,,,,,,,,,,,,,,,2911.5117,2911.5117,2911.5139,2912.4591,1,0,right,0.406,,2912.4617,2912.463,0,1,,2912.4643,2912.4654,0,0,,1,2912.4654,2912.4654,2912.4665,2913.9592,0,22,22,22,1,0.2,0.8,0.6,0.4,1,0,,,,,,,,,,,,,,,,,,,,,,,,,,,,,,,,,,,,
,,66ae89305bcacb3aa6a78bb8,66fc9800ebcc4d1939fb065e,2024-10-02_02h51.01.400,mdp,2024.2.1,Win32,60.24096386,66fa4ebf79326e780c390304,,,,,,,,,,,,,,,,,,,,,2913.9599,2913.9599,2913.9616,2914.8427,1,0,right,0.3565,,2914.8446,2914.8463,0,0,,2914.8475,2914.8488,0,0,,1,2914.8489,2914.8489,2914.8498,2916.3428,0,23,23,23,1,0.2,0.8,0.6,0.4,1,0,,,,,,,,,,,,,,,,,,,,,,,,,,,,,,,,,,,,
,,66ae89305bcacb3aa6a78bb8,66fc9800ebcc4d1939fb065e,2024-10-02_02h51.01.400,mdp,2024.2.1,Win32,60.24096386,66fa4ebf79326e780c390304,,,,,,,,,,,,,,,,,,,,,2916.3434,2916.3434,2916.3455,2917.1525,1,0,right,0.2826,,2917.155,2917.156,0,1,,2917.1571,2917.1579,0,1,,1,2917.1579,2917.1579,2917.159,2918.6592,0,24,24,24,1,0.8,0.2,0.2,0.8,1,0,,,,,,,,,,,,,,,,,,,,,,,,,,,,,,,,,,,,
,,66ae89305bcacb3aa6a78bb8,66fc9800ebcc4d1939fb065e,2024-10-02_02h51.01.400,mdp,2024.2.1,Win32,60.24096386,66fa4ebf79326e780c390304,,,,,,,,,,,,,,,,,,,,,2918.66,2918.6601,2918.6629,2919.5098,1,1,right,0.3184,,2919.512,2919.5136,0,1,,2919.5152,2919.5161,0,1,,0,2919.5162,2919.5162,2919.5172,2921.0096,0,25,25,25,1,0.8,0.2,0.2,0.8,1,0,,,,,,,,,,,,,,,,,,,,,,,,,,,,,,,,,,,,
,,66ae89305bcacb3aa6a78bb8,66fc9800ebcc4d1939fb065e,2024-10-02_02h51.01.400,mdp,2024.2.1,Win32,60.24096386,66fa4ebf79326e780c390304,,,,,,,,,,,,,,,,,,,,,2921.0104,2921.0104,2921.0137,2922.0603,0,1,left,0.5247,,2922.0625,2922.0638,0,0,,2922.0653,2922.0663,0,0,,0,2922.0663,2922.0663,2922.0672,2923.5597,0,26,26,26,1,0.8,0.2,0.2,0.8,1,0,,,,,,,,,,,,,,,,,,,,,,,,,,,,,,,,,,,,
,,66ae89305bcacb3aa6a78bb8,66fc9800ebcc4d1939fb065e,2024-10-02_02h51.01.400,mdp,2024.2.1,Win32,60.24096386,66fa4ebf79326e780c390304,,,,,,,,,,,,,,,,,,,,,2923.5604,2923.5604,2923.5632,2924.1825,0,1,left,0.0971,,2924.1847,2924.1856,0,0,,2924.1867,2924.1874,0,0,,0,2924.1874,2924.1875,2924.1882,2925.6762,0,27,27,27,1,0.8,0.2,0.2,0.8,1,0,,,,,,,,,,,,,,,,,,,,,,,,,,,,,,,,,,,,
,,66ae89305bcacb3aa6a78bb8,66fc9800ebcc4d1939fb065e,2024-10-02_02h51.01.400,mdp,2024.2.1,Win32,60.24096386,66fa4ebf79326e780c390304,,,,,,,,,,,,,,,,,,,,,2925.6767,2925.6767,2925.6791,2926.6764,0,0,left,0.4571,,2926.6784,2926.6799,0,0,,2926.6812,2926.6823,0,0,,1,2926.6823,2926.6823,2926.6832,2928.1765,0,28,28,28,1,0.8,0.2,0.2,0.8,1,0,,,,,,,,,,,,,,,,,,,,,,,,,,,,,,,,,,,,
,,66ae89305bcacb3aa6a78bb8,66fc9800ebcc4d1939fb065e,2024-10-02_02h51.01.400,mdp,2024.2.1,Win32,60.24096386,66fa4ebf79326e780c390304,,,,,,,,,,,,,,,,,,,,,2928.1772,2928.1772,2928.1802,2928.8274,0,0,left,0.1252,,2928.8294,2928.8308,0,1,,2928.8324,2928.8341,0,0,,1,2928.8341,2928.8342,2928.8351,2930.3266,0,29,29,29,1,0.8,0.2,0.2,0.8,1,0,,,,,,,,,,,,,,,,,,,,,,,,,,,,,,,,,,,,
,,66ae89305bcacb3aa6a78bb8,66fc9800ebcc4d1939fb065e,2024-10-02_02h51.01.400,mdp,2024.2.1,Win32,60.24096386,66fa4ebf79326e780c390304,,,,,,,,,,,,,,,,,,,,,2930.3271,2930.3271,2930.3296,2931.1268,0,0,left,0.2703,,2931.1288,2931.1303,0,0,,2931.1315,2931.1323,0,1,,1,2931.1323,2931.1323,2931.1331,2932.6262,0,30,30,30,1,0.8,0.2,0.2,0.8,1,0,,,,,,,,,,,,,,,,,,,,,,,,,,,,,,,,,,,,
,,66ae89305bcacb3aa6a78bb8,66fc9800ebcc4d1939fb065e,2024-10-02_02h51.01.400,mdp,2024.2.1,Win32,60.24096386,66fa4ebf79326e780c390304,,,,,,,,,,,,,,,,,,,,,2932.627,2932.627,2932.6285,2933.5763,1,1,right,0.4221,,2933.578,2933.5793,0,1,,2933.5805,2933.5813,0,1,,0,2933.5814,2933.5814,2933.5821,2935.0779,0,31,31,31,1,0.8,0.2,0.2,0.8,1,0,,,,,,,,,,,,,,,,,,,,,,,,,,,,,,,,,,,,
,,66ae89305bcacb3aa6a78bb8,66fc9800ebcc4d1939fb065e,2024-10-02_02h51.01.400,mdp,2024.2.1,Win32,60.24096386,66fa4ebf79326e780c390304,,,,,,,,,,,,,,,,,,,,,2935.0788,2935.0788,2935.081,2935.6271,0,0,left,0.0246,,2935.6288,2935.6302,0,0,,2935.6313,2935.6322,0,0,,1,2935.6322,2935.6322,2935.633,2937.1265,0,32,32,32,1,0.8,0.2,0.2,0.8,1,0,,,,,,,,,,,,,,,,,,,,,,,,,,,,,,,,,,,,
,,66ae89305bcacb3aa6a78bb8,66fc9800ebcc4d1939fb065e,2024-10-02_02h51.01.400,mdp,2024.2.1,Win32,60.24096386,66fa4ebf79326e780c390304,,,,,,,,,,,,,,,,,,,,,2937.1272,2937.1272,2937.1295,2937.7432,0,1,left,0.0855,,2937.7455,2937.7473,0,1,,2937.7487,2937.7497,0,0,,0,2937.7498,2937.7498,2937.751,2939.2429,0,33,33,33,1,0.4,0.6,0.6,0.4,1,0,,,,,,,,,,,,,,,,,,,,,,,,,,,,,,,,,,,,
,,66ae89305bcacb3aa6a78bb8,66fc9800ebcc4d1939fb065e,2024-10-02_02h51.01.400,mdp,2024.2.1,Win32,60.24096386,66fa4ebf79326e780c390304,,,,,,,,,,,,,,,,,,,,,2939.2435,2939.2435,2939.2459,2940.3522,1,0,right,0.5836,,2940.3544,2940.3554,0,1,,2940.3565,2940.3574,0,1,,1,2940.3574,2940.3574,2940.3583,2941.852,0,34,34,34,1,0.4,0.6,0.6,0.4,1,0,,,,,,,,,,,,,,,,,,,,,,,,,,,,,,,,,,,,
,,66ae89305bcacb3aa6a78bb8,66fc9800ebcc4d1939fb065e,2024-10-02_02h51.01.400,mdp,2024.2.1,Win32,60.24096386,66fa4ebf79326e780c390304,,,,,,,,,,,,,,,,,,,,,2941.8532,2941.8532,2941.8549,2942.6868,1,0,right,0.3012,,2942.6884,2942.6894,0,0,,2942.6905,2942.6912,0,0,,1,2942.6912,2942.6912,2942.6919,2944.1937,0,35,35,35,1,0.4,0.6,0.6,0.4,1,0,,,,,,,,,,,,,,,,,,,,,,,,,,,,,,,,,,,,
