init_exp.started,init_exp.stopped,participant,session,date,expName,psychopyVersion,OS,frameRate,study_id,disp_instruction.started,disp_instruction.stopped,instruction.thisRepN,instruction.thisTrialN,instruction.thisN,instruction.thisIndex,instruction.ran,instimg_path,consent.started,consent.stopped,key_resp_3.keys,key_resp_3.rt,key_resp_3.duration,n_steps,sequence_path,init_block.started,init_block.stopped,key_resp.keys,key_resp.rt,key_resp.duration,init_trials.started,init_trials.stopped,step0.started,step0.stopped,act0,s1,res0.keys,res0.rt,res0.duration,step1.started,step1.stopped,act1,s2,res1.keys,step2.started,step2.stopped,act2,s3,res2.keys,rew,reward_comp.started,reward_comp.stopped,reward_disp.started,reward_disp.stopped,trials.thisRepN,trials.thisTrialN,trials.thisN,trials.thisIndex,trials.ran,s00a0s10,s00a0s11,s00a1s10,s00a1s11,rew10,rew11,break_block.started,break_block.stopped,block.thisRepN,block.thisTrialN,block.thisN,block.thisIndex,block.ran,s00path,s10path,s11path,s20path,s21path,res1.rt,res1.duration,s10a0s20,s10a0s21,s10a1s20,s10a1s21,s11a0s20,s11a0s21,s11a1s20,s11a1s21,rew20,rew21,res2.rt,res2.duration,s20a0s30,s20a0s31,s20a1s30,s20a1s31,s21a0s30,s21a0s31,s21a1s30,s21a1s31,rew30,rew31
0,0.0015,66b616b0db06f7953a7c1e1f,66fc9a3f14d92721204982a3,2024-10-02_03h02.03.631,mdp,2024.2.1,Win32,59.88023952,66fa4ebf79326e780c390304,,,,,,,,,,,,,,,,,,,,,,,,,,,,,,,,,,,,,,,,,,,,,,,,,,,,,,,,,,,,,,,,,,,,,,,,,,,,,,,,,,,,,,,,,,,
,,66b616b0db06f7953a7c1e1f,66fc9a3f14d92721204982a3,2024-10-02_03h02.03.631,mdp,2024.2.1,Win32,59.88023952,66fa4ebf79326e780c390304,0.0037,26.3887,0,0,0,0,1,rlnn_exp/rlnn_exp.001.png,,,,,,,,,,,,,,,,,,,,,,,,,,,,,,,,,,,,,,,,,,,,,,,,,,,,,,,,,,,,,,,,,,,,,,,,,,,,,,,,,,,
,,66b616b0db06f7953a7c1e1f,66fc9a3f14d92721204982a3,2024-10-02_03h02.03.631,mdp,2024.2.1,Win32,59.88023952,66fa4ebf79326e780c390304,26.4309,36.9102,0,1,1,1,1,rlnn_exp/rlnn_exp.002.png,,,,,,,,,,,,,,,,,,,,,,,,,,,,,,,,,,,,,,,,,,,,,,,,,,,,,,,,,,,,,,,,,,,,,,,,,,,,,,,,,,,
,,66b616b0db06f7953a7c1e1f,66fc9a3f14d92721204982a3,2024-10-02_03h02.03.631,mdp,2024.2.1,Win32,59.88023952,66fa4ebf79326e780c390304,36.9376,47.7295,0,2,2,2,1,rlnn_exp/rlnn_exp.003.png,,,,,,,,,,,,,,,,,,,,,,,,,,,,,,,,,,,,,,,,,,,,,,,,,,,,,,,,,,,,,,,,,,,,,,,,,,,,,,,,,,,
,,66b616b0db06f7953a7c1e1f,66fc9a3f14d92721204982a3,2024-10-02_03h02.03.631,mdp,2024.2.1,Win32,59.88023952,66fa4ebf79326e780c390304,47.7661,59.1252,0,3,3,3,1,rlnn_exp/rlnn_exp.004.png,,,,,,,,,,,,,,,,,,,,,,,,,,,,,,,,,,,,,,,,,,,,,,,,,,,,,,,,,,,,,,,,,,,,,,,,,,,,,,,,,,,
,,66b616b0db06f7953a7c1e1f,66fc9a3f14d92721204982a3,2024-10-02_03h02.03.631,mdp,2024.2.1,Win32,59.88023952,66fa4ebf79326e780c390304,,,,,,,,,59.1256,71.9297,y,2.7631,,,,,,,,,,,,,,,,,,,,,,,,,,,,,,,,,,,,,,,,,,,,,,,,,,,,,,,,,,,,,,,,,,,,,,,,,,,,,,,
,,66b616b0db06f7953a7c1e1f,66fc9a3f14d92721204982a3,2024-10-02_03h02.03.631,mdp,2024.2.1,Win32,59.88023952,66fa4ebf79326e780c390304,,,,,,,,,,,,,,1,seqs/st1seq41.csv,71.9522,76.6866,space,4.206,,76.7025,76.7025,76.7028,79.7117,0,1,left,2.469,,79.7136,79.719,,1,,79.721,79.7251,,1,,0,79.7256,79.726,79.7274,81.2189,0,0,0,0,1,0.2,0.8,0.8,0.2,1,0,,,,,,,,,,,,,,,,,,,,,,,,,,,,,,,,,,,,
,,66b616b0db06f7953a7c1e1f,66fc9a3f14d92721204982a3,2024-10-02_03h02.03.631,mdp,2024.2.1,Win32,59.88023952,66fa4ebf79326e780c390304,,,,,,,,,,,,,,,,,,,,,81.2199,81.2199,81.2212,82.6083,0,1,left,0.8699,,82.6126,82.6146,,0,,82.6175,82.6197,,1,,0,82.6198,82.6199,82.6219,84.1178,0,1,1,1,1,0.2,0.8,0.8,0.2,1,0,,,,,,,,,,,,,,,,,,,,,,,,,,,,,,,,,,,,
,,66b616b0db06f7953a7c1e1f,66fc9a3f14d92721204982a3,2024-10-02_03h02.03.631,mdp,2024.2.1,Win32,59.88023952,66fa4ebf79326e780c390304,,,,,,,,,,,,,,,,,,,,,84.1192,84.1193,84.1224,84.8029,1,1,right,0.1555,,84.807,84.809,,0,,84.8114,84.8138,,1,,0,84.8139,84.8139,84.8163,86.303,0,2,2,2,1,0.6,0.4,0.2,0.8,1,0,,,,,,,,,,,,,,,,,,,,,,,,,,,,,,,,,,,,
,,66b616b0db06f7953a7c1e1f,66fc9a3f14d92721204982a3,2024-10-02_03h02.03.631,mdp,2024.2.1,Win32,59.88023952,66fa4ebf79326e780c390304,,,,,,,,,,,,,,,,,,,,,86.3049,86.3049,86.3089,86.8516,0,1,left,0.0195,,86.8556,86.8577,,1,,86.8601,86.8619,,0,,0,86.8621,86.8621,86.8644,88.3671,0,3,3,3,1,0.6,0.4,0.2,0.8,1,0,,,,,,,,,,,,,,,,,,,,,,,,,,,,,,,,,,,,
,,66b616b0db06f7953a7c1e1f,66fc9a3f14d92721204982a3,2024-10-02_03h02.03.631,mdp,2024.2.1,Win32,59.88023952,66fa4ebf79326e780c390304,,,,,,,,,,,,,,,,,,,,,88.369,88.3691,88.372,89.0513,1,1,right,0.1548,,89.055,89.0568,,1,,89.0588,89.0604,,1,,0,89.0605,89.0606,89.0636,90.5454,0,4,4,4,1,0.6,0.4,0.2,0.8,1,0,,,,,,,,,,,,,,,,,,,,,,,,,,,,,,,,,,,,
,,66b616b0db06f7953a7c1e1f,66fc9a3f14d92721204982a3,2024-10-02_03h02.03.631,mdp,2024.2.1,Win32,59.88023952,66fa4ebf79326e780c390304,,,,,,,,,,,,,,,,,,,,,90.5472,90.5472,90.5513,92.3335,1,1,right,1.2504,,92.3376,92.3397,,1,,92.343,92.346,,1,,0,92.3461,92.3462,92.3479,93.8432,0,5,5,5,1,0.6,0.4,0.2,0.8,1,0,,,,,,,,,,,,,,,,,,,,,,,,,,,,,,,,,,,,
,,66b616b0db06f7953a7c1e1f,66fc9a3f14d92721204982a3,2024-10-02_03h02.03.631,mdp,2024.2.1,Win32,59.88023952,66fa4ebf79326e780c390304,,,,,,,,,,,,,,,,,,,,,93.8453,93.8454,93.8493,94.7541,0,0,left,0.3834,,94.7557,94.7572,,1,,94.7587,94.7597,,0,,1,94.7598,94.7598,94.7606,96.2565,0,6,6,6,1,0.8,0.2,0.6,0.4,1,0,,,,,,,,,,,,,,,,,,,,,,,,,,,,,,,,,,,,
,,66b616b0db06f7953a7c1e1f,66fc9a3f14d92721204982a3,2024-10-02_03h02.03.631,mdp,2024.2.1,Win32,59.88023952,66fa4ebf79326e780c390304,,,,,,,,,,,,,,,,,,,,,96.2586,96.2587,96.2622,96.8422,0,0,left,0.0633,,96.8459,96.8477,,0,,96.8497,96.8512,,0,,1,96.8514,96.8514,96.8531,98.3392,0,7,7,7,1,0.8,0.2,0.6,0.4,1,0,,,,,,,,,,,,,,,,,,,,,,,,,,,,,,,,,,,,
,,66b616b0db06f7953a7c1e1f,66fc9a3f14d92721204982a3,2024-10-02_03h02.03.631,mdp,2024.2.1,Win32,59.88023952,66fa4ebf79326e780c390304,,,,,,,,,,,,,,,,,,,,,98.341,98.3414,98.3446,100.0565,0,0,left,1.1887,,100.0603,100.0627,,0,,100.0648,100.0667,,0,,1,100.0668,100.0669,100.0701,101.5678,0,8,8,8,1,0.8,0.2,0.6,0.4,1,0,,,,,,,,,,,,,,,,,,,,,,,,,,,,,,,,,,,,
,,66b616b0db06f7953a7c1e1f,66fc9a3f14d92721204982a3,2024-10-02_03h02.03.631,mdp,2024.2.1,Win32,59.88023952,66fa4ebf79326e780c390304,,,,,,,,,,,,,,,,,,,,,101.5694,101.5695,101.572,102.1902,0,0,left,0.1003,,102.1938,102.1958,,0,,102.1981,102.2007,,0,,1,102.2009,102.201,102.2035,103.6853,0,9,9,9,1,0.8,0.2,0.6,0.4,1,0,,,,,,,,,,,,,,,,,,,,,,,,,,,,,,,,,,,,
,,66b616b0db06f7953a7c1e1f,66fc9a3f14d92721204982a3,2024-10-02_03h02.03.631,mdp,2024.2.1,Win32,59.88023952,66fa4ebf79326e780c390304,,,,,,,,,,,,,,,,,,,,,103.6872,103.6872,103.6902,104.5534,0,0,left,0.3354,,104.5559,104.5578,,0,,104.5598,104.5622,,0,,1,104.5623,104.5623,104.5642,106.0524,0,10,10,10,1,0.8,0.2,0.6,0.4,1,0,,,,,,,,,,,,,,,,,,,,,,,,,,,,,,,,,,,,
,,66b616b0db06f7953a7c1e1f,66fc9a3f14d92721204982a3,2024-10-02_03h02.03.631,mdp,2024.2.1,Win32,59.88023952,66fa4ebf79326e780c390304,,,,,,,,,,,,,,,,,,,,,106.0534,106.0534,106.0546,107.4568,0,0,left,0.8756,,107.4606,107.4633,,1,,107.4655,107.4675,,0,,1,107.4676,107.4676,107.4695,108.9631,0,11,11,11,1,0.8,0.2,0.6,0.4,1,0,,,,,,,,,,,,,,,,,,,,,,,,,,,,,,,,,,,,
,,66b616b0db06f7953a7c1e1f,66fc9a3f14d92721204982a3,2024-10-02_03h02.03.631,mdp,2024.2.1,Win32,59.88023952,66fa4ebf79326e780c390304,,,,,,,,,,,,,,,,,,,,,108.9649,108.9649,108.9679,111.1647,0,0,left,1.673,,111.1687,111.1709,,0,,111.173,111.1746,,0,,1,111.1748,111.1748,111.1772,112.6734,0,12,12,12,1,0.8,0.2,0.6,0.4,1,0,,,,,,,,,,,,,,,,,,,,,,,,,,,,,,,,,,,,
,,66b616b0db06f7953a7c1e1f,66fc9a3f14d92721204982a3,2024-10-02_03h02.03.631,mdp,2024.2.1,Win32,59.88023952,66fa4ebf79326e780c390304,,,,,,,,,,,,,,,,,,,,,112.6762,112.6762,112.6789,114.6711,0,0,left,1.4647,,114.6752,114.6769,,0,,114.6787,114.6805,,0,,1,114.6807,114.6807,114.6824,116.1727,0,13,13,13,1,0.8,0.2,0.6,0.4,1,0,,,,,,,,,,,,,,,,,,,,,,,,,,,,,,,,,,,,
,,66b616b0db06f7953a7c1e1f,66fc9a3f14d92721204982a3,2024-10-02_03h02.03.631,mdp,2024.2.1,Win32,59.88023952,66fa4ebf79326e780c390304,,,,,,,,,,,,,,,,,,,,,116.1746,116.1746,116.1774,117.0717,0,1,left,0.3619,,117.0754,117.077,,0,,117.0789,117.0805,,0,,0,117.0806,117.0806,117.0825,118.5696,0,14,14,14,1,0.8,0.2,0.6,0.4,1,0,,,,,,,,,,,,,,,,,,,,,,,,,,,,,,,,,,,,
,,66b616b0db06f7953a7c1e1f,66fc9a3f14d92721204982a3,2024-10-02_03h02.03.631,mdp,2024.2.1,Win32,59.88023952,66fa4ebf79326e780c390304,,,,,,,,,,,,,,,,,,,,,118.5713,118.5714,118.5743,119.5312,1,1,right,0.4258,,119.5362,119.5386,,1,,119.5406,119.5422,,1,,0,119.5423,119.5423,119.5441,121.0407,0,15,15,15,1,0.6,0.4,0.2,0.8,1,0,,,,,,,,,,,,,,,,,,,,,,,,,,,,,,,,,,,,
,,66b616b0db06f7953a7c1e1f,66fc9a3f14d92721204982a3,2024-10-02_03h02.03.631,mdp,2024.2.1,Win32,59.88023952,66fa4ebf79326e780c390304,,,,,,,,,,,,,,,,,,,,,121.0425,121.0426,121.0452,121.9045,0,1,left,0.332,,121.9077,121.9095,,0,,121.9119,121.9137,,1,,0,121.9138,121.9138,121.9164,123.4049,0,16,16,16,1,0.6,0.4,0.2,0.8,1,0,,,,,,,,,,,,,,,,,,,,,,,,,,,,,,,,,,,,
,,66b616b0db06f7953a7c1e1f,66fc9a3f14d92721204982a3,2024-10-02_03h02.03.631,mdp,2024.2.1,Win32,59.88023952,66fa4ebf79326e780c390304,,,,,,,,,,,,,,,,,,,,,123.4068,123.4068,123.4098,124.082,0,0,left,0.1483,,124.0862,124.0893,,0,,124.0915,124.0932,,0,,1,124.0933,124.0934,124.0954,125.5913,0,17,17,17,1,0.6,0.4,0.2,0.8,1,0,,,,,,,,,,,,,,,,,,,,,,,,,,,,,,,,,,,,
,,66b616b0db06f7953a7c1e1f,66fc9a3f14d92721204982a3,2024-10-02_03h02.03.631,mdp,2024.2.1,Win32,59.88023952,66fa4ebf79326e780c390304,,,,,,,,,,,,,,,,,,,,,125.5929,125.5931,125.5957,126.8247,0,1,left,0.7091,,126.8297,126.8322,,0,,126.835,126.8377,,0,,0,126.8379,126.8379,126.8399,128.3289,0,18,18,18,1,0.6,0.4,0.2,0.8,1,0,,,,,,,,,,,,,,,,,,,,,,,,,,,,,,,,,,,,
,,66b616b0db06f7953a7c1e1f,66fc9a3f14d92721204982a3,2024-10-02_03h02.03.631,mdp,2024.2.1,Win32,59.88023952,66fa4ebf79326e780c390304,,,,,,,,,,,,,,,,,,,,,128.3306,128.3306,128.3341,129.3107,1,0,right,0.4525,,129.3148,129.3174,,1,,129.3193,129.3209,,1,,1,129.321,129.321,129.3226,130.811,0,19,19,19,1,0.6,0.4,0.2,0.8,1,0,,,,,,,,,,,,,,,,,,,,,,,,,,,,,,,,,,,,
,,66b616b0db06f7953a7c1e1f,66fc9a3f14d92721204982a3,2024-10-02_03h02.03.631,mdp,2024.2.1,Win32,59.88023952,66fa4ebf79326e780c390304,,,,,,,,,,,,,,,,,,,,,130.8117,130.8119,130.8142,131.4869,1,0,right,0.1384,,131.4894,131.4904,,1,,131.4916,131.4924,,1,,1,131.4925,131.4925,131.4932,132.9927,0,20,20,20,1,0.6,0.4,0.2,0.8,1,0,,,,,,,,,,,,,,,,,,,,,,,,,,,,,,,,,,,,
,,66b616b0db06f7953a7c1e1f,66fc9a3f14d92721204982a3,2024-10-02_03h02.03.631,mdp,2024.2.1,Win32,59.88023952,66fa4ebf79326e780c390304,,,,,,,,,,,,,,,,,,,,,132.9945,132.9947,132.9975,134.4615,1,1,right,0.945,,134.4638,134.4656,,1,,134.4675,134.4692,,1,,0,134.4693,134.4694,134.4726,135.9712,0,21,21,21,1,0.6,0.4,0.2,0.8,1,0,,,,,,,,,,,,,,,,,,,,,,,,,,,,,,,,,,,,
,,66b616b0db06f7953a7c1e1f,66fc9a3f14d92721204982a3,2024-10-02_03h02.03.631,mdp,2024.2.1,Win32,59.88023952,66fa4ebf79326e780c390304,,,,,,,,,,,,,,,,,,,,,135.973,135.9731,135.976,136.7584,1,0,right,0.2488,,136.7622,136.7642,,0,,136.7662,136.7678,,0,,1,136.7678,136.7678,136.7694,138.2526,0,22,22,22,1,0.8,0.2,0.8,0.2,1,0,,,,,,,,,,,,,,,,,,,,,,,,,,,,,,,,,,,,
,,66b616b0db06f7953a7c1e1f,66fc9a3f14d92721204982a3,2024-10-02_03h02.03.631,mdp,2024.2.1,Win32,59.88023952,66fa4ebf79326e780c390304,,,,,,,,,,,,,,,,,,,,,138.2546,138.2546,138.258,138.7896,1,0,right,0.0056,,138.792,138.7936,,0,,138.7954,138.7974,,0,,1,138.7974,138.7974,138.7992,140.2889,0,23,23,23,1,0.8,0.2,0.8,0.2,1,0,,,,,,,,,,,,,,,,,,,,,,,,,,,,,,,,,,,,
,,66b616b0db06f7953a7c1e1f,66fc9a3f14d92721204982a3,2024-10-02_03h02.03.631,mdp,2024.2.1,Win32,59.88023952,66fa4ebf79326e780c390304,,,,,,,,,,,,,,,,,,,,,140.2907,140.2907,140.2935,141.3216,1,0,right,0.506,,141.3248,141.3265,,0,,141.3283,141.3298,,0,,1,141.3299,141.3299,141.3316,142.8326,0,24,24,24,1,0.8,0.2,0.8,0.2,1,0,,,,,,,,,,,,,,,,,,,,,,,,,,,,,,,,,,,,
,,66b616b0db06f7953a7c1e1f,66fc9a3f14d92721204982a3,2024-10-02_03h02.03.631,mdp,2024.2.1,Win32,59.88023952,66fa4ebf79326e780c390304,,,,,,,,,,,,,,,,,,,,,142.8344,142.8346,142.8371,143.9178,1,1,right,0.5364,,143.9218,143.9236,,1,,143.926,143.9275,,0,,0,143.9276,143.9276,143.9313,145.4297,0,25,25,25,1,0.8,0.2,0.8,0.2,1,0,,,,,,,,,,,,,,,,,,,,,,,,,,,,,,,,,,,,
,,66b616b0db06f7953a7c1e1f,66fc9a3f14d92721204982a3,2024-10-02_03h02.03.631,mdp,2024.2.1,Win32,59.88023952,66fa4ebf79326e780c390304,,,,,,,,,,,,,,,,,,,,,145.4315,145.4315,145.4349,146.2833,0,0,left,0.3168,,146.2857,146.2874,,0,,146.2892,146.2912,,0,,1,146.2913,146.2913,146.2931,147.7968,0,26,26,26,1,0.8,0.2,0.8,0.2,1,0,,,,,,,,,,,,,,,,,,,,,,,,,,,,,,,,,,,,
,,66b616b0db06f7953a7c1e1f,66fc9a3f14d92721204982a3,2024-10-02_03h02.03.631,mdp,2024.2.1,Win32,59.88023952,66fa4ebf79326e780c390304,,,,,,,,,,,,,,,,,,,,,147.7983,147.7983,147.8016,148.5173,0,0,left,0.1755,,148.5197,148.5212,,0,,148.523,148.5246,,0,,1,148.5246,148.5246,148.5282,150.0221,0,27,27,27,1,0.8,0.2,0.8,0.2,1,0,,,,,,,,,,,,,,,,,,,,,,,,,,,,,,,,,,,,
,,66b616b0db06f7953a7c1e1f,66fc9a3f14d92721204982a3,2024-10-02_03h02.03.631,mdp,2024.2.1,Win32,59.88023952,66fa4ebf79326e780c390304,,,,,,,,,,,,,,,,,,,,,150.0239,150.024,150.0272,150.9834,0,0,left,0.425,,150.987,150.9889,,1,,150.9918,150.9934,,0,,1,150.9935,150.9935,150.9953,152.4825,0,28,28,28,1,0.8,0.2,0.8,0.2,1,0,,,,,,,,,,,,,,,,,,,,,,,,,,,,,,,,,,,,
,,66b616b0db06f7953a7c1e1f,66fc9a3f14d92721204982a3,2024-10-02_03h02.03.631,mdp,2024.2.1,Win32,59.88023952,66fa4ebf79326e780c390304,,,,,,,,,,,,,,,,,,,,,152.4834,152.4834,152.4846,153.3095,0,0,left,0.2852,,153.3119,153.3135,,1,,153.3157,153.3178,,1,,1,153.3179,153.3179,153.3199,154.8064,0,29,29,29,1,0.6,0.4,0.4,0.6,1,0,,,,,,,,,,,,,,,,,,,,,,,,,,,,,,,,,,,,
,,66b616b0db06f7953a7c1e1f,66fc9a3f14d92721204982a3,2024-10-02_03h02.03.631,mdp,2024.2.1,Win32,59.88023952,66fa4ebf79326e780c390304,,,,,,,,,,,,,,,,,,,,,154.808,154.808,154.811,155.3372,0,0,left,0.0012,,155.3412,155.3429,,0,,155.3449,155.3467,,0,,1,155.3469,155.3469,155.3495,156.8359,0,30,30,30,1,0.6,0.4,0.4,0.6,1,0,,,,,,,,,,,,,,,,,,,,,,,,,,,,,,,,,,,,
,,66b616b0db06f7953a7c1e1f,66fc9a3f14d92721204982a3,2024-10-02_03h02.03.631,mdp,2024.2.1,Win32,59.88023952,66fa4ebf79326e780c390304,,,,,,,,,,,,,,,,,,,,,156.8377,156.8377,156.8408,158.1025,0,0,left,0.7343,,158.1074,158.1092,,0,,158.1111,158.1127,,1,,1,158.1129,158.1129,158.1146,159.6153,0,31,31,31,1,0.6,0.4,0.4,0.6,1,0,,,,,,,,,,,,,,,,,,,,,,,,,,,,,,,,,,,,
,,66b616b0db06f7953a7c1e1f,66fc9a3f14d92721204982a3,2024-10-02_03h02.03.631,mdp,2024.2.1,Win32,59.88023952,66fa4ebf79326e780c390304,,,,,,,,,,,,,,,,,,,,,159.6181,159.6181,159.6205,160.4553,0,1,left,0.3045,,160.4584,160.4599,,1,,160.4618,160.4631,,0,,0,160.4632,160.4633,160.4648,161.969,0,32,32,32,1,0.6,0.4,0.4,0.6,1,0,,,,,,,,,,,,,,,,,,,,,,,,,,,,,,,,,,,,
,,66b616b0db06f7953a7c1e1f,66fc9a3f14d92721204982a3,2024-10-02_03h02.03.631,mdp,2024.2.1,Win32,59.88023952,66fa4ebf79326e780c390304,,,,,,,,,,,,,,,,,,,,,161.9705,161.9705,161.9744,162.7361,0,0,left,0.2483,,162.7392,162.7409,,0,,162.7433,162.7449,,0,,1,162.7451,162.7451,162.7475,164.233,0,33,33,33,1,0.6,0.4,0.4,0.6,1,0,,,,,,,,,,,,,,,,,,,,,,,,,,,,,,,,,,,,
,,66b616b0db06f7953a7c1e1f,66fc9a3f14d92721204982a3,2024-10-02_03h02.03.631,mdp,2024.2.1,Win32,59.88023952,66fa4ebf79326e780c390304,,,,,,,,,,,,,,,,,,,,,164.2349,164.235,164.2379,165.0503,0,1,left,0.2864,,165.0528,165.0546,,0,,165.057,165.0588,,1,,0,165.0589,165.0589,165.0606,166.5627,0,34,34,34,1,0.6,0.4,0.4,0.6,1,0,,,,,,,,,,,,,,,,,,,,,,,,,,,,,,,,,,,,
,,66b616b0db06f7953a7c1e1f,66fc9a3f14d92721204982a3,2024-10-02_03h02.03.631,mdp,2024.2.1,Win32,59.88023952,66fa4ebf79326e780c390304,,,,,,,,,,,,,,,,,,,,,166.5642,166.5642,166.5675,167.1846,0,0,left,0.0925,,167.1884,167.1902,,0,,167.192,167.194,,0,,1,167.1942,167.1942,167.1959,168.6929,0,35,35,35,1,0.8,0.2,0.2,0.8,1,0,,,,,,,,,,,,,,,,,,,,,,,,,,,,,,,,,,,,
,,66b616b0db06f7953a7c1e1f,66fc9a3f14d92721204982a3,2024-10-02_03h02.03.631,mdp,2024.2.1,Win32,59.88023952,66fa4ebf79326e780c390304,,,,,,,,,,,,,,,,,,,,,168.6947,168.6947,168.6979,169.4822,0,1,left,0.2561,,169.486,169.4876,,0,,169.4894,169.4911,,0,,0,169.4914,169.4914,169.4935,170.9918,0,36,36,36,1,0.8,0.2,0.2,0.8,1,0,,,,,,,,,,,,,,,,,,,,,,,,,,,,,,,,,,,,
,,66b616b0db06f7953a7c1e1f,66fc9a3f14d92721204982a3,2024-10-02_03h02.03.631,mdp,2024.2.1,Win32,59.88023952,66fa4ebf79326e780c390304,,,,,,,,,,,,,,,,,,,,,170.9936,170.9937,170.9966,172.092,1,0,right,0.5633,,172.0937,172.0945,,1,,172.0954,172.0961,,1,,1,172.0961,172.0961,172.0967,173.5868,0,37,37,37,1,0.8,0.2,0.2,0.8,1,0,,,,,,,,,,,,,,,,,,,,,,,,,,,,,,,,,,,,
,,66b616b0db06f7953a7c1e1f,66fc9a3f14d92721204982a3,2024-10-02_03h02.03.631,mdp,2024.2.1,Win32,59.88023952,66fa4ebf79326e780c390304,,,,,,,,,,,,,,,,,,,,,173.5888,173.5888,173.592,174.4525,1,1,right,0.33,,174.4567,174.4586,,1,,174.4605,174.4621,,1,,0,174.4622,174.4622,174.4643,175.9517,0,38,38,38,1,0.8,0.2,0.2,0.8,1,0,,,,,,,,,,,,,,,,,,,,,,,,,,,,,,,,,,,,
,,66b616b0db06f7953a7c1e1f,66fc9a3f14d92721204982a3,2024-10-02_03h02.03.631,mdp,2024.2.1,Win32,59.88023952,66fa4ebf79326e780c390304,,,,,,,,,,,,,,,,,,,,,175.9543,175.9543,175.9569,176.5225,1,0,right,0.0384,,176.5287,176.5304,,1,,176.5326,176.5347,,0,,1,176.5352,176.5352,176.5371,178.0369,0,39,39,39,1,0.2,0.8,0.6,0.4,1,0,,,,,,,,,,,,,,,,,,,,,,,,,,,,,,,,,,,,
,,66b616b0db06f7953a7c1e1f,66fc9a3f14d92721204982a3,2024-10-02_03h02.03.631,mdp,2024.2.1,Win32,59.88023952,66fa4ebf79326e780c390304,,,,,,,,,,,,,,,,,,,,,178.0377,178.0377,178.0401,179.0211,1,0,right,0.4546,,179.0249,179.0266,,1,,179.0285,179.0299,,0,,1,179.03,179.03,179.0318,180.5328,0,40,40,40,1,0.2,0.8,0.6,0.4,1,0,,,,,,,,,,,,,,,,,,,,,,,,,,,,,,,,,,,,
,,66b616b0db06f7953a7c1e1f,66fc9a3f14d92721204982a3,2024-10-02_03h02.03.631,mdp,2024.2.1,Win32,59.88023952,66fa4ebf79326e780c390304,,,,,,,,,,,,,,,,,,,,,180.5344,180.5345,180.5376,182.076,1,0,right,1.0116,,182.0785,182.0842,,0,,182.0865,182.0882,,0,,1,182.0883,182.0883,182.0899,183.565,0,41,41,41,1,0.2,0.8,0.6,0.4,1,0,,,,,,,,,,,,,,,,,,,,,,,,,,,,,,,,,,,,
,,66b616b0db06f7953a7c1e1f,66fc9a3f14d92721204982a3,2024-10-02_03h02.03.631,mdp,2024.2.1,Win32,59.88023952,66fa4ebf79326e780c390304,,,,,,,,,,,,,,,,,,,,,183.5669,183.5669,183.5699,184.4488,1,0,right,0.3529,,184.4525,184.4544,,1,,184.4562,184.4578,,1,,1,184.4579,184.4579,184.4594,185.975,0,42,42,42,1,0.2,0.8,0.6,0.4,1,0,,,,,,,,,,,,,,,,,,,,,,,,,,,,,,,,,,,,
,,66b616b0db06f7953a7c1e1f,66fc9a3f14d92721204982a3,2024-10-02_03h02.03.631,mdp,2024.2.1,Win32,59.88023952,66fa4ebf79326e780c390304,,,,,,,,,,,,,,,,,,,,,185.9782,185.9782,185.981,186.9181,1,0,right,0.4216,,186.9204,186.9215,,0,,186.9224,186.923,,0,,1,186.9231,186.9231,186.9237,188.4279,0,43,43,43,1,0.2,0.8,0.6,0.4,1,0,,,,,,,,,,,,,,,,,,,,,,,,,,,,,,,,,,,,
,,66b616b0db06f7953a7c1e1f,66fc9a3f14d92721204982a3,2024-10-02_03h02.03.631,mdp,2024.2.1,Win32,59.88023952,66fa4ebf79326e780c390304,,,,,,,,,,,,,,,,,,,,,188.4297,188.4297,188.4328,189.2467,1,0,right,0.2985,,189.2506,189.2525,,0,,189.2545,189.256,,0,,1,189.2562,189.2562,189.2595,190.7456,0,44,44,44,1,0.2,0.8,0.6,0.4,1,0,,,,,,,,,,,,,,,,,,,,,,,,,,,,,,,,,,,,
,,66b616b0db06f7953a7c1e1f,66fc9a3f14d92721204982a3,2024-10-02_03h02.03.631,mdp,2024.2.1,Win32,59.88023952,66fa4ebf79326e780c390304,,,,,,,,,,,,,,,,,,,,,190.7473,190.7473,190.7505,191.6062,1,0,right,0.3351,,191.6103,191.6128,,0,,191.6147,191.6168,,0,,1,191.617,191.617,191.6188,193.1196,0,45,45,45,1,0.2,0.8,0.6,0.4,1,0,,,,,,,,,,,,,,,,,,,,,,,,,,,,,,,,,,,,
,,66b616b0db06f7953a7c1e1f,66fc9a3f14d92721204982a3,2024-10-02_03h02.03.631,mdp,2024.2.1,Win32,59.88023952,66fa4ebf79326e780c390304,,,,,,,,,,,,,,,,,,,,,193.1221,193.1221,193.1246,193.8991,1,0,right,0.2558,,193.9026,193.9048,,0,,193.9066,193.9081,,1,,1,193.9081,193.9082,193.9096,195.4013,0,46,46,46,1,0.2,0.8,0.6,0.4,1,0,,,,,,,,,,,,,,,,,,,,,,,,,,,,,,,,,,,,
,,66b616b0db06f7953a7c1e1f,66fc9a3f14d92721204982a3,2024-10-02_03h02.03.631,mdp,2024.2.1,Win32,59.88023952,66fa4ebf79326e780c390304,,,,,,,,,,,,,,,,,,,,,195.404,195.4041,195.4068,196.2728,1,0,right,0.3365,,196.2768,196.2786,,1,,196.2809,196.2825,,0,,1,196.2827,196.2827,196.285,197.7678,0,47,47,47,1,0.2,0.8,0.6,0.4,1,0,,,,,,,,,,,,,,,,,,,,,,,,,,,,,,,,,,,,
,,66b616b0db06f7953a7c1e1f,66fc9a3f14d92721204982a3,2024-10-02_03h02.03.631,mdp,2024.2.1,Win32,59.88023952,66fa4ebf79326e780c390304,,,,,,,,,,,,,,,,,,,,,197.7701,197.7701,197.7731,198.7052,1,0,right,0.4035,,198.7088,198.7103,,0,,198.7122,198.7135,,0,,1,198.7136,198.7136,198.7151,200.2096,0,48,48,48,1,0.2,0.8,0.6,0.4,1,0,,,,,,,,,,,,,,,,,,,,,,,,,,,,,,,,,,,,
,,66b616b0db06f7953a7c1e1f,66fc9a3f14d92721204982a3,2024-10-02_03h02.03.631,mdp,2024.2.1,Win32,59.88023952,66fa4ebf79326e780c390304,,,,,,,,,,,,,,,,,,,,,200.2113,200.2113,200.215,200.9202,1,1,right,0.174,,200.9239,200.9256,,0,,200.9278,200.9295,,1,,0,200.9296,200.9296,200.932,202.43,0,49,49,49,1,0.2,0.8,0.6,0.4,1,0,,,,,,,,,,,,,,,,,,,,,,,,,,,,,,,,,,,,
,,66b616b0db06f7953a7c1e1f,66fc9a3f14d92721204982a3,2024-10-02_03h02.03.631,mdp,2024.2.1,Win32,59.88023952,66fa4ebf79326e780c390304,,,,,,,,,,,,,,,,,,,,,,,,,,,,,,,,,,,,,,,,,,,,,,,,,,,,,,,,202.4424,260.9329,0,0,0,8,1,imgs/squirrel.png,imgs/goat.png,imgs/dog.png,imgs/bear.png,imgs/horse.png,,,,,,,,,,,,,,,,,,,,,,,,
,,66b616b0db06f7953a7c1e1f,66fc9a3f14d92721204982a3,2024-10-02_03h02.03.631,mdp,2024.2.1,Win32,59.88023952,66fa4ebf79326e780c390304,,,,,,,,,,,,,,2,seqs/st2seq19.csv,260.9752,263.5524,space,2.0533,,263.5695,263.5695,263.572,265.6578,0,0,left,1.5473,,265.662,267.1871,1,0,right,267.1909,267.1925,,1,,1,267.1927,267.1927,267.1944,268.6729,0,0,0,0,1,0.8,0.2,0.2,0.8,,,,,,,,,,,,,,,0.9824,,0.2,0.8,0.4,0.6,0.4,0.6,0.8,0.2,1,0,,,,,,,,,,,,
,,66b616b0db06f7953a7c1e1f,66fc9a3f14d92721204982a3,2024-10-02_03h02.03.631,mdp,2024.2.1,Win32,59.88023952,66fa4ebf79326e780c390304,,,,,,,,,,,,,,,,,,,,,268.6755,268.6755,268.6786,269.7749,0,0,left,0.579,,269.7784,270.8657,1,0,right,270.8693,270.8716,,0,,1,270.8718,270.8718,270.8736,272.3553,0,1,1,1,1,0.8,0.2,0.2,0.8,,,,,,,,,,,,,,,0.5595,,0.6,0.4,0.8,0.2,0.4,0.6,0.8,0.2,1,0,,,,,,,,,,,,
,,66b616b0db06f7953a7c1e1f,66fc9a3f14d92721204982a3,2024-10-02_03h02.03.631,mdp,2024.2.1,Win32,59.88023952,66fa4ebf79326e780c390304,,,,,,,,,,,,,,,,,,,,,272.3571,272.3571,272.3601,273.2045,0,0,left,0.316,,273.2084,274.1306,1,0,right,274.133,274.1371,,1,,1,274.1373,274.1373,274.1395,275.6385,0,2,2,2,1,0.8,0.2,0.2,0.8,,,,,,,,,,,,,,,0.3978,,0.6,0.4,0.8,0.2,0.4,0.6,0.8,0.2,1,0,,,,,,,,,,,,
,,66b616b0db06f7953a7c1e1f,66fc9a3f14d92721204982a3,2024-10-02_03h02.03.631,mdp,2024.2.1,Win32,59.88023952,66fa4ebf79326e780c390304,,,,,,,,,,,,,,,,,,,,,275.6408,275.6408,275.6433,276.5331,0,1,left,0.3512,,276.5358,277.3486,1,1,right,277.3538,277.3555,,0,,0,277.3556,277.3556,277.3575,278.8488,0,3,3,3,1,0.8,0.2,0.2,0.8,,,,,,,,,,,,,,,0.2694,,0.6,0.4,0.8,0.2,0.4,0.6,0.8,0.2,1,0,,,,,,,,,,,,
,,66b616b0db06f7953a7c1e1f,66fc9a3f14d92721204982a3,2024-10-02_03h02.03.631,mdp,2024.2.1,Win32,59.88023952,66fa4ebf79326e780c390304,,,,,,,,,,,,,,,,,,,,,278.8506,278.8506,278.8536,279.6958,0,0,left,0.3132,,279.6998,280.5691,0,0,left,280.5725,280.5742,,0,,1,280.5743,280.5743,280.576,282.0754,0,4,4,4,1,0.8,0.2,0.2,0.8,,,,,,,,,,,,,,,0.3364,,0.6,0.4,0.8,0.2,0.4,0.6,0.8,0.2,1,0,,,,,,,,,,,,
,,66b616b0db06f7953a7c1e1f,66fc9a3f14d92721204982a3,2024-10-02_03h02.03.631,mdp,2024.2.1,Win32,59.88023952,66fa4ebf79326e780c390304,,,,,,,,,,,,,,,,,,,,,282.0765,282.0765,282.078,282.827,0,0,left,0.2185,,282.831,283.814,0,0,left,283.8177,283.82,,1,,1,283.82,283.8201,283.8219,285.3135,0,5,5,5,1,0.8,0.2,0.2,0.8,,,,,,,,,,,,,,,0.4544,,0.6,0.4,0.8,0.2,0.4,0.6,0.8,0.2,1,0,,,,,,,,,,,,
,,66b616b0db06f7953a7c1e1f,66fc9a3f14d92721204982a3,2024-10-02_03h02.03.631,mdp,2024.2.1,Win32,59.88023952,66fa4ebf79326e780c390304,,,,,,,,,,,,,,,,,,,,,285.3154,285.3154,285.3183,286.0584,0,1,left,0.2193,,286.0602,286.9777,0,0,left,286.9801,286.9818,,1,,1,286.982,286.982,286.9838,288.4744,0,6,6,6,1,0.4,0.6,0.6,0.4,,,,,,,,,,,,,,,0.3777,,0.6,0.4,0.8,0.2,0.4,0.6,0.8,0.2,1,0,,,,,,,,,,,,
,,66b616b0db06f7953a7c1e1f,66fc9a3f14d92721204982a3,2024-10-02_03h02.03.631,mdp,2024.2.1,Win32,59.88023952,66fa4ebf79326e780c390304,,,,,,,,,,,,,,,,,,,,,288.4763,288.4763,288.4792,289.393,0,0,left,0.3899,,289.3967,290.0555,0,1,left,290.0584,290.06,,0,,0,290.0601,290.0602,290.0619,291.554,0,7,7,7,1,0.4,0.6,0.6,0.4,,,,,,,,,,,,,,,0.1314,,0.6,0.4,0.8,0.2,0.4,0.6,0.8,0.2,1,0,,,,,,,,,,,,
,,66b616b0db06f7953a7c1e1f,66fc9a3f14d92721204982a3,2024-10-02_03h02.03.631,mdp,2024.2.1,Win32,59.88023952,66fa4ebf79326e780c390304,,,,,,,,,,,,,,,,,,,,,291.5559,291.5559,291.5586,292.4731,0,1,left,0.3701,,292.4759,293.0553,1,0,right,293.0591,293.0607,,0,,1,293.0608,293.0608,293.0627,294.5502,0,8,8,8,1,0.4,0.6,0.6,0.4,,,,,,,,,,,,,,,0.0394,,0.6,0.4,0.8,0.2,0.6,0.4,0.6,0.4,1,0,,,,,,,,,,,,
,,66b616b0db06f7953a7c1e1f,66fc9a3f14d92721204982a3,2024-10-02_03h02.03.631,mdp,2024.2.1,Win32,59.88023952,66fa4ebf79326e780c390304,,,,,,,,,,,,,,,,,,,,,294.5526,294.5527,294.5554,295.2165,0,1,left,0.1185,,295.2202,296.2663,1,1,right,296.2696,296.2714,,0,,0,296.2715,296.2715,296.2748,297.7638,0,9,9,9,1,0.4,0.6,0.6,0.4,,,,,,,,,,,,,,,0.5146,,0.6,0.4,0.8,0.2,0.6,0.4,0.6,0.4,1,0,,,,,,,,,,,,
,,66b616b0db06f7953a7c1e1f,66fc9a3f14d92721204982a3,2024-10-02_03h02.03.631,mdp,2024.2.1,Win32,59.88023952,66fa4ebf79326e780c390304,,,,,,,,,,,,,,,,,,,,,297.7655,297.7656,297.7689,298.6157,0,1,left,0.3309,,298.6197,299.3128,0,1,left,299.3161,299.3179,,1,,0,299.318,299.3181,299.3201,300.8112,0,10,10,10,1,0.4,0.6,0.6,0.4,,,,,,,,,,,,,,,0.1611,,0.6,0.4,0.8,0.2,0.6,0.4,0.6,0.4,1,0,,,,,,,,,,,,
,,66b616b0db06f7953a7c1e1f,66fc9a3f14d92721204982a3,2024-10-02_03h02.03.631,mdp,2024.2.1,Win32,59.88023952,66fa4ebf79326e780c390304,,,,,,,,,,,,,,,,,,,,,300.8132,300.8134,300.8165,301.6643,1,0,right,0.3209,,301.6686,302.4519,1,0,right,302.4544,302.4559,,0,,1,302.4561,302.4561,302.4577,303.9607,0,11,11,11,1,0.4,0.6,0.6,0.4,,,,,,,,,,,,,,,0.2547,,0.6,0.4,0.8,0.2,0.4,0.6,0.8,0.2,1,0,,,,,,,,,,,,
,,66b616b0db06f7953a7c1e1f,66fc9a3f14d92721204982a3,2024-10-02_03h02.03.631,mdp,2024.2.1,Win32,59.88023952,66fa4ebf79326e780c390304,,,,,,,,,,,,,,,,,,,,,303.9615,303.9616,303.9641,304.6984,1,0,right,0.2179,,304.7019,305.5455,1,0,right,305.5493,305.551,,0,,1,305.5512,305.5512,305.5531,307.0374,0,12,12,12,1,0.4,0.6,0.6,0.4,,,,,,,,,,,,,,,0.3164,,0.6,0.4,0.8,0.2,0.4,0.6,0.8,0.2,1,0,,,,,,,,,,,,
,,66b616b0db06f7953a7c1e1f,66fc9a3f14d92721204982a3,2024-10-02_03h02.03.631,mdp,2024.2.1,Win32,59.88023952,66fa4ebf79326e780c390304,,,,,,,,,,,,,,,,,,,,,307.041,307.0411,307.0435,307.9393,1,0,right,0.3627,,307.9422,308.758,1,0,right,308.7617,308.7638,,0,,1,308.7639,308.7639,308.7664,310.2551,0,13,13,13,1,0.4,0.6,0.6,0.4,,,,,,,,,,,,,,,0.2902,,0.6,0.4,0.8,0.2,0.4,0.6,0.8,0.2,1,0,,,,,,,,,,,,
,,66b616b0db06f7953a7c1e1f,66fc9a3f14d92721204982a3,2024-10-02_03h02.03.631,mdp,2024.2.1,Win32,59.88023952,66fa4ebf79326e780c390304,,,,,,,,,,,,,,,,,,,,,310.2562,310.2562,310.2586,311.172,1,1,right,0.3865,,311.1758,312.1383,1,1,right,312.1421,312.1437,,0,,0,312.1438,312.1438,312.1456,313.6357,0,14,14,14,1,0.4,0.6,0.6,0.4,,,,,,,,,,,,,,,0.4315,,0.6,0.4,0.8,0.2,0.4,0.6,0.8,0.2,1,0,,,,,,,,,,,,
,,66b616b0db06f7953a7c1e1f,66fc9a3f14d92721204982a3,2024-10-02_03h02.03.631,mdp,2024.2.1,Win32,59.88023952,66fa4ebf79326e780c390304,,,,,,,,,,,,,,,,,,,,,313.6376,313.6378,313.6406,314.9356,1,0,right,0.7662,,314.9397,316.0679,0,1,left,316.0706,316.0724,,0,,0,316.0725,316.0725,316.0746,317.5632,0,15,15,15,1,0.4,0.6,0.6,0.4,,,,,,,,,,,,,,,0.5841,,0.6,0.4,0.8,0.2,0.4,0.6,0.8,0.2,1,0,,,,,,,,,,,,
,,66b616b0db06f7953a7c1e1f,66fc9a3f14d92721204982a3,2024-10-02_03h02.03.631,mdp,2024.2.1,Win32,59.88023952,66fa4ebf79326e780c390304,,,,,,,,,,,,,,,,,,,,,317.5655,317.5655,317.5685,318.6663,1,1,right,0.5677,,318.6701,319.7068,0,1,left,319.7132,319.7156,,1,,0,319.7157,319.7158,319.7177,321.2065,0,16,16,16,1,0.4,0.6,0.6,0.4,,,,,,,,,,,,,,,0.505,,0.6,0.4,0.8,0.2,0.4,0.6,0.8,0.2,1,0,,,,,,,,,,,,
,,66b616b0db06f7953a7c1e1f,66fc9a3f14d92721204982a3,2024-10-02_03h02.03.631,mdp,2024.2.1,Win32,59.88023952,66fa4ebf79326e780c390304,,,,,,,,,,,,,,,,,,,,,321.2085,321.2085,321.2117,322.0607,0,1,left,0.319,,322.0658,322.645,1,0,right,322.6489,322.6508,,0,,1,322.6509,322.6509,322.6527,324.1582,0,17,17,17,1,0.4,0.6,0.6,0.4,,,,,,,,,,,,,,,0.0536,,0.6,0.4,0.8,0.2,0.4,0.6,0.8,0.2,1,0,,,,,,,,,,,,
,,66b616b0db06f7953a7c1e1f,66fc9a3f14d92721204982a3,2024-10-02_03h02.03.631,mdp,2024.2.1,Win32,59.88023952,66fa4ebf79326e780c390304,,,,,,,,,,,,,,,,,,,,,324.16,324.16,324.1629,324.7606,0,0,left,0.0795,,324.7643,325.6932,1,0,right,325.697,325.6987,,0,,1,325.6989,325.6989,325.7009,327.192,0,18,18,18,1,0.4,0.6,0.6,0.4,,,,,,,,,,,,,,,0.3869,,0.6,0.4,0.8,0.2,0.4,0.6,0.8,0.2,1,0,,,,,,,,,,,,
,,66b616b0db06f7953a7c1e1f,66fc9a3f14d92721204982a3,2024-10-02_03h02.03.631,mdp,2024.2.1,Win32,59.88023952,66fa4ebf79326e780c390304,,,,,,,,,,,,,,,,,,,,,327.1937,327.1937,327.197,327.7521,0,0,left,0.035,,327.7541,329.0846,1,1,right,329.088,329.089,,0,,0,329.0891,329.0891,329.09,330.5854,0,19,19,19,1,0.4,0.6,0.6,0.4,,,,,,,,,,,,,,,0.7999,,0.6,0.4,0.8,0.2,0.4,0.6,0.8,0.2,1,0,,,,,,,,,,,,
,,66b616b0db06f7953a7c1e1f,66fc9a3f14d92721204982a3,2024-10-02_03h02.03.631,mdp,2024.2.1,Win32,59.88023952,66fa4ebf79326e780c390304,,,,,,,,,,,,,,,,,,,,,330.5859,330.5859,330.5869,331.5889,0,1,left,0.4867,,331.5921,332.4033,0,1,left,332.4071,332.4089,,0,,0,332.409,332.409,332.4113,333.91,0,20,20,20,1,0.4,0.6,0.6,0.4,,,,,,,,,,,,,,,0.2696,,0.6,0.4,0.8,0.2,0.2,0.8,0.4,0.6,1,0,,,,,,,,,,,,
,,66b616b0db06f7953a7c1e1f,66fc9a3f14d92721204982a3,2024-10-02_03h02.03.631,mdp,2024.2.1,Win32,59.88023952,66fa4ebf79326e780c390304,,,,,,,,,,,,,,,,,,,,,333.9117,333.9117,333.9154,335.0489,0,1,left,0.602,,335.0519,335.8828,1,0,right,335.8857,335.8872,,0,,1,335.8873,335.8873,335.8888,337.3761,0,21,21,21,1,0.4,0.6,0.6,0.4,,,,,,,,,,,,,,,0.297,,0.6,0.4,0.8,0.2,0.2,0.8,0.4,0.6,1,0,,,,,,,,,,,,
,,66b616b0db06f7953a7c1e1f,66fc9a3f14d92721204982a3,2024-10-02_03h02.03.631,mdp,2024.2.1,Win32,59.88023952,66fa4ebf79326e780c390304,,,,,,,,,,,,,,,,,,,,,337.3769,337.3769,337.3785,338.6128,0,1,left,0.7166,,338.6161,339.7414,1,1,right,339.744,339.7454,,0,,0,339.7454,339.7454,339.7463,341.2423,0,22,22,22,1,0.8,0.2,0.2,0.8,,,,,,,,,,,,,,,0.598,,0.6,0.4,0.8,0.2,0.2,0.8,0.4,0.6,1,0,,,,,,,,,,,,
,,66b616b0db06f7953a7c1e1f,66fc9a3f14d92721204982a3,2024-10-02_03h02.03.631,mdp,2024.2.1,Win32,59.88023952,66fa4ebf79326e780c390304,,,,,,,,,,,,,,,,,,,,,341.2441,341.2441,341.247,341.9788,1,1,right,0.2041,,341.9826,342.6619,0,1,left,342.6657,342.6673,,1,,0,342.6674,342.6674,342.6693,344.1602,0,23,23,23,1,0.8,0.2,0.2,0.8,,,,,,,,,,,,,,,0.1438,,0.6,0.4,0.8,0.2,0.2,0.8,0.4,0.6,1,0,,,,,,,,,,,,
,,66b616b0db06f7953a7c1e1f,66fc9a3f14d92721204982a3,2024-10-02_03h02.03.631,mdp,2024.2.1,Win32,59.88023952,66fa4ebf79326e780c390304,,,,,,,,,,,,,,,,,,,,,344.1621,344.1621,344.1644,344.83,0,0,left,0.1342,,344.8335,345.6253,1,0,right,345.6289,345.6304,,0,,1,345.6305,345.6305,345.6321,347.1229,0,24,24,24,1,0.8,0.2,0.2,0.8,,,,,,,,,,,,,,,0.2621,,0.6,0.4,0.8,0.2,0.4,0.6,0.6,0.4,1,0,,,,,,,,,,,,
,,66b616b0db06f7953a7c1e1f,66fc9a3f14d92721204982a3,2024-10-02_03h02.03.631,mdp,2024.2.1,Win32,59.88023952,66fa4ebf79326e780c390304,,,,,,,,,,,,,,,,,,,,,347.1237,347.1238,347.1262,347.8568,0,1,left,0.2038,,347.8592,349.0069,1,0,right,349.0107,349.0124,,1,,1,349.0125,349.0126,349.0145,350.5119,0,25,25,25,1,0.8,0.2,0.2,0.8,,,,,,,,,,,,,,,0.6052,,0.6,0.4,0.8,0.2,0.4,0.6,0.6,0.4,1,0,,,,,,,,,,,,
,,66b616b0db06f7953a7c1e1f,66fc9a3f14d92721204982a3,2024-10-02_03h02.03.631,mdp,2024.2.1,Win32,59.88023952,66fa4ebf79326e780c390304,,,,,,,,,,,,,,,,,,,,,350.5138,350.5138,350.5166,351.4281,0,0,left,0.3752,,351.4318,352.274,1,1,right,352.2775,352.2792,,0,,0,352.2793,352.2794,352.2813,353.7798,0,26,26,26,1,0.8,0.2,0.2,0.8,,,,,,,,,,,,,,,0.3202,,0.6,0.4,0.8,0.2,0.6,0.4,0.2,0.8,1,0,,,,,,,,,,,,
,,66b616b0db06f7953a7c1e1f,66fc9a3f14d92721204982a3,2024-10-02_03h02.03.631,mdp,2024.2.1,Win32,59.88023952,66fa4ebf79326e780c390304,,,,,,,,,,,,,,,,,,,,,353.7819,353.7819,353.7839,354.6876,1,1,right,0.3744,,354.6915,355.6409,0,0,left,355.6447,355.6476,,1,,1,355.6477,355.6477,355.6498,357.1548,0,27,27,27,1,0.8,0.2,0.2,0.8,,,,,,,,,,,,,,,0.4116,,0.6,0.4,0.8,0.2,0.6,0.4,0.2,0.8,1,0,,,,,,,,,,,,
,,66b616b0db06f7953a7c1e1f,66fc9a3f14d92721204982a3,2024-10-02_03h02.03.631,mdp,2024.2.1,Win32,59.88023952,66fa4ebf79326e780c390304,,,,,,,,,,,,,,,,,,,,,357.1563,357.1564,357.159,358.0156,1,1,right,0.3385,,358.0197,358.9033,0,0,left,358.9063,358.908,,0,,1,358.9081,358.9081,358.9106,360.4113,0,28,28,28,1,0.8,0.2,0.2,0.8,,,,,,,,,,,,,,,0.3399,,0.6,0.4,0.8,0.2,0.6,0.4,0.2,0.8,1,0,,,,,,,,,,,,
,,66b616b0db06f7953a7c1e1f,66fc9a3f14d92721204982a3,2024-10-02_03h02.03.631,mdp,2024.2.1,Win32,59.88023952,66fa4ebf79326e780c390304,,,,,,,,,,,,,,,,,,,,,360.4132,360.4132,360.4162,361.3285,1,0,right,0.3832,,361.331,362.1158,0,1,left,362.1196,362.1212,,0,,0,362.1213,362.1214,362.1231,363.6085,0,29,29,29,1,0.4,0.6,0.6,0.4,,,,,,,,,,,,,,,0.2507,,0.6,0.4,0.8,0.2,0.6,0.4,0.2,0.8,1,0,,,,,,,,,,,,
,,66b616b0db06f7953a7c1e1f,66fc9a3f14d92721204982a3,2024-10-02_03h02.03.631,mdp,2024.2.1,Win32,59.88023952,66fa4ebf79326e780c390304,,,,,,,,,,,,,,,,,,,,,363.6105,363.6106,363.613,364.3755,1,0,right,0.2318,,364.378,365.1396,1,0,right,365.1427,365.1443,,0,,1,365.1443,365.1443,365.1464,366.6399,0,30,30,30,1,0.4,0.6,0.6,0.4,,,,,,,,,,,,,,,0.2332,,0.6,0.4,0.8,0.2,0.6,0.4,0.2,0.8,1,0,,,,,,,,,,,,
,,66b616b0db06f7953a7c1e1f,66fc9a3f14d92721204982a3,2024-10-02_03h02.03.631,mdp,2024.2.1,Win32,59.88023952,66fa4ebf79326e780c390304,,,,,,,,,,,,,,,,,,,,,366.6418,366.6418,366.6446,367.4775,1,0,right,0.293,,367.481,368.2665,1,0,right,368.2729,368.2744,,0,,1,368.2745,368.2745,368.2763,369.7671,0,31,31,31,1,0.4,0.6,0.6,0.4,,,,,,,,,,,,,,,0.2582,,0.6,0.4,0.8,0.2,0.6,0.4,0.2,0.8,1,0,,,,,,,,,,,,
,,66b616b0db06f7953a7c1e1f,66fc9a3f14d92721204982a3,2024-10-02_03h02.03.631,mdp,2024.2.1,Win32,59.88023952,66fa4ebf79326e780c390304,,,,,,,,,,,,,,,,,,,,,369.7691,369.7691,369.7717,370.6175,1,0,right,0.3172,,370.6209,371.4661,1,0,right,371.4699,371.4721,,0,,1,371.4721,371.4721,371.4741,372.9676,0,32,32,32,1,0.4,0.6,0.6,0.4,,,,,,,,,,,,,,,0.3287,,0.6,0.4,0.8,0.2,0.6,0.4,0.2,0.8,1,0,,,,,,,,,,,,
,,66b616b0db06f7953a7c1e1f,66fc9a3f14d92721204982a3,2024-10-02_03h02.03.631,mdp,2024.2.1,Win32,59.88023952,66fa4ebf79326e780c390304,,,,,,,,,,,,,,,,,,,,,372.9694,372.9694,372.9725,373.7851,1,1,right,0.2887,,373.789,374.8493,0,1,left,374.8529,374.8544,,1,,0,374.8545,374.8545,374.8563,376.3467,0,33,33,33,1,0.4,0.6,0.6,0.4,,,,,,,,,,,,,,,0.5348,,0.6,0.4,0.8,0.2,0.6,0.4,0.2,0.8,1,0,,,,,,,,,,,,
,,66b616b0db06f7953a7c1e1f,66fc9a3f14d92721204982a3,2024-10-02_03h02.03.631,mdp,2024.2.1,Win32,59.88023952,66fa4ebf79326e780c390304,,,,,,,,,,,,,,,,,,,,,376.3474,376.3474,376.3493,377.231,1,0,right,0.3532,,377.2332,378.1032,1,0,right,378.1056,378.1075,,0,,1,378.1076,378.1076,378.1111,379.5956,0,34,34,34,1,0.4,0.6,0.6,0.4,,,,,,,,,,,,,,,0.3377,,0.4,0.6,0.4,0.6,0.6,0.4,0.2,0.8,1,0,,,,,,,,,,,,
,,66b616b0db06f7953a7c1e1f,66fc9a3f14d92721204982a3,2024-10-02_03h02.03.631,mdp,2024.2.1,Win32,59.88023952,66fa4ebf79326e780c390304,,,,,,,,,,,,,,,,,,,,,379.5972,379.5972,379.6003,380.4293,1,0,right,0.3126,,380.4325,381.2798,1,1,right,381.2833,381.2848,,1,,0,381.2849,381.2849,381.2867,382.7807,0,35,35,35,1,0.4,0.6,0.6,0.4,,,,,,,,,,,,,,,0.3238,,0.4,0.6,0.4,0.6,0.6,0.4,0.2,0.8,1,0,,,,,,,,,,,,
,,66b616b0db06f7953a7c1e1f,66fc9a3f14d92721204982a3,2024-10-02_03h02.03.631,mdp,2024.2.1,Win32,59.88023952,66fa4ebf79326e780c390304,,,,,,,,,,,,,,,,,,,,,382.7817,382.7817,382.7844,383.5642,1,1,right,0.2554,,383.5676,384.7908,0,0,left,384.7947,384.7963,,0,,1,384.7965,384.7965,384.7982,386.2884,0,36,36,36,1,0.4,0.6,0.6,0.4,,,,,,,,,,,,,,,0.6879,,0.4,0.6,0.4,0.6,0.6,0.4,0.2,0.8,1,0,,,,,,,,,,,,
,,66b616b0db06f7953a7c1e1f,66fc9a3f14d92721204982a3,2024-10-02_03h02.03.631,mdp,2024.2.1,Win32,59.88023952,66fa4ebf79326e780c390304,,,,,,,,,,,,,,,,,,,,,386.2903,386.2905,386.2931,387.0534,1,0,right,0.2275,,387.0568,388.1546,1,0,right,388.157,388.1587,,0,,1,388.1588,388.1588,388.1607,389.6669,0,37,37,37,1,0.4,0.6,0.6,0.4,,,,,,,,,,,,,,,0.5635,,0.4,0.6,0.4,0.6,0.6,0.4,0.2,0.8,1,0,,,,,,,,,,,,
,,66b616b0db06f7953a7c1e1f,66fc9a3f14d92721204982a3,2024-10-02_03h02.03.631,mdp,2024.2.1,Win32,59.88023952,66fa4ebf79326e780c390304,,,,,,,,,,,,,,,,,,,,,389.6688,389.6688,389.6714,390.4711,1,1,right,0.2534,,390.4747,391.2366,0,1,left,391.2391,391.2412,,1,,0,391.2413,391.2413,391.2434,392.7347,0,38,38,38,1,0.4,0.6,0.6,0.4,,,,,,,,,,,,,,,0.2384,,0.4,0.6,0.4,0.6,0.6,0.4,0.2,0.8,1,0,,,,,,,,,,,,
,,66b616b0db06f7953a7c1e1f,66fc9a3f14d92721204982a3,2024-10-02_03h02.03.631,mdp,2024.2.1,Win32,59.88023952,66fa4ebf79326e780c390304,,,,,,,,,,,,,,,,,,,,,392.7366,392.7367,392.7395,393.6692,1,0,right,0.4052,,393.6732,395.0805,1,1,right,395.084,395.0856,,0,,0,395.0857,395.0858,395.0877,396.5784,0,39,39,39,1,0.4,0.6,0.6,0.4,,,,,,,,,,,,,,,0.8628,,0.4,0.6,0.4,0.6,0.4,0.6,0.6,0.4,1,0,,,,,,,,,,,,
,,66b616b0db06f7953a7c1e1f,66fc9a3f14d92721204982a3,2024-10-02_03h02.03.631,mdp,2024.2.1,Win32,59.88023952,66fa4ebf79326e780c390304,,,,,,,,,,,,,,,,,,,,,396.5802,396.5802,396.5834,397.8644,0,1,left,0.7558,,397.8681,399.23,1,0,right,399.2326,399.2342,,0,,1,399.2343,399.2343,399.2362,400.724,0,40,40,40,1,0.4,0.6,0.6,0.4,,,,,,,,,,,,,,,0.8311,,0.4,0.6,0.4,0.6,0.4,0.6,0.6,0.4,1,0,,,,,,,,,,,,
,,66b616b0db06f7953a7c1e1f,66fc9a3f14d92721204982a3,2024-10-02_03h02.03.631,mdp,2024.2.1,Win32,59.88023952,66fa4ebf79326e780c390304,,,,,,,,,,,,,,,,,,,,,400.726,400.726,400.7292,401.6082,0,0,left,0.3485,,401.61,402.7092,1,1,right,402.7129,402.7148,,1,,0,402.7149,402.7149,402.717,404.209,0,41,41,41,1,0.4,0.6,0.6,0.4,,,,,,,,,,,,,,,0.5513,,0.4,0.6,0.4,0.6,0.4,0.6,0.6,0.4,1,0,,,,,,,,,,,,
,,66b616b0db06f7953a7c1e1f,66fc9a3f14d92721204982a3,2024-10-02_03h02.03.631,mdp,2024.2.1,Win32,59.88023952,66fa4ebf79326e780c390304,,,,,,,,,,,,,,,,,,,,,404.2109,404.211,404.2138,405.7311,0,1,left,0.9791,,405.7345,406.973,0,0,left,406.9755,406.9771,,0,,1,406.9773,406.9773,406.9791,408.4687,0,42,42,42,1,0.4,0.6,0.6,0.4,,,,,,,,,,,,,,,0.7054,,0.4,0.6,0.4,0.6,0.4,0.6,0.6,0.4,1,0,,,,,,,,,,,,
,,66b616b0db06f7953a7c1e1f,66fc9a3f14d92721204982a3,2024-10-02_03h02.03.631,mdp,2024.2.1,Win32,59.88023952,66fa4ebf79326e780c390304,,,,,,,,,,,,,,,,,,,,,408.4707,408.4707,408.4731,409.6543,1,1,right,0.6438,,409.6566,410.3654,0,0,left,410.3693,410.3716,,1,,1,410.3721,410.3721,410.3743,411.8626,0,43,43,43,1,0.4,0.6,0.6,0.4,,,,,,,,,,,,,,,0.1771,,0.4,0.6,0.4,0.6,0.4,0.6,0.6,0.4,1,0,,,,,,,,,,,,
,,66b616b0db06f7953a7c1e1f,66fc9a3f14d92721204982a3,2024-10-02_03h02.03.631,mdp,2024.2.1,Win32,59.88023952,66fa4ebf79326e780c390304,,,,,,,,,,,,,,,,,,,,,411.8651,411.8652,411.8677,412.8353,1,0,right,0.4401,,412.8386,413.636,0,1,left,413.64,413.6416,,1,,0,413.6417,413.6417,413.6436,415.1323,0,44,44,44,1,0.4,0.6,0.6,0.4,,,,,,,,,,,,,,,0.2742,,0.4,0.6,0.4,0.6,0.4,0.6,0.6,0.4,1,0,,,,,,,,,,,,
,,66b616b0db06f7953a7c1e1f,66fc9a3f14d92721204982a3,2024-10-02_03h02.03.631,mdp,2024.2.1,Win32,59.88023952,66fa4ebf79326e780c390304,,,,,,,,,,,,,,,,,,,,,415.1341,415.1342,415.1369,416.1187,0,0,left,0.4425,,416.1229,416.9953,0,1,left,416.9991,417.0007,,0,,0,417.0008,417.0008,417.0025,418.5099,0,45,45,45,1,0.4,0.6,0.6,0.4,,,,,,,,,,,,,,,0.3373,,0.4,0.6,0.4,0.6,0.4,0.6,0.6,0.4,1,0,,,,,,,,,,,,
,,66b616b0db06f7953a7c1e1f,66fc9a3f14d92721204982a3,2024-10-02_03h02.03.631,mdp,2024.2.1,Win32,59.88023952,66fa4ebf79326e780c390304,,,,,,,,,,,,,,,,,,,,,418.5116,418.5116,418.515,419.3127,1,1,right,0.269,,419.3169,420.2602,1,0,right,420.2635,420.2649,,0,,1,420.2649,420.2649,420.2665,421.7683,0,46,46,46,1,0.4,0.6,0.6,0.4,,,,,,,,,,,,,,,0.416,,0.8,0.2,0.8,0.2,0.4,0.6,0.6,0.4,1,0,,,,,,,,,,,,
,,66b616b0db06f7953a7c1e1f,66fc9a3f14d92721204982a3,2024-10-02_03h02.03.631,mdp,2024.2.1,Win32,59.88023952,66fa4ebf79326e780c390304,,,,,,,,,,,,,,,,,,,,,421.7692,421.7692,421.7705,422.4251,1,1,right,0.1183,,422.4274,423.3425,1,1,right,423.3457,423.3473,,1,,0,423.3474,423.3475,423.3493,424.8366,0,47,47,47,1,0.4,0.6,0.6,0.4,,,,,,,,,,,,,,,0.3884,,0.8,0.2,0.8,0.2,0.4,0.6,0.6,0.4,1,0,,,,,,,,,,,,
,,66b616b0db06f7953a7c1e1f,66fc9a3f14d92721204982a3,2024-10-02_03h02.03.631,mdp,2024.2.1,Win32,59.88023952,66fa4ebf79326e780c390304,,,,,,,,,,,,,,,,,,,,,424.8388,424.8388,424.8413,426.2072,1,0,right,0.8504,,426.2112,426.9418,0,1,left,426.9455,426.9472,,0,,0,426.9472,426.9473,426.949,428.4507,0,48,48,48,1,0.4,0.6,0.6,0.4,,,,,,,,,,,,,,,0.1875,,0.8,0.2,0.8,0.2,0.4,0.6,0.6,0.4,1,0,,,,,,,,,,,,
,,66b616b0db06f7953a7c1e1f,66fc9a3f14d92721204982a3,2024-10-02_03h02.03.631,mdp,2024.2.1,Win32,59.88023952,66fa4ebf79326e780c390304,,,,,,,,,,,,,,,,,,,,,428.4524,428.4527,428.4553,431.2681,0,1,left,2.2867,,431.2719,432.3344,1,0,right,432.3383,432.3399,,0,,1,432.34,432.34,432.3418,433.8297,0,49,49,49,1,0.4,0.6,0.6,0.4,,,,,,,,,,,,,,,0.5338,,0.8,0.2,0.8,0.2,0.4,0.6,0.6,0.4,1,0,,,,,,,,,,,,
,,66b616b0db06f7953a7c1e1f,66fc9a3f14d92721204982a3,2024-10-02_03h02.03.631,mdp,2024.2.1,Win32,59.88023952,66fa4ebf79326e780c390304,,,,,,,,,,,,,,,,,,,,,,,,,,,,,,,,,,,,,,,,,,,,,,,,,,,,,,,,433.83,492.3473,0,1,1,6,1,imgs/cat.png,imgs/giraffe.png,imgs/lion.png,imgs/rabbit.png,imgs/kangaroo.png,,,,,,,,,,,,,,,,,,,,,,,,
,,66b616b0db06f7953a7c1e1f,66fc9a3f14d92721204982a3,2024-10-02_03h02.03.631,mdp,2024.2.1,Win32,59.88023952,66fa4ebf79326e780c390304,,,,,,,,,,,,,,3,seqs/st3seq13.csv,492.3867,494.9407,space,2.0127,,494.9681,494.9681,494.9693,497.9076,0,0,left,2.3952,,497.9118,498.5221,0,0,left,498.5262,499.961,1,1,right,0,499.9612,499.9612,499.9648,501.4647,0,0,0,0,1,0.2,0.8,0.2,0.8,,,,,,,,,,,,,,,0.0845,,0.8,0.2,0.8,0.2,0.6,0.4,0.2,0.8,,,0.9038,,0.2,0.8,0.2,0.8,0.8,0.2,0.6,0.4,1,0
,,66b616b0db06f7953a7c1e1f,66fc9a3f14d92721204982a3,2024-10-02_03h02.03.631,mdp,2024.2.1,Win32,59.88023952,66fa4ebf79326e780c390304,,,,,,,,,,,,,,,,,,,,,501.4658,501.4659,501.467,502.3254,0,1,left,0.3251,,502.3292,503.1732,1,0,right,503.177,504.6254,1,1,right,0,504.6255,504.6256,504.6291,506.1156,0,1,1,1,1,0.2,0.8,0.2,0.8,,,,,,,,,,,,,,,0.3052,,0.8,0.2,0.8,0.2,0.6,0.4,0.2,0.8,,,0.9249,,0.2,0.8,0.2,0.8,0.8,0.2,0.6,0.4,1,0
,,66b616b0db06f7953a7c1e1f,66fc9a3f14d92721204982a3,2024-10-02_03h02.03.631,mdp,2024.2.1,Win32,59.88023952,66fa4ebf79326e780c390304,,,,,,,,,,,,,,,,,,,,,506.1178,506.1178,506.1205,507.1345,1,1,right,0.4863,,507.1383,507.9195,1,1,right,507.9234,508.6533,0,0,left,1,508.6535,508.6535,508.6568,510.1514,0,2,2,2,1,0.2,0.8,0.2,0.8,,,,,,,,,,,,,,,0.2541,,0.8,0.2,0.8,0.2,0.6,0.4,0.2,0.8,,,0.2017,,0.2,0.8,0.2,0.8,0.8,0.2,0.6,0.4,1,0
,,66b616b0db06f7953a7c1e1f,66fc9a3f14d92721204982a3,2024-10-02_03h02.03.631,mdp,2024.2.1,Win32,59.88023952,66fa4ebf79326e780c390304,,,,,,,,,,,,,,,,,,,,,510.1534,510.1535,510.1562,510.9813,1,1,right,0.2999,,510.9839,511.7834,1,0,right,511.7871,512.591,1,1,right,0,512.5911,512.5912,512.5961,514.0741,0,3,3,3,1,0.2,0.8,0.2,0.8,,,,,,,,,,,,,,,0.2808,,0.8,0.2,0.8,0.2,0.6,0.4,0.2,0.8,,,0.2782,,0.4,0.6,0.6,0.4,0.8,0.2,0.6,0.4,1,0
,,66b616b0db06f7953a7c1e1f,66fc9a3f14d92721204982a3,2024-10-02_03h02.03.631,mdp,2024.2.1,Win32,59.88023952,66fa4ebf79326e780c390304,,,,,,,,,,,,,,,,,,,,,514.0758,514.0758,514.0793,514.9781,1,1,right,0.3716,,514.9821,515.8027,0,1,left,515.8069,516.9282,0,1,left,0,516.9284,516.9285,516.9319,518.4063,0,4,4,4,1,0.2,0.8,0.2,0.8,,,,,,,,,,,,,,,0.2988,,0.8,0.2,0.8,0.2,0.6,0.4,0.2,0.8,,,0.6021,,0.4,0.6,0.6,0.4,0.8,0.2,0.6,0.4,1,0
,,66b616b0db06f7953a7c1e1f,66fc9a3f14d92721204982a3,2024-10-02_03h02.03.631,mdp,2024.2.1,Win32,59.88023952,66fa4ebf79326e780c390304,,,,,,,,,,,,,,,,,,,,,518.4084,518.4086,518.4109,518.9911,0,1,left,0.0576,,518.9939,520.1031,0,0,left,520.1068,520.674,1,1,right,0,520.6742,520.6742,520.6766,522.1667,0,5,5,5,1,0.2,0.8,0.2,0.8,,,,,,,,,,,,,,,0.5787,,0.8,0.2,0.8,0.2,0.6,0.4,0.2,0.8,,,0.0313,,0.4,0.6,0.6,0.4,0.8,0.2,0.6,0.4,1,0
,,66b616b0db06f7953a7c1e1f,66fc9a3f14d92721204982a3,2024-10-02_03h02.03.631,mdp,2024.2.1,Win32,59.88023952,66fa4ebf79326e780c390304,,,,,,,,,,,,,,,,,,,,,522.1693,522.1693,522.1719,522.8223,1,0,right,0.1237,,522.8259,523.6379,1,1,right,523.6418,524.2379,0,0,left,1,524.2382,524.2382,524.2405,525.7317,0,6,6,6,1,0.2,0.8,0.2,0.8,,,,,,,,,,,,,,,0.2721,,0.8,0.2,0.8,0.2,0.6,0.4,0.2,0.8,,,0.0646,,0.6,0.4,0.2,0.8,0.8,0.2,0.6,0.4,1,0
,,66b616b0db06f7953a7c1e1f,66fc9a3f14d92721204982a3,2024-10-02_03h02.03.631,mdp,2024.2.1,Win32,59.88023952,66fa4ebf79326e780c390304,,,,,,,,,,,,,,,,,,,,,525.7336,525.7336,525.7367,526.319,1,1,right,0.0563,,526.3228,526.8955,1,1,right,526.9015,527.5698,0,0,left,1,527.57,527.57,527.5736,529.0771,0,7,7,7,1,0.2,0.8,0.2,0.8,,,,,,,,,,,,,,,0.0409,,0.8,0.2,0.8,0.2,0.6,0.4,0.2,0.8,,,0.1551,,0.6,0.4,0.2,0.8,0.8,0.2,0.6,0.4,1,0
,,66b616b0db06f7953a7c1e1f,66fc9a3f14d92721204982a3,2024-10-02_03h02.03.631,mdp,2024.2.1,Win32,59.88023952,66fa4ebf79326e780c390304,,,,,,,,,,,,,,,,,,,,,529.0802,529.0802,529.0826,531.6658,1,1,right,2.0521,,531.6692,532.197,1,1,right,532.2011,533.0492,0,0,left,1,533.0494,533.0494,533.0529,534.5431,0,8,8,8,1,0.2,0.8,0.2,0.8,,,,,,,,,,,,,,,0.0011,,0.8,0.2,0.8,0.2,0.6,0.4,0.2,0.8,,,0.3132,,0.6,0.4,0.2,0.8,0.8,0.2,0.6,0.4,1,0
,,66b616b0db06f7953a7c1e1f,66fc9a3f14d92721204982a3,2024-10-02_03h02.03.631,mdp,2024.2.1,Win32,59.88023952,66fa4ebf79326e780c390304,,,,,,,,,,,,,,,,,,,,,534.5445,534.5445,534.5469,535.6772,1,1,right,0.5984,,535.6797,536.4871,1,0,right,536.4892,537.3739,0,0,left,1,537.3743,537.3744,537.3772,538.8703,0,9,9,9,1,0.2,0.8,0.2,0.8,,,,,,,,,,,,,,,0.2808,,0.8,0.2,0.8,0.2,0.6,0.4,0.2,0.8,,,0.3599,,0.6,0.4,0.2,0.8,0.8,0.2,0.6,0.4,1,0
,,66b616b0db06f7953a7c1e1f,66fc9a3f14d92721204982a3,2024-10-02_03h02.03.631,mdp,2024.2.1,Win32,59.88023952,66fa4ebf79326e780c390304,,,,,,,,,,,,,,,,,,,,,538.8726,538.8726,538.8757,539.7231,1,1,right,0.3211,,539.7256,540.4017,1,1,right,540.4051,541.1527,0,0,left,1,541.1529,541.1529,541.1558,542.6452,0,10,10,10,1,0.2,0.8,0.2,0.8,,,,,,,,,,,,,,,0.1435,,0.8,0.2,0.8,0.2,0.6,0.4,0.2,0.8,,,0.2287,,0.6,0.4,0.2,0.8,0.8,0.2,0.6,0.4,1,0
,,66b616b0db06f7953a7c1e1f,66fc9a3f14d92721204982a3,2024-10-02_03h02.03.631,mdp,2024.2.1,Win32,59.88023952,66fa4ebf79326e780c390304,,,,,,,,,,,,,,,,,,,,,542.646,542.646,542.6473,543.5209,1,1,right,0.3533,,543.5247,544.4701,1,1,right,544.4738,545.2184,0,0,left,1,545.2186,545.2186,545.222,546.7213,0,11,11,11,1,0.2,0.8,0.2,0.8,,,,,,,,,,,,,,,0.406,,0.8,0.2,0.8,0.2,0.6,0.4,0.2,0.8,,,0.2305,,0.6,0.4,0.2,0.8,0.8,0.2,0.6,0.4,1,0
,,66b616b0db06f7953a7c1e1f,66fc9a3f14d92721204982a3,2024-10-02_03h02.03.631,mdp,2024.2.1,Win32,59.88023952,66fa4ebf79326e780c390304,,,,,,,,,,,,,,,,,,,,,546.7225,546.7225,546.725,547.5142,1,1,right,0.263,,547.5183,548.3856,1,1,right,548.3892,549.2147,0,0,left,1,549.2149,549.215,549.2174,550.7153,0,12,12,12,1,0.2,0.8,0.2,0.8,,,,,,,,,,,,,,,0.3422,,0.8,0.2,0.8,0.2,0.6,0.4,0.2,0.8,,,0.2979,,0.6,0.4,0.2,0.8,0.8,0.2,0.6,0.4,1,0
,,66b616b0db06f7953a7c1e1f,66fc9a3f14d92721204982a3,2024-10-02_03h02.03.631,mdp,2024.2.1,Win32,59.88023952,66fa4ebf79326e780c390304,,,,,,,,,,,,,,,,,,,,,550.7172,550.7172,550.7199,551.6476,1,1,right,0.3917,,551.6512,552.2626,1,0,right,552.2651,553.3609,0,1,left,0,553.3612,553.3612,553.3649,554.8713,0,13,13,13,1,0.2,0.8,0.2,0.8,,,,,,,,,,,,,,,0.0853,,0.8,0.2,0.8,0.2,0.6,0.4,0.2,0.8,,,0.5567,,0.6,0.4,0.2,0.8,0.8,0.2,0.6,0.4,1,0
,,66b616b0db06f7953a7c1e1f,66fc9a3f14d92721204982a3,2024-10-02_03h02.03.631,mdp,2024.2.1,Win32,59.88023952,66fa4ebf79326e780c390304,,,,,,,,,,,,,,,,,,,,,554.8739,554.8739,554.8771,555.7109,1,1,right,0.3056,,555.7144,556.3918,1,1,right,556.3946,557.1385,0,0,left,1,557.1386,557.1388,557.1425,558.6221,0,14,14,14,1,0.2,0.8,0.2,0.8,,,,,,,,,,,,,,,0.1552,,0.4,0.6,0.4,0.6,0.6,0.4,0.2,0.8,,,0.2059,,0.6,0.4,0.2,0.8,0.8,0.2,0.6,0.4,1,0
,,66b616b0db06f7953a7c1e1f,66fc9a3f14d92721204982a3,2024-10-02_03h02.03.631,mdp,2024.2.1,Win32,59.88023952,66fa4ebf79326e780c390304,,,,,,,,,,,,,,,,,,,,,558.6242,558.6242,558.6267,559.4083,1,1,right,0.2521,,559.4119,560.3719,1,1,right,560.3743,561.0912,0,0,left,1,561.0914,561.0914,561.095,562.5707,0,15,15,15,1,0.2,0.8,0.2,0.8,,,,,,,,,,,,,,,0.4339,,0.4,0.6,0.4,0.6,0.6,0.4,0.2,0.8,,,0.1798,,0.6,0.4,0.2,0.8,0.8,0.2,0.6,0.4,1,0
,,66b616b0db06f7953a7c1e1f,66fc9a3f14d92721204982a3,2024-10-02_03h02.03.631,mdp,2024.2.1,Win32,59.88023952,66fa4ebf79326e780c390304,,,,,,,,,,,,,,,,,,,,,562.5724,562.5724,562.5748,563.6032,1,1,right,0.4778,,563.6061,564.3066,1,1,right,564.3103,564.935,0,0,left,1,564.9351,564.9351,564.9382,566.4336,0,16,16,16,1,0.2,0.8,0.2,0.8,,,,,,,,,,,,,,,0.1737,,0.4,0.6,0.4,0.6,0.6,0.4,0.2,0.8,,,0.0969,,0.6,0.4,0.2,0.8,0.8,0.2,0.6,0.4,1,0
,,66b616b0db06f7953a7c1e1f,66fc9a3f14d92721204982a3,2024-10-02_03h02.03.631,mdp,2024.2.1,Win32,59.88023952,66fa4ebf79326e780c390304,,,,,,,,,,,,,,,,,,,,,566.4362,566.4362,566.4388,567.2666,1,1,right,0.3025,,567.2703,568.0764,1,1,right,568.0788,568.8823,0,0,left,1,568.8826,568.8827,568.886,570.3756,0,17,17,17,1,0.2,0.8,0.2,0.8,,,,,,,,,,,,,,,0.2811,,0.4,0.6,0.4,0.6,0.6,0.4,0.2,0.8,,,0.2708,,0.6,0.4,0.2,0.8,0.8,0.2,0.6,0.4,1,0
,,66b616b0db06f7953a7c1e1f,66fc9a3f14d92721204982a3,2024-10-02_03h02.03.631,mdp,2024.2.1,Win32,59.88023952,66fa4ebf79326e780c390304,,,,,,,,,,,,,,,,,,,,,570.3766,570.3766,570.3779,570.9436,1,1,right,0.0349,,570.9453,571.7596,1,1,right,571.761,572.5594,0,0,left,1,572.5602,572.5602,572.5627,574.0586,0,18,18,18,1,0.2,0.8,0.2,0.8,,,,,,,,,,,,,,,0.2845,,0.4,0.6,0.4,0.6,0.6,0.4,0.2,0.8,,,0.2664,,0.6,0.4,0.2,0.8,0.8,0.2,0.6,0.4,1,0
,,66b616b0db06f7953a7c1e1f,66fc9a3f14d92721204982a3,2024-10-02_03h02.03.631,mdp,2024.2.1,Win32,59.88023952,66fa4ebf79326e780c390304,,,,,,,,,,,,,,,,,,,,,574.0598,574.0599,574.063,574.9797,1,1,right,0.385,,574.9831,575.5765,1,0,right,575.5802,576.5886,0,1,left,0,576.5888,576.5888,576.5917,578.0848,0,19,19,19,1,0.2,0.8,0.2,0.8,,,,,,,,,,,,,,,0.0737,,0.4,0.6,0.4,0.6,0.6,0.4,0.2,0.8,,,0.4641,,0.4,0.6,0.8,0.2,0.8,0.2,0.6,0.4,1,0
,,66b616b0db06f7953a7c1e1f,66fc9a3f14d92721204982a3,2024-10-02_03h02.03.631,mdp,2024.2.1,Win32,59.88023952,66fa4ebf79326e780c390304,,,,,,,,,,,,,,,,,,,,,578.0869,578.087,578.0899,579.0386,1,1,right,0.4191,,579.0423,579.6223,1,1,right,579.626,580.8213,0,0,left,1,580.8215,580.8216,580.8239,582.3181,0,20,20,20,1,0.2,0.8,0.2,0.8,,,,,,,,,,,,,,,0.0561,,0.4,0.6,0.4,0.6,0.6,0.4,0.2,0.8,,,0.6789,,0.4,0.6,0.8,0.2,0.8,0.2,0.6,0.4,1,0
,,66b616b0db06f7953a7c1e1f,66fc9a3f14d92721204982a3,2024-10-02_03h02.03.631,mdp,2024.2.1,Win32,59.88023952,66fa4ebf79326e780c390304,,,,,,,,,,,,,,,,,,,,,582.3201,582.3201,582.3237,583.2218,1,1,right,0.3739,,583.2254,583.9685,1,1,right,583.9722,584.7747,0,1,left,0,584.7749,584.7749,584.7785,586.2679,0,21,21,21,1,0.2,0.8,0.2,0.8,,,,,,,,,,,,,,,0.2212,,0.4,0.6,0.4,0.6,0.6,0.4,0.2,0.8,,,0.2779,,0.4,0.6,0.8,0.2,0.8,0.2,0.6,0.4,1,0
,,66b616b0db06f7953a7c1e1f,66fc9a3f14d92721204982a3,2024-10-02_03h02.03.631,mdp,2024.2.1,Win32,59.88023952,66fa4ebf79326e780c390304,,,,,,,,,,,,,,,,,,,,,586.2699,586.2701,586.2727,586.8527,1,0,right,0.0582,,586.8561,587.7277,1,0,right,587.7314,589.5127,1,1,right,0,589.513,589.5131,589.5164,590.9954,0,22,22,22,1,0.2,0.8,0.2,0.8,,,,,,,,,,,,,,,0.3468,,0.4,0.6,0.4,0.6,0.6,0.4,0.2,0.8,,,1.2504,,0.4,0.6,0.8,0.2,0.8,0.2,0.6,0.4,1,0
,,66b616b0db06f7953a7c1e1f,66fc9a3f14d92721204982a3,2024-10-02_03h02.03.631,mdp,2024.2.1,Win32,59.88023952,66fa4ebf79326e780c390304,,,,,,,,,,,,,,,,,,,,,590.9975,590.9976,591.0003,592.6604,0,1,left,1.1295,,592.6635,593.6618,0,1,left,593.6655,594.5553,1,0,right,1,594.5554,594.5555,594.5591,596.0477,0,23,23,23,1,0.2,0.8,0.2,0.8,,,,,,,,,,,,,,,0.4548,,0.4,0.6,0.4,0.6,0.6,0.4,0.2,0.8,,,0.3612,,0.2,0.8,0.4,0.6,0.8,0.2,0.6,0.4,1,0
,,66b616b0db06f7953a7c1e1f,66fc9a3f14d92721204982a3,2024-10-02_03h02.03.631,mdp,2024.2.1,Win32,59.88023952,66fa4ebf79326e780c390304,,,,,,,,,,,,,,,,,,,,,596.0497,596.0498,596.0537,597.4384,0,1,left,0.8654,,597.4424,598.4904,0,0,left,598.4938,599.4542,1,0,right,1,599.4546,599.4546,599.4583,600.9646,0,24,24,24,1,0.2,0.8,0.2,0.8,,,,,,,,,,,,,,,0.5313,,0.4,0.6,0.4,0.6,0.6,0.4,0.2,0.8,,,0.4376,,0.4,0.6,0.6,0.4,0.8,0.2,0.6,0.4,1,0
,,66b616b0db06f7953a7c1e1f,66fc9a3f14d92721204982a3,2024-10-02_03h02.03.631,mdp,2024.2.1,Win32,59.88023952,66fa4ebf79326e780c390304,,,,,,,,,,,,,,,,,,,,,600.9669,600.9669,600.97,602.0102,0,0,left,0.4963,,602.0136,602.8776,0,1,left,602.8793,604.5142,0,0,left,1,604.5143,604.5143,604.5169,606.0257,0,25,25,25,1,0.2,0.8,0.2,0.8,,,,,,,,,,,,,,,0.3446,,0.4,0.6,0.4,0.6,0.6,0.4,0.2,0.8,,,1.1155,,0.4,0.6,0.6,0.4,0.8,0.2,0.6,0.4,1,0
,,66b616b0db06f7953a7c1e1f,66fc9a3f14d92721204982a3,2024-10-02_03h02.03.631,mdp,2024.2.1,Win32,59.88023952,66fa4ebf79326e780c390304,,,,,,,,,,,,,,,,,,,,,606.0263,606.0263,606.0281,608.8276,1,1,right,2.2641,,608.83,610.3197,0,0,left,610.3234,611.7934,0,1,left,0,611.7936,611.7937,611.7975,613.2914,0,26,26,26,1,0.2,0.8,0.2,0.8,,,,,,,,,,,,,,,0.9582,,0.4,0.6,0.4,0.6,0.6,0.4,0.2,0.8,,,0.9329,,0.4,0.6,0.6,0.4,0.8,0.2,0.6,0.4,1,0
,,66b616b0db06f7953a7c1e1f,66fc9a3f14d92721204982a3,2024-10-02_03h02.03.631,mdp,2024.2.1,Win32,59.88023952,66fa4ebf79326e780c390304,,,,,,,,,,,,,,,,,,,,,613.2925,613.2925,613.2949,614.145,0,1,left,0.3222,,614.1484,614.9912,0,0,left,614.9945,616.0031,1,1,right,0,616.0032,616.0033,616.0068,617.5014,0,27,27,27,1,0.2,0.8,0.2,0.8,,,,,,,,,,,,,,,0.3194,,0.4,0.6,0.4,0.6,0.6,0.4,0.2,0.8,,,0.4847,,0.4,0.6,0.6,0.4,0.8,0.2,0.6,0.4,1,0
,,66b616b0db06f7953a7c1e1f,66fc9a3f14d92721204982a3,2024-10-02_03h02.03.631,mdp,2024.2.1,Win32,59.88023952,66fa4ebf79326e780c390304,,,,,,,,,,,,,,,,,,,,,617.5031,617.5031,617.5056,618.1209,0,1,left,0.0943,,618.1234,619.0208,0,0,left,619.0235,621.1228,1,0,right,1,621.123,621.1231,621.1267,622.6126,0,28,28,28,1,0.2,0.8,0.2,0.8,,,,,,,,,,,,,,,0.361,,0.4,0.6,0.4,0.6,0.6,0.4,0.2,0.8,,,1.5575,,0.4,0.6,0.6,0.4,0.8,0.2,0.6,0.4,1,0
,,66b616b0db06f7953a7c1e1f,66fc9a3f14d92721204982a3,2024-10-02_03h02.03.631,mdp,2024.2.1,Win32,59.88023952,66fa4ebf79326e780c390304,,,,,,,,,,,,,,,,,,,,,622.6136,622.6136,622.6147,624.7497,0,1,left,1.6034,,624.752,625.6812,0,0,left,625.685,626.7221,1,1,right,0,626.7222,626.7222,626.7257,628.2131,0,29,29,29,1,0.2,0.8,0.2,0.8,,,,,,,,,,,,,,,0.3992,,0.4,0.6,0.4,0.6,0.6,0.4,0.2,0.8,,,0.509,,0.4,0.6,0.6,0.4,0.8,0.2,0.6,0.4,1,0
,,66b616b0db06f7953a7c1e1f,66fc9a3f14d92721204982a3,2024-10-02_03h02.03.631,mdp,2024.2.1,Win32,59.88023952,66fa4ebf79326e780c390304,,,,,,,,,,,,,,,,,,,,,628.2154,628.2155,628.2179,629.5624,0,1,left,0.8046,,629.5658,630.3958,0,0,left,630.3995,631.7728,1,0,right,1,631.773,631.773,631.777,633.2612,0,30,30,30,1,0.2,0.8,0.2,0.8,,,,,,,,,,,,,,,0.2914,,0.4,0.6,0.4,0.6,0.6,0.4,0.2,0.8,,,0.8345,,0.8,0.2,0.4,0.6,0.8,0.2,0.6,0.4,1,0
,,66b616b0db06f7953a7c1e1f,66fc9a3f14d92721204982a3,2024-10-02_03h02.03.631,mdp,2024.2.1,Win32,59.88023952,66fa4ebf79326e780c390304,,,,,,,,,,,,,,,,,,,,,633.2633,633.2633,633.2661,634.7935,0,1,left,0.9913,,634.7971,635.9741,0,0,left,635.9776,636.8133,1,0,right,1,636.8135,636.8135,636.817,638.3061,0,31,31,31,1,0.2,0.8,0.2,0.8,,,,,,,,,,,,,,,0.6563,,0.4,0.6,0.4,0.6,0.6,0.4,0.2,0.8,,,0.2961,,0.8,0.2,0.4,0.6,0.8,0.2,0.6,0.4,1,0
,,66b616b0db06f7953a7c1e1f,66fc9a3f14d92721204982a3,2024-10-02_03h02.03.631,mdp,2024.2.1,Win32,59.88023952,66fa4ebf79326e780c390304,,,,,,,,,,,,,,,,,,,,,638.3082,638.3082,638.3109,639.2422,0,1,left,0.4092,,639.2447,640.1043,0,0,left,640.1077,640.9218,1,0,right,1,640.9221,640.9221,640.9254,642.4195,0,32,32,32,1,0.2,0.8,0.2,0.8,,,,,,,,,,,,,,,0.3358,,0.4,0.6,0.4,0.6,0.2,0.8,0.8,0.2,,,0.2871,,0.8,0.2,0.4,0.6,0.8,0.2,0.6,0.4,1,0
,,66b616b0db06f7953a7c1e1f,66fc9a3f14d92721204982a3,2024-10-02_03h02.03.631,mdp,2024.2.1,Win32,59.88023952,66fa4ebf79326e780c390304,,,,,,,,,,,,,,,,,,,,,642.42,642.42,642.4211,643.6662,0,1,left,0.7101,,643.6686,644.4492,0,1,left,644.4532,645.3095,1,1,right,0,645.3117,645.3117,645.3148,646.8016,0,33,33,33,1,0.2,0.8,0.2,0.8,,,,,,,,,,,,,,,0.2546,,0.4,0.6,0.4,0.6,0.2,0.8,0.8,0.2,,,0.3331,,0.8,0.2,0.4,0.6,0.8,0.2,0.6,0.4,1,0
,,66b616b0db06f7953a7c1e1f,66fc9a3f14d92721204982a3,2024-10-02_03h02.03.631,mdp,2024.2.1,Win32,59.88023952,66fa4ebf79326e780c390304,,,,,,,,,,,,,,,,,,,,,646.8032,646.8032,646.8065,647.4954,1,1,right,0.1662,,647.4996,648.3148,1,0,right,648.3183,648.8771,0,0,left,1,648.8774,648.8774,648.8807,650.3588,0,34,34,34,1,0.2,0.8,0.2,0.8,,,,,,,,,,,,,,,0.2902,,0.4,0.6,0.4,0.6,0.2,0.8,0.8,0.2,,,0.0201,,0.6,0.4,0.8,0.2,0.8,0.2,0.6,0.4,1,0
,,66b616b0db06f7953a7c1e1f,66fc9a3f14d92721204982a3,2024-10-02_03h02.03.631,mdp,2024.2.1,Win32,59.88023952,66fa4ebf79326e780c390304,,,,,,,,,,,,,,,,,,,,,650.3608,650.3608,650.3638,651.0904,1,0,right,0.1841,,651.0933,651.9936,1,0,right,651.997,652.8535,0,0,left,1,652.8538,652.8538,652.8551,654.3535,0,35,35,35,1,0.2,0.8,0.2,0.8,,,,,,,,,,,,,,,0.3726,,0.4,0.6,0.4,0.6,0.2,0.8,0.8,0.2,,,0.3178,,0.6,0.4,0.8,0.2,0.8,0.2,0.6,0.4,1,0
,,66b616b0db06f7953a7c1e1f,66fc9a3f14d92721204982a3,2024-10-02_03h02.03.631,mdp,2024.2.1,Win32,59.88023952,66fa4ebf79326e780c390304,,,,,,,,,,,,,,,,,,,,,654.3557,654.3557,654.3582,655.7715,1,1,right,0.8948,,655.7728,656.3273,1,1,right,656.3313,657.5407,0,0,left,1,657.5411,657.5411,657.5437,659.0328,0,36,36,36,1,0.2,0.8,0.2,0.8,,,,,,,,,,,,,,,0.0177,,0.4,0.6,0.4,0.6,0.2,0.8,0.8,0.2,,,0.6834,,0.6,0.4,0.8,0.2,0.8,0.2,0.6,0.4,1,0
,,66b616b0db06f7953a7c1e1f,66fc9a3f14d92721204982a3,2024-10-02_03h02.03.631,mdp,2024.2.1,Win32,59.88023952,66fa4ebf79326e780c390304,,,,,,,,,,,,,,,,,,,,,659.0349,659.035,659.0376,660.0034,1,1,right,0.4395,,660.0069,660.8025,1,0,right,660.8062,662.1173,0,0,left,1,662.1174,662.1174,662.1198,663.6267,0,37,37,37,1,0.2,0.8,0.2,0.8,,,,,,,,,,,,,,,0.2566,,0.4,0.6,0.4,0.6,0.2,0.8,0.8,0.2,,,0.7831,,0.6,0.4,0.8,0.2,0.8,0.2,0.6,0.4,1,0
,,66b616b0db06f7953a7c1e1f,66fc9a3f14d92721204982a3,2024-10-02_03h02.03.631,mdp,2024.2.1,Win32,59.88023952,66fa4ebf79326e780c390304,,,,,,,,,,,,,,,,,,,,,663.6296,663.6296,663.6319,664.5142,1,1,right,0.3549,,664.5167,665.5437,1,0,right,665.5473,666.2473,0,1,left,0,666.2476,666.2476,666.2514,667.7397,0,38,38,38,1,0.2,0.8,0.2,0.8,,,,,,,,,,,,,,,0.5005,,0.4,0.6,0.4,0.6,0.2,0.8,0.8,0.2,,,0.1732,,0.6,0.4,0.8,0.2,0.8,0.2,0.6,0.4,1,0
,,66b616b0db06f7953a7c1e1f,66fc9a3f14d92721204982a3,2024-10-02_03h02.03.631,mdp,2024.2.1,Win32,59.88023952,66fa4ebf79326e780c390304,,,,,,,,,,,,,,,,,,,,,667.7423,667.7425,667.7448,668.6445,1,1,right,0.3846,,668.6482,669.6773,0,1,left,669.6798,671.6911,0,0,left,1,671.6913,671.6914,671.6939,673.1966,0,39,39,39,1,0.2,0.8,0.2,0.8,,,,,,,,,,,,,,,0.4956,,0.6,0.4,0.2,0.8,0.2,0.8,0.8,0.2,,,1.4823,,0.6,0.4,0.8,0.2,0.8,0.2,0.6,0.4,1,0
,,66b616b0db06f7953a7c1e1f,66fc9a3f14d92721204982a3,2024-10-02_03h02.03.631,mdp,2024.2.1,Win32,59.88023952,66fa4ebf79326e780c390304,,,,,,,,,,,,,,,,,,,,,673.1984,673.1985,673.201,673.8279,1,1,right,0.0934,,673.8314,674.757,1,0,right,674.7608,676.0323,0,1,left,0,676.0323,676.0324,676.0364,677.5341,0,40,40,40,1,0.2,0.8,0.2,0.8,,,,,,,,,,,,,,,0.3898,,0.6,0.4,0.2,0.8,0.2,0.8,0.8,0.2,,,0.7353,,0.6,0.4,0.8,0.2,0.8,0.2,0.6,0.4,1,0
,,66b616b0db06f7953a7c1e1f,66fc9a3f14d92721204982a3,2024-10-02_03h02.03.631,mdp,2024.2.1,Win32,59.88023952,66fa4ebf79326e780c390304,,,,,,,,,,,,,,,,,,,,,677.5359,677.5359,677.539,678.3993,0,1,left,0.332,,678.4033,679.2098,0,1,left,679.2135,680.052,1,0,right,1,680.0522,680.0522,680.0565,681.5308,0,41,41,41,1,0.2,0.8,0.2,0.8,,,,,,,,,,,,,,,0.2757,,0.6,0.4,0.2,0.8,0.2,0.8,0.8,0.2,,,0.3183,,0.6,0.4,0.8,0.2,0.8,0.2,0.6,0.4,1,0
,,66b616b0db06f7953a7c1e1f,66fc9a3f14d92721204982a3,2024-10-02_03h02.03.631,mdp,2024.2.1,Win32,59.88023952,66fa4ebf79326e780c390304,,,,,,,,,,,,,,,,,,,,,681.5329,681.533,681.5356,682.3513,0,0,left,0.2717,,682.3554,683.1683,0,0,left,683.1719,684.1645,1,0,right,1,684.1647,684.1647,684.1684,685.6727,0,42,42,42,1,0.2,0.8,0.2,0.8,,,,,,,,,,,,,,,0.2837,,0.6,0.4,0.2,0.8,0.2,0.8,0.8,0.2,,,0.4505,,0.6,0.4,0.8,0.2,0.8,0.2,0.6,0.4,1,0
,,66b616b0db06f7953a7c1e1f,66fc9a3f14d92721204982a3,2024-10-02_03h02.03.631,mdp,2024.2.1,Win32,59.88023952,66fa4ebf79326e780c390304,,,,,,,,,,,,,,,,,,,,,685.6737,685.6737,685.6754,686.2797,0,1,left,0.0691,,686.2826,687.2006,0,1,left,687.2032,688.2067,1,1,right,0,688.2068,688.2068,688.2105,689.7055,0,43,43,43,1,0.2,0.8,0.2,0.8,,,,,,,,,,,,,,,0.3935,,0.6,0.4,0.2,0.8,0.2,0.8,0.8,0.2,,,0.4655,,0.6,0.4,0.8,0.2,0.8,0.2,0.6,0.4,1,0
,,66b616b0db06f7953a7c1e1f,66fc9a3f14d92721204982a3,2024-10-02_03h02.03.631,mdp,2024.2.1,Win32,59.88023952,66fa4ebf79326e780c390304,,,,,,,,,,,,,,,,,,,,,689.7081,689.7081,689.7109,690.7417,1,1,right,0.5015,,690.7454,691.81,1,0,right,691.8127,692.9238,0,0,left,1,692.9239,692.924,692.9275,694.4185,0,44,44,44,1,0.2,0.8,0.2,0.8,,,,,,,,,,,,,,,0.5381,,0.6,0.4,0.2,0.8,0.2,0.8,0.8,0.2,,,0.5687,,0.6,0.4,0.8,0.2,0.8,0.2,0.6,0.4,1,0
,,66b616b0db06f7953a7c1e1f,66fc9a3f14d92721204982a3,2024-10-02_03h02.03.631,mdp,2024.2.1,Win32,59.88023952,66fa4ebf79326e780c390304,,,,,,,,,,,,,,,,,,,,,694.4207,694.4207,694.4231,695.1052,1,1,right,0.1363,,695.1089,695.7918,1,0,right,695.7954,696.9468,0,1,left,0,696.9469,696.9469,696.9485,698.4501,0,45,45,45,1,0.2,0.8,0.2,0.8,,,,,,,,,,,,,,,0.1565,,0.6,0.4,0.2,0.8,0.2,0.8,0.8,0.2,,,0.6332,,0.6,0.4,0.8,0.2,0.8,0.2,0.6,0.4,1,0
,,66b616b0db06f7953a7c1e1f,66fc9a3f14d92721204982a3,2024-10-02_03h02.03.631,mdp,2024.2.1,Win32,59.88023952,66fa4ebf79326e780c390304,,,,,,,,,,,,,,,,,,,,,698.451,698.451,698.4535,699.6516,1,1,right,0.672,,699.6543,700.616,1,0,right,700.6182,701.7498,1,0,right,1,701.7499,701.75,701.7522,703.2465,0,46,46,46,1,0.2,0.8,0.2,0.8,,,,,,,,,,,,,,,0.4351,,0.6,0.4,0.2,0.8,0.2,0.8,0.8,0.2,,,0.6046,,0.6,0.4,0.8,0.2,0.8,0.2,0.6,0.4,1,0
,,66b616b0db06f7953a7c1e1f,66fc9a3f14d92721204982a3,2024-10-02_03h02.03.631,mdp,2024.2.1,Win32,59.88023952,66fa4ebf79326e780c390304,,,,,,,,,,,,,,,,,,,,,703.2474,703.2474,703.2498,705.1181,1,0,right,1.3519,,705.1209,705.9786,1,1,right,705.9826,707.1852,0,0,left,1,707.1853,707.1853,707.1886,708.6723,0,47,47,47,1,0.2,0.8,0.2,0.8,,,,,,,,,,,,,,,0.3167,,0.6,0.4,0.2,0.8,0.2,0.8,0.8,0.2,,,0.6791,,0.6,0.4,0.8,0.2,0.8,0.2,0.6,0.4,1,0
,,66b616b0db06f7953a7c1e1f,66fc9a3f14d92721204982a3,2024-10-02_03h02.03.631,mdp,2024.2.1,Win32,59.88023952,66fa4ebf79326e780c390304,,,,,,,,,,,,,,,,,,,,,708.6745,708.6746,708.6778,709.547,1,1,right,0.3378,,709.5505,710.7201,0,1,left,710.7244,712.3169,0,0,left,1,712.3171,712.3172,712.3233,713.8065,0,48,48,48,1,0.2,0.8,0.2,0.8,,,,,,,,,,,,,,,0.6431,,0.6,0.4,0.2,0.8,0.2,0.8,0.8,0.2,,,1.078,,0.6,0.4,0.8,0.2,0.2,0.8,0.8,0.2,1,0
,,66b616b0db06f7953a7c1e1f,66fc9a3f14d92721204982a3,2024-10-02_03h02.03.631,mdp,2024.2.1,Win32,59.88023952,66fa4ebf79326e780c390304,,,,,,,,,,,,,,,,,,,,,713.8088,713.8089,713.8114,715.3567,1,0,right,1.0061,,715.3604,716.2354,0,1,left,716.2395,717.382,0,1,left,0,717.3823,717.3823,717.3855,718.877,0,49,49,49,1,0.2,0.8,0.2,0.8,,,,,,,,,,,,,,,0.3481,,0.6,0.4,0.2,0.8,0.2,0.8,0.8,0.2,,,0.6281,,0.6,0.4,0.8,0.2,0.2,0.8,0.8,0.2,1,0
,,66b616b0db06f7953a7c1e1f,66fc9a3f14d92721204982a3,2024-10-02_03h02.03.631,mdp,2024.2.1,Win32,59.88023952,66fa4ebf79326e780c390304,,,,,,,,,,,,,,,,,,,,,,,,,,,,,,,,,,,,,,,,,,,,,,,,,,,,,,,,718.8774,777.3847,0,2,2,0,1,imgs/kangaroo.png,imgs/giraffe.png,imgs/pig.png,imgs/lion.png,imgs/cat.png,,,,,,,,,,,,,,,,,,,,,,,,
,,66b616b0db06f7953a7c1e1f,66fc9a3f14d92721204982a3,2024-10-02_03h02.03.631,mdp,2024.2.1,Win32,59.88023952,66fa4ebf79326e780c390304,,,,,,,,,,,,,,3,seqs/st3seq22.csv,777.4238,779.7768,space,1.8275,,779.7975,779.7976,779.8003,783.0132,1,1,right,2.6702,,783.0172,783.7242,1,1,right,783.7278,785.1421,0,1,left,0,785.1423,785.1423,785.1461,786.6221,0,0,0,0,1,0.6,0.4,0.4,0.6,,,,,,,,,,,,,,,0.1312,,0.8,0.2,0.6,0.4,0.2,0.8,0.8,0.2,,,0.8919,,0.4,0.6,0.2,0.8,0.8,0.2,0.2,0.8,1,0
,,66b616b0db06f7953a7c1e1f,66fc9a3f14d92721204982a3,2024-10-02_03h02.03.631,mdp,2024.2.1,Win32,59.88023952,66fa4ebf79326e780c390304,,,,,,,,,,,,,,,,,,,,,786.6233,786.6234,786.6269,787.4872,0,1,left,0.3308,,787.4912,788.2089,0,1,left,788.212,788.9892,1,1,right,0,788.9893,788.9893,788.9917,790.4872,0,1,1,1,1,0.6,0.4,0.4,0.6,,,,,,,,,,,,,,,0.2006,,0.8,0.2,0.6,0.4,0.2,0.8,0.8,0.2,,,0.2371,,0.4,0.6,0.2,0.8,0.8,0.2,0.2,0.8,1,0
,,66b616b0db06f7953a7c1e1f,66fc9a3f14d92721204982a3,2024-10-02_03h02.03.631,mdp,2024.2.1,Win32,59.88023952,66fa4ebf79326e780c390304,,,,,,,,,,,,,,,,,,,,,790.4892,790.4893,790.4919,791.3868,0,1,left,0.366,,791.391,792.4561,0,1,left,792.4595,793.3847,1,1,right,0,793.3852,793.3852,793.3894,794.887,0,2,2,2,1,0.6,0.4,0.4,0.6,,,,,,,,,,,,,,,0.5403,,0.8,0.2,0.6,0.4,0.2,0.8,0.8,0.2,,,0.4001,,0.4,0.6,0.2,0.8,0.8,0.2,0.2,0.8,1,0
,,66b616b0db06f7953a7c1e1f,66fc9a3f14d92721204982a3,2024-10-02_03h02.03.631,mdp,2024.2.1,Win32,59.88023952,66fa4ebf79326e780c390304,,,,,,,,,,,,,,,,,,,,,794.889,794.889,794.8917,795.7194,1,1,right,0.2991,,795.7228,796.3328,1,0,right,796.3352,797.1336,0,0,left,1,797.1338,797.1338,797.1363,798.6315,0,3,3,3,1,0.6,0.4,0.4,0.6,,,,,,,,,,,,,,,0.0818,,0.8,0.2,0.6,0.4,0.2,0.8,0.8,0.2,,,0.2485,,0.6,0.4,0.6,0.4,0.8,0.2,0.2,0.8,1,0
,,66b616b0db06f7953a7c1e1f,66fc9a3f14d92721204982a3,2024-10-02_03h02.03.631,mdp,2024.2.1,Win32,59.88023952,66fa4ebf79326e780c390304,,,,,,,,,,,,,,,,,,,,,798.6336,798.6337,798.6364,799.3842,1,0,right,0.2087,,799.388,800.1971,1,0,right,800.2006,801.0258,0,0,left,1,801.026,801.026,801.0302,802.525,0,4,4,4,1,0.6,0.4,0.4,0.6,,,,,,,,,,,,,,,0.2764,,0.8,0.2,0.6,0.4,0.2,0.8,0.8,0.2,,,0.3031,,0.6,0.4,0.6,0.4,0.8,0.2,0.2,0.8,1,0
,,66b616b0db06f7953a7c1e1f,66fc9a3f14d92721204982a3,2024-10-02_03h02.03.631,mdp,2024.2.1,Win32,59.88023952,66fa4ebf79326e780c390304,,,,,,,,,,,,,,,,,,,,,802.5272,802.5272,802.5298,803.41,1,1,right,0.3497,,803.4137,804.2401,1,0,right,804.2442,805.0213,0,1,left,0,805.0215,805.0215,805.0258,806.5219,0,5,5,5,1,0.6,0.4,0.4,0.6,,,,,,,,,,,,,,,0.2965,,0.8,0.2,0.6,0.4,0.2,0.8,0.8,0.2,,,0.2604,,0.6,0.4,0.6,0.4,0.8,0.2,0.2,0.8,1,0
,,66b616b0db06f7953a7c1e1f,66fc9a3f14d92721204982a3,2024-10-02_03h02.03.631,mdp,2024.2.1,Win32,59.88023952,66fa4ebf79326e780c390304,,,,,,,,,,,,,,,,,,,,,806.5244,806.5244,806.5271,807.9364,0,1,left,0.881,,807.9407,808.7468,0,0,left,808.7495,809.5235,1,0,right,1,809.5237,809.5237,809.5276,811.001,0,6,6,6,1,0.6,0.4,0.4,0.6,,,,,,,,,,,,,,,0.2711,,0.8,0.2,0.6,0.4,0.2,0.8,0.8,0.2,,,0.2508,,0.6,0.4,0.6,0.4,0.8,0.2,0.2,0.8,1,0
,,66b616b0db06f7953a7c1e1f,66fc9a3f14d92721204982a3,2024-10-02_03h02.03.631,mdp,2024.2.1,Win32,59.88023952,66fa4ebf79326e780c390304,,,,,,,,,,,,,,,,,,,,,811.0028,811.0029,811.0061,812.2525,0,0,left,0.7159,,812.2565,813.0689,0,1,left,813.0713,814.7004,0,0,left,1,814.7006,814.7007,814.7044,816.1816,0,7,7,7,1,0.6,0.4,0.4,0.6,,,,,,,,,,,,,,,0.2808,,0.8,0.2,0.6,0.4,0.2,0.8,0.8,0.2,,,1.1022,,0.6,0.4,0.6,0.4,0.8,0.2,0.2,0.8,1,0
,,66b616b0db06f7953a7c1e1f,66fc9a3f14d92721204982a3,2024-10-02_03h02.03.631,mdp,2024.2.1,Win32,59.88023952,66fa4ebf79326e780c390304,,,,,,,,,,,,,,,,,,,,,816.1837,816.1837,816.1867,818.6476,0,0,left,1.9256,,818.6501,819.9489,0,0,left,819.9526,822.1437,1,0,right,1,822.1439,822.1439,822.1462,823.6403,0,8,8,8,1,0.6,0.4,0.4,0.6,,,,,,,,,,,,,,,0.76,,0.8,0.2,0.6,0.4,0.2,0.8,0.8,0.2,,,1.6625,,0.6,0.4,0.6,0.4,0.8,0.2,0.2,0.8,1,0
,,66b616b0db06f7953a7c1e1f,66fc9a3f14d92721204982a3,2024-10-02_03h02.03.631,mdp,2024.2.1,Win32,59.88023952,66fa4ebf79326e780c390304,,,,,,,,,,,,,,,,,,,,,823.6426,823.6426,823.6452,826.4695,0,0,left,2.2944,,826.5067,827.4358,0,0,left,827.4394,828.6829,1,1,right,0,828.683,828.683,828.6864,830.168,0,9,9,9,1,0.6,0.4,0.4,0.6,,,,,,,,,,,,,,,0.4332,,0.8,0.2,0.6,0.4,0.2,0.8,0.8,0.2,,,0.7155,,0.6,0.4,0.6,0.4,0.8,0.2,0.2,0.8,1,0
,,66b616b0db06f7953a7c1e1f,66fc9a3f14d92721204982a3,2024-10-02_03h02.03.631,mdp,2024.2.1,Win32,59.88023952,66fa4ebf79326e780c390304,,,,,,,,,,,,,,,,,,,,,830.1703,830.1704,830.1728,831.1352,1,1,right,0.4213,,831.1394,831.9023,1,0,right,831.9061,832.7351,0,1,left,0,832.7353,832.7354,832.739,834.2312,0,10,10,10,1,0.6,0.4,0.4,0.6,,,,,,,,,,,,,,,0.244,,0.8,0.2,0.6,0.4,0.2,0.8,0.8,0.2,,,0.3058,,0.6,0.4,0.6,0.4,0.8,0.2,0.2,0.8,1,0
,,66b616b0db06f7953a7c1e1f,66fc9a3f14d92721204982a3,2024-10-02_03h02.03.631,mdp,2024.2.1,Win32,59.88023952,66fa4ebf79326e780c390304,,,,,,,,,,,,,,,,,,,,,834.2322,834.2323,834.2344,835.7169,1,0,right,0.9532,,835.7192,836.4419,1,0,right,836.4439,837.2701,0,1,left,0,837.2703,837.2703,837.2733,838.7601,0,11,11,11,1,0.6,0.4,0.4,0.6,,,,,,,,,,,,,,,0.1828,,0.8,0.2,0.6,0.4,0.2,0.8,0.8,0.2,,,0.2892,,0.6,0.4,0.6,0.4,0.8,0.2,0.2,0.8,1,0
,,66b616b0db06f7953a7c1e1f,66fc9a3f14d92721204982a3,2024-10-02_03h02.03.631,mdp,2024.2.1,Win32,59.88023952,66fa4ebf79326e780c390304,,,,,,,,,,,,,,,,,,,,,838.7624,838.7624,838.7651,839.7707,1,1,right,0.4718,,839.7744,840.4936,1,0,right,840.4974,841.2989,0,1,left,0,841.2991,841.2991,841.3024,842.7908,0,12,12,12,1,0.4,0.6,0.2,0.8,,,,,,,,,,,,,,,0.1945,,0.8,0.2,0.6,0.4,0.2,0.8,0.8,0.2,,,0.2774,,0.6,0.4,0.6,0.4,0.8,0.2,0.2,0.8,1,0
,,66b616b0db06f7953a7c1e1f,66fc9a3f14d92721204982a3,2024-10-02_03h02.03.631,mdp,2024.2.1,Win32,59.88023952,66fa4ebf79326e780c390304,,,,,,,,,,,,,,,,,,,,,842.793,842.7931,842.7955,843.7088,0,1,left,0.3872,,843.7111,844.2849,0,1,left,844.2874,845.2321,1,1,right,0,845.2322,845.2322,845.2407,846.737,0,13,13,13,1,0.4,0.6,0.2,0.8,,,,,,,,,,,,,,,0.0511,,0.8,0.2,0.6,0.4,0.2,0.8,0.8,0.2,,,0.4066,,0.6,0.4,0.6,0.4,0.8,0.2,0.2,0.8,1,0
,,66b616b0db06f7953a7c1e1f,66fc9a3f14d92721204982a3,2024-10-02_03h02.03.631,mdp,2024.2.1,Win32,59.88023952,66fa4ebf79326e780c390304,,,,,,,,,,,,,,,,,,,,,846.739,846.739,846.7417,847.7721,0,1,left,0.4989,,847.7759,848.4542,0,0,left,848.4582,849.405,1,1,right,0,849.4052,849.4052,849.409,850.8848,0,14,14,14,1,0.4,0.6,0.2,0.8,,,,,,,,,,,,,,,0.1555,,0.8,0.2,0.6,0.4,0.4,0.6,0.2,0.8,,,0.4172,,0.6,0.4,0.6,0.4,0.8,0.2,0.2,0.8,1,0
,,66b616b0db06f7953a7c1e1f,66fc9a3f14d92721204982a3,2024-10-02_03h02.03.631,mdp,2024.2.1,Win32,59.88023952,66fa4ebf79326e780c390304,,,,,,,,,,,,,,,,,,,,,850.8869,850.8869,850.8896,851.5478,1,1,right,0.1263,,851.5514,852.1754,1,0,right,852.1788,852.9363,0,1,left,0,852.9364,852.9364,852.9398,854.4305,0,15,15,15,1,0.4,0.6,0.2,0.8,,,,,,,,,,,,,,,0.0943,,0.8,0.2,0.6,0.4,0.4,0.6,0.2,0.8,,,0.2401,,0.6,0.4,0.6,0.4,0.8,0.2,0.2,0.8,1,0
,,66b616b0db06f7953a7c1e1f,66fc9a3f14d92721204982a3,2024-10-02_03h02.03.631,mdp,2024.2.1,Win32,59.88023952,66fa4ebf79326e780c390304,,,,,,,,,,,,,,,,,,,,,854.4313,854.4314,854.4339,855.1167,0,0,left,0.1535,,855.1193,856.1159,0,0,left,856.1197,856.9886,0,0,left,1,856.9887,856.9888,856.9928,858.4951,0,16,16,16,1,0.4,0.6,0.2,0.8,,,,,,,,,,,,,,,0.467,,0.8,0.2,0.6,0.4,0.4,0.6,0.2,0.8,,,0.34,,0.6,0.4,0.6,0.4,0.8,0.2,0.2,0.8,1,0
,,66b616b0db06f7953a7c1e1f,66fc9a3f14d92721204982a3,2024-10-02_03h02.03.631,mdp,2024.2.1,Win32,59.88023952,66fa4ebf79326e780c390304,,,,,,,,,,,,,,,,,,,,,858.4961,858.4962,858.4985,859.7791,0,1,left,0.7535,,859.7816,860.6742,0,0,left,860.6784,861.3105,0,0,left,1,861.3107,861.3107,861.313,862.8051,0,17,17,17,1,0.2,0.8,0.8,0.2,,,,,,,,,,,,,,,0.3639,,0.8,0.2,0.6,0.4,0.4,0.6,0.2,0.8,,,0.0865,,0.6,0.4,0.6,0.4,0.8,0.2,0.2,0.8,1,0
,,66b616b0db06f7953a7c1e1f,66fc9a3f14d92721204982a3,2024-10-02_03h02.03.631,mdp,2024.2.1,Win32,59.88023952,66fa4ebf79326e780c390304,,,,,,,,,,,,,,,,,,,,,862.8071,862.8071,862.8103,863.5074,0,0,left,0.1685,,863.5098,864.3075,0,0,left,864.3113,864.8729,0,1,left,0,864.8733,864.8733,864.8767,866.3673,0,18,18,18,1,0.2,0.8,0.8,0.2,,,,,,,,,,,,,,,0.2641,,0.8,0.2,0.6,0.4,0.4,0.6,0.2,0.8,,,0.0465,,0.6,0.4,0.6,0.4,0.8,0.2,0.2,0.8,1,0
,,66b616b0db06f7953a7c1e1f,66fc9a3f14d92721204982a3,2024-10-02_03h02.03.631,mdp,2024.2.1,Win32,59.88023952,66fa4ebf79326e780c390304,,,,,,,,,,,,,,,,,,,,,866.3696,866.3696,866.3725,867.6235,0,1,left,0.7225,,867.6273,868.3245,0,1,left,868.3283,869.1198,1,1,right,0,869.12,869.12,869.1236,870.6207,0,19,19,19,1,0.2,0.8,0.8,0.2,,,,,,,,,,,,,,,0.1587,,0.8,0.2,0.6,0.4,0.4,0.6,0.2,0.8,,,0.2716,,0.8,0.2,0.8,0.2,0.8,0.2,0.2,0.8,1,0
,,66b616b0db06f7953a7c1e1f,66fc9a3f14d92721204982a3,2024-10-02_03h02.03.631,mdp,2024.2.1,Win32,59.88023952,66fa4ebf79326e780c390304,,,,,,,,,,,,,,,,,,,,,870.6225,870.6227,870.6255,871.5164,1,0,right,0.3678,,871.5202,872.2741,1,0,right,872.2832,873.0669,0,0,left,1,873.067,873.0671,873.0696,874.5622,0,20,20,20,1,0.2,0.8,0.8,0.2,,,,,,,,,,,,,,,0.2288,,0.8,0.2,0.6,0.4,0.4,0.6,0.2,0.8,,,0.2564,,0.8,0.2,0.8,0.2,0.8,0.2,0.2,0.8,1,0
,,66b616b0db06f7953a7c1e1f,66fc9a3f14d92721204982a3,2024-10-02_03h02.03.631,mdp,2024.2.1,Win32,59.88023952,66fa4ebf79326e780c390304,,,,,,,,,,,,,,,,,,,,,874.5641,874.5641,874.5672,875.5979,1,0,right,0.5013,,875.6016,876.6808,1,0,right,876.6837,877.5123,0,1,left,0,877.5126,877.5126,877.5159,879.009,0,21,21,21,1,0.2,0.8,0.8,0.2,,,,,,,,,,,,,,,0.5563,,0.8,0.2,0.6,0.4,0.4,0.6,0.2,0.8,,,0.2995,,0.4,0.6,0.2,0.8,0.8,0.2,0.2,0.8,1,0
,,66b616b0db06f7953a7c1e1f,66fc9a3f14d92721204982a3,2024-10-02_03h02.03.631,mdp,2024.2.1,Win32,59.88023952,66fa4ebf79326e780c390304,,,,,,,,,,,,,,,,,,,,,879.0109,879.0109,879.0141,879.9435,1,0,right,0.3874,,879.9475,880.6561,0,0,left,880.6597,882.4523,0,0,left,1,882.4523,882.4523,882.4541,883.9531,0,22,22,22,1,0.2,0.8,0.8,0.2,,,,,,,,,,,,,,,0.1802,,0.8,0.2,0.6,0.4,0.4,0.6,0.2,0.8,,,1.2647,,0.4,0.6,0.2,0.8,0.8,0.2,0.2,0.8,1,0
,,66b616b0db06f7953a7c1e1f,66fc9a3f14d92721204982a3,2024-10-02_03h02.03.631,mdp,2024.2.1,Win32,59.88023952,66fa4ebf79326e780c390304,,,,,,,,,,,,,,,,,,,,,883.9563,883.9563,883.9589,885.089,1,1,right,0.6125,,885.0929,886.0046,1,1,right,886.0072,887.3034,0,0,left,1,887.3035,887.3035,887.3072,888.8016,0,23,23,23,1,0.2,0.8,0.8,0.2,,,,,,,,,,,,,,,0.3719,,0.4,0.6,0.4,0.6,0.4,0.6,0.2,0.8,,,0.753,,0.4,0.6,0.2,0.8,0.8,0.2,0.2,0.8,1,0
,,66b616b0db06f7953a7c1e1f,66fc9a3f14d92721204982a3,2024-10-02_03h02.03.631,mdp,2024.2.1,Win32,59.88023952,66fa4ebf79326e780c390304,,,,,,,,,,,,,,,,,,,,,888.8025,888.8026,888.805,889.7368,0,1,left,0.4147,,889.7403,890.5176,0,1,left,890.5209,891.4128,1,1,right,0,891.4131,891.4131,891.4162,892.9052,0,24,24,24,1,0.2,0.8,0.8,0.2,,,,,,,,,,,,,,,0.252,,0.4,0.6,0.4,0.6,0.4,0.6,0.2,0.8,,,0.3628,,0.4,0.6,0.2,0.8,0.8,0.2,0.2,0.8,1,0
,,66b616b0db06f7953a7c1e1f,66fc9a3f14d92721204982a3,2024-10-02_03h02.03.631,mdp,2024.2.1,Win32,59.88023952,66fa4ebf79326e780c390304,,,,,,,,,,,,,,,,,,,,,892.9071,892.9073,892.9101,893.4661,1,0,right,0.002,,893.4697,894.2981,1,1,right,894.3019,895.6982,0,0,left,1,895.6983,895.6985,895.7017,897.1758,0,25,25,25,1,0.2,0.8,0.8,0.2,,,,,,,,,,,,,,,0.2977,,0.4,0.6,0.4,0.6,0.4,0.6,0.2,0.8,,,0.8567,,0.4,0.6,0.2,0.8,0.4,0.6,0.6,0.4,1,0
,,66b616b0db06f7953a7c1e1f,66fc9a3f14d92721204982a3,2024-10-02_03h02.03.631,mdp,2024.2.1,Win32,59.88023952,66fa4ebf79326e780c390304,,,,,,,,,,,,,,,,,,,,,897.1779,897.178,897.1808,898.3965,1,0,right,0.6833,,898.4003,899.3773,1,1,right,899.381,900.8997,0,1,left,0,900.8999,900.8999,900.9033,902.4018,0,26,26,26,1,0.2,0.8,0.8,0.2,,,,,,,,,,,,,,,0.456,,0.4,0.6,0.4,0.6,0.4,0.6,0.2,0.8,,,0.9875,,0.4,0.6,0.2,0.8,0.4,0.6,0.6,0.4,1,0
,,66b616b0db06f7953a7c1e1f,66fc9a3f14d92721204982a3,2024-10-02_03h02.03.631,mdp,2024.2.1,Win32,59.88023952,66fa4ebf79326e780c390304,,,,,,,,,,,,,,,,,,,,,902.4048,902.4048,902.4072,903.0254,0,1,left,0.0964,,903.0289,903.5736,0,0,left,903.576,904.5912,1,1,right,0,904.5913,904.5914,904.5947,906.0992,0,27,27,27,1,0.2,0.8,0.8,0.2,,,,,,,,,,,,,,,0.0058,,0.8,0.2,0.2,0.8,0.4,0.6,0.2,0.8,,,0.486,,0.4,0.6,0.2,0.8,0.4,0.6,0.6,0.4,1,0
,,66b616b0db06f7953a7c1e1f,66fc9a3f14d92721204982a3,2024-10-02_03h02.03.631,mdp,2024.2.1,Win32,59.88023952,66fa4ebf79326e780c390304,,,,,,,,,,,,,,,,,,,,,906.1015,906.1015,906.1044,907.1109,0,0,left,0.4784,,907.1145,908.2698,1,1,right,908.2736,909.2181,1,0,right,1,909.2187,909.2187,909.2224,910.6978,0,28,28,28,1,0.2,0.8,0.8,0.2,,,,,,,,,,,,,,,0.6129,,0.8,0.2,0.2,0.8,0.4,0.6,0.2,0.8,,,0.4162,,0.4,0.6,0.2,0.8,0.4,0.6,0.6,0.4,1,0
,,66b616b0db06f7953a7c1e1f,66fc9a3f14d92721204982a3,2024-10-02_03h02.03.631,mdp,2024.2.1,Win32,59.88023952,66fa4ebf79326e780c390304,,,,,,,,,,,,,,,,,,,,,910.6997,910.6997,910.7027,912.0166,0,1,left,0.774,,912.0202,912.9281,0,0,left,912.932,913.9133,1,1,right,0,913.9135,913.9136,913.9174,915.4125,0,29,29,29,1,0.2,0.8,0.8,0.2,,,,,,,,,,,,,,,0.3781,,0.8,0.2,0.2,0.8,0.4,0.6,0.2,0.8,,,0.4475,,0.4,0.6,0.2,0.8,0.4,0.6,0.6,0.4,1,0
,,66b616b0db06f7953a7c1e1f,66fc9a3f14d92721204982a3,2024-10-02_03h02.03.631,mdp,2024.2.1,Win32,59.88023952,66fa4ebf79326e780c390304,,,,,,,,,,,,,,,,,,,,,915.4136,915.4136,915.4163,916.121,0,1,left,0.1738,,916.1256,916.8782,0,0,left,916.8805,917.893,1,1,right,0,917.8933,917.8934,917.8971,919.3826,0,30,30,30,1,0.2,0.8,0.8,0.2,,,,,,,,,,,,,,,0.2203,,0.8,0.2,0.2,0.8,0.4,0.6,0.2,0.8,,,0.4872,,0.4,0.6,0.2,0.8,0.4,0.6,0.6,0.4,1,0
,,66b616b0db06f7953a7c1e1f,66fc9a3f14d92721204982a3,2024-10-02_03h02.03.631,mdp,2024.2.1,Win32,59.88023952,66fa4ebf79326e780c390304,,,,,,,,,,,,,,,,,,,,,919.3845,919.3845,919.3876,920.2753,1,0,right,0.3648,,920.2792,921.3428,1,1,right,921.3467,922.2869,0,0,left,1,922.2871,922.2871,922.2912,923.786,0,31,31,31,1,0.2,0.8,0.8,0.2,,,,,,,,,,,,,,,0.5467,,0.8,0.2,0.2,0.8,0.4,0.6,0.2,0.8,,,0.4016,,0.4,0.6,0.2,0.8,0.4,0.6,0.6,0.4,1,0
,,66b616b0db06f7953a7c1e1f,66fc9a3f14d92721204982a3,2024-10-02_03h02.03.631,mdp,2024.2.1,Win32,59.88023952,66fa4ebf79326e780c390304,,,,,,,,,,,,,,,,,,,,,923.7874,923.7874,923.7899,924.8208,1,0,right,0.5059,,924.8246,925.9877,1,1,right,925.9914,926.8832,1,0,right,1,926.8833,926.8835,926.8864,928.3858,0,32,32,32,1,0.2,0.8,0.8,0.2,,,,,,,,,,,,,,,0.6276,,0.8,0.2,0.2,0.8,0.4,0.6,0.2,0.8,,,0.3664,,0.4,0.6,0.2,0.8,0.4,0.6,0.6,0.4,1,0
,,66b616b0db06f7953a7c1e1f,66fc9a3f14d92721204982a3,2024-10-02_03h02.03.631,mdp,2024.2.1,Win32,59.88023952,66fa4ebf79326e780c390304,,,,,,,,,,,,,,,,,,,,,928.3881,928.3881,928.3906,929.2953,1,0,right,0.3665,,929.2992,930.0655,1,1,right,930.0697,931.1166,0,0,left,1,931.1168,931.1168,931.1191,932.612,0,33,33,33,1,0.2,0.8,0.8,0.2,,,,,,,,,,,,,,,0.2481,,0.8,0.2,0.2,0.8,0.4,0.6,0.2,0.8,,,0.5223,,0.4,0.6,0.2,0.8,0.4,0.6,0.6,0.4,1,0
,,66b616b0db06f7953a7c1e1f,66fc9a3f14d92721204982a3,2024-10-02_03h02.03.631,mdp,2024.2.1,Win32,59.88023952,66fa4ebf79326e780c390304,,,,,,,,,,,,,,,,,,,,,932.614,932.6141,932.6169,933.4642,1,0,right,0.3061,,933.4679,934.1134,1,1,right,934.1157,934.9511,1,0,right,1,934.9512,934.9513,934.9536,936.4434,0,34,34,34,1,0.2,0.8,0.8,0.2,,,,,,,,,,,,,,,0.1226,,0.8,0.2,0.2,0.8,0.4,0.6,0.2,0.8,,,0.3044,,0.4,0.6,0.2,0.8,0.4,0.6,0.6,0.4,1,0
,,66b616b0db06f7953a7c1e1f,66fc9a3f14d92721204982a3,2024-10-02_03h02.03.631,mdp,2024.2.1,Win32,59.88023952,66fa4ebf79326e780c390304,,,,,,,,,,,,,,,,,,,,,936.4445,936.4445,936.4469,937.3762,1,1,right,0.3873,,937.3804,938.2461,1,1,right,938.2496,939.4528,1,0,right,1,939.453,939.4531,939.4571,940.9545,0,35,35,35,1,0.2,0.8,0.8,0.2,,,,,,,,,,,,,,,0.3243,,0.4,0.6,0.6,0.4,0.4,0.6,0.2,0.8,,,0.6663,,0.4,0.6,0.2,0.8,0.4,0.6,0.6,0.4,1,0
,,66b616b0db06f7953a7c1e1f,66fc9a3f14d92721204982a3,2024-10-02_03h02.03.631,mdp,2024.2.1,Win32,59.88023952,66fa4ebf79326e780c390304,,,,,,,,,,,,,,,,,,,,,940.9566,940.9566,940.9595,942.2762,1,0,right,0.7875,,942.2802,943.0225,1,1,right,943.0261,943.6911,1,0,right,1,943.6913,943.6914,943.6946,945.184,0,36,36,36,1,0.2,0.8,0.8,0.2,,,,,,,,,,,,,,,0.2152,,0.4,0.6,0.6,0.4,0.4,0.6,0.2,0.8,,,0.1406,,0.4,0.6,0.2,0.8,0.4,0.6,0.6,0.4,1,0
,,66b616b0db06f7953a7c1e1f,66fc9a3f14d92721204982a3,2024-10-02_03h02.03.631,mdp,2024.2.1,Win32,59.88023952,66fa4ebf79326e780c390304,,,,,,,,,,,,,,,,,,,,,945.186,945.1863,945.1888,945.9846,1,0,right,0.2547,,945.9858,946.7715,1,1,right,946.7751,947.4511,1,0,right,1,947.4512,947.4513,947.4546,948.9452,0,37,37,37,1,0.2,0.8,0.8,0.2,,,,,,,,,,,,,,,0.2529,,0.4,0.6,0.6,0.4,0.4,0.6,0.2,0.8,,,0.1552,,0.4,0.6,0.2,0.8,0.4,0.6,0.6,0.4,1,0
,,66b616b0db06f7953a7c1e1f,66fc9a3f14d92721204982a3,2024-10-02_03h02.03.631,mdp,2024.2.1,Win32,59.88023952,66fa4ebf79326e780c390304,,,,,,,,,,,,,,,,,,,,,948.949,948.9491,948.9522,949.8003,1,0,right,0.319,,949.8037,950.8235,1,1,right,950.8277,952.456,1,0,right,1,952.4562,952.4562,952.4614,953.9593,0,38,38,38,1,0.2,0.8,0.8,0.2,,,,,,,,,,,,,,,0.4954,,0.4,0.6,0.6,0.4,0.4,0.6,0.2,0.8,,,1.0972,,0.4,0.6,0.2,0.8,0.4,0.6,0.6,0.4,1,0
,,66b616b0db06f7953a7c1e1f,66fc9a3f14d92721204982a3,2024-10-02_03h02.03.631,mdp,2024.2.1,Win32,59.88023952,66fa4ebf79326e780c390304,,,,,,,,,,,,,,,,,,,,,953.9614,953.9614,953.9639,955.044,1,0,right,0.5379,,955.0483,955.611,1,1,right,955.6147,956.9267,1,0,right,1,956.9268,956.9269,956.9295,958.4214,0,39,39,39,1,0.2,0.8,0.8,0.2,,,,,,,,,,,,,,,0.0208,,0.4,0.6,0.6,0.4,0.4,0.6,0.2,0.8,,,0.7849,,0.4,0.6,0.2,0.8,0.4,0.6,0.6,0.4,1,0
,,66b616b0db06f7953a7c1e1f,66fc9a3f14d92721204982a3,2024-10-02_03h02.03.631,mdp,2024.2.1,Win32,59.88023952,66fa4ebf79326e780c390304,,,,,,,,,,,,,,,,,,,,,958.4246,958.4246,958.4271,959.2743,1,0,right,0.3167,,959.2784,960.0911,0,1,left,960.095,960.8399,0,1,left,0,960.84,960.8401,960.8442,962.3202,0,40,40,40,1,0.2,0.8,0.8,0.2,,,,,,,,,,,,,,,0.2887,,0.4,0.6,0.6,0.4,0.4,0.6,0.2,0.8,,,0.2059,,0.4,0.6,0.2,0.8,0.4,0.6,0.6,0.4,1,0
,,66b616b0db06f7953a7c1e1f,66fc9a3f14d92721204982a3,2024-10-02_03h02.03.631,mdp,2024.2.1,Win32,59.88023952,66fa4ebf79326e780c390304,,,,,,,,,,,,,,,,,,,,,962.3223,962.3223,962.3248,963.2705,1,0,right,0.4196,,963.2743,964.1881,1,0,right,964.1904,965.4474,1,1,right,0,965.4485,965.4485,965.4524,966.9462,0,41,41,41,1,0.2,0.8,0.8,0.2,,,,,,,,,,,,,,,0.3729,,0.4,0.6,0.6,0.4,0.4,0.6,0.2,0.8,,,0.7159,,0.4,0.6,0.2,0.8,0.4,0.6,0.6,0.4,1,0
,,66b616b0db06f7953a7c1e1f,66fc9a3f14d92721204982a3,2024-10-02_03h02.03.631,mdp,2024.2.1,Win32,59.88023952,66fa4ebf79326e780c390304,,,,,,,,,,,,,,,,,,,,,966.9485,966.9485,966.9514,968.1339,1,0,right,0.6512,,968.1363,968.8213,0,0,left,968.8248,969.8647,0,0,left,1,969.8648,969.8649,969.8685,971.3614,0,42,42,42,1,0.2,0.8,0.8,0.2,,,,,,,,,,,,,,,0.1627,,0.4,0.6,0.6,0.4,0.4,0.6,0.2,0.8,,,0.5132,,0.4,0.6,0.2,0.8,0.4,0.6,0.6,0.4,1,0
,,66b616b0db06f7953a7c1e1f,66fc9a3f14d92721204982a3,2024-10-02_03h02.03.631,mdp,2024.2.1,Win32,59.88023952,66fa4ebf79326e780c390304,,,,,,,,,,,,,,,,,,,,,971.3632,971.3632,971.3663,972.1989,1,1,right,0.3005,,972.2018,973.2332,1,1,right,973.2361,973.8254,0,0,left,1,973.8259,973.8259,973.8288,975.3092,0,43,43,43,1,0.2,0.8,0.8,0.2,,,,,,,,,,,,,,,0.4831,,0.4,0.6,0.6,0.4,0.4,0.6,0.2,0.8,,,0.0628,,0.4,0.6,0.2,0.8,0.4,0.6,0.6,0.4,1,0
,,66b616b0db06f7953a7c1e1f,66fc9a3f14d92721204982a3,2024-10-02_03h02.03.631,mdp,2024.2.1,Win32,59.88023952,66fa4ebf79326e780c390304,,,,,,,,,,,,,,,,,,,,,975.3113,975.3113,975.314,976.0601,1,1,right,0.2259,,976.0633,976.9936,0,0,left,976.9973,977.6914,0,1,left,0,977.6916,977.6916,977.6951,979.1859,0,44,44,44,1,0.2,0.8,0.8,0.2,,,,,,,,,,,,,,,0.3875,,0.4,0.6,0.6,0.4,0.4,0.6,0.2,0.8,,,0.1548,,0.4,0.6,0.2,0.8,0.4,0.6,0.6,0.4,1,0
,,66b616b0db06f7953a7c1e1f,66fc9a3f14d92721204982a3,2024-10-02_03h02.03.631,mdp,2024.2.1,Win32,59.88023952,66fa4ebf79326e780c390304,,,,,,,,,,,,,,,,,,,,,979.1886,979.1886,979.191,979.9228,1,1,right,0.1855,,979.9264,980.572,0,0,left,980.5762,981.4076,0,1,left,0,981.4078,981.4078,981.4113,982.8985,0,45,45,45,1,0.2,0.8,0.8,0.2,,,,,,,,,,,,,,,0.1189,,0.4,0.6,0.6,0.4,0.4,0.6,0.2,0.8,,,0.3047,,0.4,0.6,0.2,0.8,0.4,0.6,0.6,0.4,1,0
,,66b616b0db06f7953a7c1e1f,66fc9a3f14d92721204982a3,2024-10-02_03h02.03.631,mdp,2024.2.1,Win32,59.88023952,66fa4ebf79326e780c390304,,,,,,,,,,,,,,,,,,,,,982.9014,982.9014,982.9038,983.9364,1,0,right,0.5019,,983.9406,984.6934,0,0,left,984.6969,985.3186,0,1,left,0,985.3188,985.3188,985.3225,986.8192,0,46,46,46,1,0.2,0.8,0.8,0.2,,,,,,,,,,,,,,,0.2224,,0.4,0.6,0.6,0.4,0.4,0.6,0.2,0.8,,,0.1014,,0.4,0.6,0.2,0.8,0.4,0.6,0.6,0.4,1,0
,,66b616b0db06f7953a7c1e1f,66fc9a3f14d92721204982a3,2024-10-02_03h02.03.631,mdp,2024.2.1,Win32,59.88023952,66fa4ebf79326e780c390304,,,,,,,,,,,,,,,,,,,,,986.8213,986.8213,986.8239,987.8495,0,1,left,0.5038,,987.853,988.5786,1,1,right,988.5828,989.3569,1,1,right,0,989.3571,989.3571,989.3594,990.8452,0,47,47,47,1,0.2,0.8,0.8,0.2,,,,,,,,,,,,,,,0.1988,,0.4,0.6,0.6,0.4,0.4,0.6,0.2,0.8,,,0.241,,0.4,0.6,0.2,0.8,0.4,0.6,0.6,0.4,1,0
,,66b616b0db06f7953a7c1e1f,66fc9a3f14d92721204982a3,2024-10-02_03h02.03.631,mdp,2024.2.1,Win32,59.88023952,66fa4ebf79326e780c390304,,,,,,,,,,,,,,,,,,,,,990.8473,990.8474,990.8503,991.7355,0,0,left,0.3575,,991.7381,992.7654,1,1,right,992.7688,993.6136,1,1,right,0,993.6137,993.6137,993.6173,995.105,0,48,48,48,1,0.2,0.8,0.8,0.2,,,,,,,,,,,,,,,0.4998,,0.4,0.6,0.6,0.4,0.4,0.6,0.2,0.8,,,0.3211,,0.4,0.6,0.2,0.8,0.8,0.2,0.8,0.2,1,0
,,66b616b0db06f7953a7c1e1f,66fc9a3f14d92721204982a3,2024-10-02_03h02.03.631,mdp,2024.2.1,Win32,59.88023952,66fa4ebf79326e780c390304,,,,,,,,,,,,,,,,,,,,,995.107,995.107,995.11,995.7257,1,0,right,0.0833,,995.7289,996.6588,0,1,left,996.6625,997.7759,0,0,left,1,997.776,997.7761,997.7794,999.2705,0,49,49,49,1,0.2,0.8,0.8,0.2,,,,,,,,,,,,,,,0.4013,,0.4,0.6,0.6,0.4,0.4,0.6,0.2,0.8,,,0.5871,,0.4,0.6,0.2,0.8,0.8,0.2,0.8,0.2,1,0
,,66b616b0db06f7953a7c1e1f,66fc9a3f14d92721204982a3,2024-10-02_03h02.03.631,mdp,2024.2.1,Win32,59.88023952,66fa4ebf79326e780c390304,,,,,,,,,,,,,,,,,,,,,,,,,,,,,,,,,,,,,,,,,,,,,,,,,,,,,,,,999.2708,1057.7873,0,3,3,4,1,imgs/rabbit.png,imgs/squirrel.png,imgs/dog.png,imgs/elephant.png,imgs/giraffe.png,,,,,,,,,,,,,,,,,,,,,,,,
,,66b616b0db06f7953a7c1e1f,66fc9a3f14d92721204982a3,2024-10-02_03h02.03.631,mdp,2024.2.1,Win32,59.88023952,66fa4ebf79326e780c390304,,,,,,,,,,,,,,1,seqs/st1seq35.csv,1057.8275,1059.4651,space,1.1083,,1059.4748,1059.4748,1059.4773,1069.0262,1,0,right,9.0214,,1069.0629,1069.0647,0,0,,1069.0668,1069.0683,0,0,,1,1069.0684,1069.0684,1069.0698,1070.558,0,0,0,0,1,0.6,0.4,0.6,0.4,1,0,,,,,,,,,,,,,,,,,,,,,,,,,,,,,,,,,,,,
,,66b616b0db06f7953a7c1e1f,66fc9a3f14d92721204982a3,2024-10-02_03h02.03.631,mdp,2024.2.1,Win32,59.88023952,66fa4ebf79326e780c390304,,,,,,,,,,,,,,,,,,,,,1070.5599,1070.5599,1070.5627,1071.2735,1,1,right,0.1838,,1071.2774,1071.2789,0,0,,1071.2807,1071.282,0,1,,0,1071.2822,1071.2822,1071.2837,1072.772,0,1,1,1,1,0.6,0.4,0.6,0.4,1,0,,,,,,,,,,,,,,,,,,,,,,,,,,,,,,,,,,,,
,,66b616b0db06f7953a7c1e1f,66fc9a3f14d92721204982a3,2024-10-02_03h02.03.631,mdp,2024.2.1,Win32,59.88023952,66fa4ebf79326e780c390304,,,,,,,,,,,,,,,,,,,,,1072.7736,1072.7737,1072.7768,1073.66,1,0,right,0.3404,,1073.6636,1073.6652,0,1,,1073.667,1073.6685,0,0,,1,1073.6685,1073.6685,1073.6709,1075.155,0,2,2,2,1,0.8,0.2,0.4,0.6,1,0,,,,,,,,,,,,,,,,,,,,,,,,,,,,,,,,,,,,
,,66b616b0db06f7953a7c1e1f,66fc9a3f14d92721204982a3,2024-10-02_03h02.03.631,mdp,2024.2.1,Win32,59.88023952,66fa4ebf79326e780c390304,,,,,,,,,,,,,,,,,,,,,1075.1568,1075.1569,1075.1594,1076.0553,1,0,right,0.3644,,1076.0583,1076.0595,0,1,,1076.061,1076.062,0,0,,1,1076.0621,1076.0621,1076.0633,1077.5615,0,3,3,3,1,0.8,0.2,0.4,0.6,1,0,,,,,,,,,,,,,,,,,,,,,,,,,,,,,,,,,,,,
,,66b616b0db06f7953a7c1e1f,66fc9a3f14d92721204982a3,2024-10-02_03h02.03.631,mdp,2024.2.1,Win32,59.88023952,66fa4ebf79326e780c390304,,,,,,,,,,,,,,,,,,,,,1077.5633,1077.5633,1077.566,1078.38,1,1,right,0.2875,,1078.3816,1078.3829,0,1,,1078.3846,1078.3853,0,0,,0,1078.3854,1078.3854,1078.3861,1079.8685,0,4,4,4,1,0.8,0.2,0.4,0.6,1,0,,,,,,,,,,,,,,,,,,,,,,,,,,,,,,,,,,,,
,,66b616b0db06f7953a7c1e1f,66fc9a3f14d92721204982a3,2024-10-02_03h02.03.631,mdp,2024.2.1,Win32,59.88023952,66fa4ebf79326e780c390304,,,,,,,,,,,,,,,,,,,,,1079.8705,1079.8706,1079.8732,1080.7507,1,0,right,0.3482,,1080.7536,1080.7551,0,1,,1080.7569,1080.7588,0,0,,1,1080.7588,1080.7589,1080.7604,1082.2492,0,5,5,5,1,0.8,0.2,0.4,0.6,1,0,,,,,,,,,,,,,,,,,,,,,,,,,,,,,,,,,,,,
,,66b616b0db06f7953a7c1e1f,66fc9a3f14d92721204982a3,2024-10-02_03h02.03.631,mdp,2024.2.1,Win32,59.88023952,66fa4ebf79326e780c390304,,,,,,,,,,,,,,,,,,,,,1082.251,1082.2511,1082.2542,1082.9353,1,0,right,0.1521,,1082.9391,1082.9407,0,0,,1082.9426,1082.9439,0,0,,1,1082.944,1082.944,1082.9459,1084.4285,0,6,6,6,1,0.8,0.2,0.4,0.6,1,0,,,,,,,,,,,,,,,,,,,,,,,,,,,,,,,,,,,,
,,66b616b0db06f7953a7c1e1f,66fc9a3f14d92721204982a3,2024-10-02_03h02.03.631,mdp,2024.2.1,Win32,59.88023952,66fa4ebf79326e780c390304,,,,,,,,,,,,,,,,,,,,,1084.4294,1084.4294,1084.4308,1085.0588,1,0,right,0.0994,,1085.0628,1085.0646,0,0,,1085.0665,1085.0679,0,1,,1,1085.0681,1085.0681,1085.0695,1086.5582,0,7,7,7,1,0.8,0.2,0.4,0.6,1,0,,,,,,,,,,,,,,,,,,,,,,,,,,,,,,,,,,,,
,,66b616b0db06f7953a7c1e1f,66fc9a3f14d92721204982a3,2024-10-02_03h02.03.631,mdp,2024.2.1,Win32,59.88023952,66fa4ebf79326e780c390304,,,,,,,,,,,,,,,,,,,,,1086.5609,1086.5609,1086.5633,1087.5739,1,0,right,0.4716,,1087.5791,1087.5807,0,0,,1087.5825,1087.5845,0,0,,1,1087.5846,1087.5846,1087.5862,1089.083,0,8,8,8,1,0.8,0.2,0.4,0.6,1,0,,,,,,,,,,,,,,,,,,,,,,,,,,,,,,,,,,,,
,,66b616b0db06f7953a7c1e1f,66fc9a3f14d92721204982a3,2024-10-02_03h02.03.631,mdp,2024.2.1,Win32,59.88023952,66fa4ebf79326e780c390304,,,,,,,,,,,,,,,,,,,,,1089.0838,1089.0839,1089.0861,1090.1415,1,1,right,0.5246,,1090.1442,1090.1456,0,1,,1090.1473,1090.1488,0,1,,0,1090.149,1090.149,1090.1517,1091.6396,0,9,9,9,1,0.8,0.2,0.4,0.6,1,0,,,,,,,,,,,,,,,,,,,,,,,,,,,,,,,,,,,,
,,66b616b0db06f7953a7c1e1f,66fc9a3f14d92721204982a3,2024-10-02_03h02.03.631,mdp,2024.2.1,Win32,59.88023952,66fa4ebf79326e780c390304,,,,,,,,,,,,,,,,,,,,,1091.6411,1091.6411,1091.6443,1092.2267,1,1,right,0.0567,,1092.23,1092.2317,0,1,,1092.2336,1092.2349,0,0,,0,1092.235,1092.235,1092.2365,1093.7238,0,10,10,10,1,0.8,0.2,0.4,0.6,1,0,,,,,,,,,,,,,,,,,,,,,,,,,,,,,,,,,,,,
,,66b616b0db06f7953a7c1e1f,66fc9a3f14d92721204982a3,2024-10-02_03h02.03.631,mdp,2024.2.1,Win32,59.88023952,66fa4ebf79326e780c390304,,,,,,,,,,,,,,,,,,,,,1093.7256,1093.7257,1093.7282,1094.3581,0,0,left,0.107,,1094.3608,1094.3624,0,0,,1094.3642,1094.3655,0,0,,1,1094.3657,1094.3657,1094.3674,1095.8628,0,11,11,11,1,0.8,0.2,0.4,0.6,1,0,,,,,,,,,,,,,,,,,,,,,,,,,,,,,,,,,,,,
,,66b616b0db06f7953a7c1e1f,66fc9a3f14d92721204982a3,2024-10-02_03h02.03.631,mdp,2024.2.1,Win32,59.88023952,66fa4ebf79326e780c390304,,,,,,,,,,,,,,,,,,,,,1095.8646,1095.8646,1095.8671,1096.7741,0,1,left,0.375,,1096.7769,1096.7784,0,0,,1096.7802,1096.7816,0,1,,0,1096.7818,1096.7818,1096.7846,1098.2841,0,12,12,12,1,0.4,0.6,0.8,0.2,1,0,,,,,,,,,,,,,,,,,,,,,,,,,,,,,,,,,,,,
,,66b616b0db06f7953a7c1e1f,66fc9a3f14d92721204982a3,2024-10-02_03h02.03.631,mdp,2024.2.1,Win32,59.88023952,66fa4ebf79326e780c390304,,,,,,,,,,,,,,,,,,,,,1098.2858,1098.2858,1098.289,1098.9523,0,0,left,0.1374,,1098.9562,1098.9578,0,1,,1098.9587,1098.9594,0,1,,1,1098.9594,1098.9594,1098.9601,1100.4644,0,13,13,13,1,0.4,0.6,0.8,0.2,1,0,,,,,,,,,,,,,,,,,,,,,,,,,,,,,,,,,,,,
,,66b616b0db06f7953a7c1e1f,66fc9a3f14d92721204982a3,2024-10-02_03h02.03.631,mdp,2024.2.1,Win32,59.88023952,66fa4ebf79326e780c390304,,,,,,,,,,,,,,,,,,,,,1100.4662,1100.4662,1100.469,1101.0183,0,0,left,0.0137,,1101.0208,1101.0223,0,0,,1101.0241,1101.0255,0,0,,1,1101.0256,1101.0256,1101.0271,1102.5173,0,14,14,14,1,0.6,0.4,0.4,0.6,1,0,,,,,,,,,,,,,,,,,,,,,,,,,,,,,,,,,,,,
,,66b616b0db06f7953a7c1e1f,66fc9a3f14d92721204982a3,2024-10-02_03h02.03.631,mdp,2024.2.1,Win32,59.88023952,66fa4ebf79326e780c390304,,,,,,,,,,,,,,,,,,,,,1102.5182,1102.5182,1102.5196,1103.4309,0,0,left,0.3774,,1103.4332,1103.4348,0,1,,1103.4366,1103.4384,0,1,,1,1103.4385,1103.4386,1103.4402,1104.9276,0,15,15,15,1,0.6,0.4,0.4,0.6,1,0,,,,,,,,,,,,,,,,,,,,,,,,,,,,,,,,,,,,
,,66b616b0db06f7953a7c1e1f,66fc9a3f14d92721204982a3,2024-10-02_03h02.03.631,mdp,2024.2.1,Win32,59.88023952,66fa4ebf79326e780c390304,,,,,,,,,,,,,,,,,,,,,1104.9296,1104.9296,1104.9324,1105.9307,0,0,left,0.4725,,1105.9344,1105.9359,0,0,,1105.9377,1105.9394,0,0,,1,1105.9394,1105.9395,1105.9411,1107.4294,0,16,16,16,1,0.6,0.4,0.4,0.6,1,0,,,,,,,,,,,,,,,,,,,,,,,,,,,,,,,,,,,,
,,66b616b0db06f7953a7c1e1f,66fc9a3f14d92721204982a3,2024-10-02_03h02.03.631,mdp,2024.2.1,Win32,59.88023952,66fa4ebf79326e780c390304,,,,,,,,,,,,,,,,,,,,,1107.4312,1107.4312,1107.4339,1108.3742,0,0,left,0.4159,,1108.3779,1108.381,0,1,,1108.3831,1108.3846,0,1,,1,1108.3847,1108.3847,1108.3863,1109.8751,0,17,17,17,1,0.6,0.4,0.4,0.6,1,0,,,,,,,,,,,,,,,,,,,,,,,,,,,,,,,,,,,,
,,66b616b0db06f7953a7c1e1f,66fc9a3f14d92721204982a3,2024-10-02_03h02.03.631,mdp,2024.2.1,Win32,59.88023952,66fa4ebf79326e780c390304,,,,,,,,,,,,,,,,,,,,,1109.8762,1109.8763,1109.8787,1110.6434,0,1,left,0.238,,1110.6461,1110.6476,0,0,,1110.6498,1110.6512,0,1,,0,1110.6512,1110.6512,1110.6528,1112.153,0,18,18,18,1,0.4,0.6,0.8,0.2,1,0,,,,,,,,,,,,,,,,,,,,,,,,,,,,,,,,,,,,
,,66b616b0db06f7953a7c1e1f,66fc9a3f14d92721204982a3,2024-10-02_03h02.03.631,mdp,2024.2.1,Win32,59.88023952,66fa4ebf79326e780c390304,,,,,,,,,,,,,,,,,,,,,1112.1555,1112.1556,1112.1584,1113.0901,0,0,left,0.4135,,1113.0939,1113.0954,0,1,,1113.0972,1113.0986,0,0,,1,1113.0988,1113.0988,1113.1004,1114.5894,0,19,19,19,1,0.4,0.6,0.8,0.2,1,0,,,,,,,,,,,,,,,,,,,,,,,,,,,,,,,,,,,,
,,66b616b0db06f7953a7c1e1f,66fc9a3f14d92721204982a3,2024-10-02_03h02.03.631,mdp,2024.2.1,Win32,59.88023952,66fa4ebf79326e780c390304,,,,,,,,,,,,,,,,,,,,,1114.5912,1114.5912,1114.5943,1115.6219,0,0,left,0.4889,,1115.6252,1115.6268,0,1,,1115.6288,1115.6303,0,0,,1,1115.6303,1115.6303,1115.6319,1117.1191,0,20,20,20,1,0.4,0.6,0.8,0.2,1,0,,,,,,,,,,,,,,,,,,,,,,,,,,,,,,,,,,,,
,,66b616b0db06f7953a7c1e1f,66fc9a3f14d92721204982a3,2024-10-02_03h02.03.631,mdp,2024.2.1,Win32,59.88023952,66fa4ebf79326e780c390304,,,,,,,,,,,,,,,,,,,,,1117.1207,1117.1208,1117.1237,1117.9867,0,1,left,0.3395,,1117.9892,1117.9909,0,1,,1117.993,1117.9945,0,1,,0,1117.9945,1117.9946,1117.9961,1119.4965,0,21,21,21,1,0.4,0.6,0.8,0.2,1,0,,,,,,,,,,,,,,,,,,,,,,,,,,,,,,,,,,,,
,,66b616b0db06f7953a7c1e1f,66fc9a3f14d92721204982a3,2024-10-02_03h02.03.631,mdp,2024.2.1,Win32,59.88023952,66fa4ebf79326e780c390304,,,,,,,,,,,,,,,,,,,,,1119.4978,1119.4978,1119.5016,1120.2026,0,0,left,0.157,,1120.2065,1120.2082,0,1,,1120.2105,1120.2121,0,1,,1,1120.2122,1120.2122,1120.2142,1121.6983,0,22,22,22,1,0.4,0.6,0.8,0.2,1,0,,,,,,,,,,,,,,,,,,,,,,,,,,,,,,,,,,,,
,,66b616b0db06f7953a7c1e1f,66fc9a3f14d92721204982a3,2024-10-02_03h02.03.631,mdp,2024.2.1,Win32,59.88023952,66fa4ebf79326e780c390304,,,,,,,,,,,,,,,,,,,,,1121.7,1121.7001,1121.703,1122.8317,1,1,right,0.5963,,1122.8353,1122.8369,0,1,,1122.8389,1122.8405,0,1,,0,1122.8406,1122.8406,1122.8425,1124.3319,0,23,23,23,1,0.8,0.2,0.2,0.8,1,0,,,,,,,,,,,,,,,,,,,,,,,,,,,,,,,,,,,,
,,66b616b0db06f7953a7c1e1f,66fc9a3f14d92721204982a3,2024-10-02_03h02.03.631,mdp,2024.2.1,Win32,59.88023952,66fa4ebf79326e780c390304,,,,,,,,,,,,,,,,,,,,,1124.3352,1124.3352,1124.3377,1125.231,0,0,left,0.3718,,1125.2335,1125.2355,0,1,,1125.2377,1125.2393,0,0,,1,1125.2393,1125.2393,1125.2411,1126.7306,0,24,24,24,1,0.8,0.2,0.2,0.8,1,0,,,,,,,,,,,,,,,,,,,,,,,,,,,,,,,,,,,,
,,66b616b0db06f7953a7c1e1f,66fc9a3f14d92721204982a3,2024-10-02_03h02.03.631,mdp,2024.2.1,Win32,59.88023952,66fa4ebf79326e780c390304,,,,,,,,,,,,,,,,,,,,,1126.7324,1126.7324,1126.7353,1127.3803,0,0,left,0.1181,,1127.3837,1127.3852,0,0,,1127.3871,1127.3888,0,0,,1,1127.3888,1127.3888,1127.3922,1128.8903,0,25,25,25,1,0.8,0.2,0.2,0.8,1,0,,,,,,,,,,,,,,,,,,,,,,,,,,,,,,,,,,,,
,,66b616b0db06f7953a7c1e1f,66fc9a3f14d92721204982a3,2024-10-02_03h02.03.631,mdp,2024.2.1,Win32,59.88023952,66fa4ebf79326e780c390304,,,,,,,,,,,,,,,,,,,,,1128.8921,1128.8921,1128.8953,1129.6958,0,0,left,0.2742,,1129.6993,1129.7008,0,0,,1129.7026,1129.7039,0,1,,1,1129.7041,1129.7041,1129.7063,1131.1965,0,26,26,26,1,0.8,0.2,0.2,0.8,1,0,,,,,,,,,,,,,,,,,,,,,,,,,,,,,,,,,,,,
,,66b616b0db06f7953a7c1e1f,66fc9a3f14d92721204982a3,2024-10-02_03h02.03.631,mdp,2024.2.1,Win32,59.88023952,66fa4ebf79326e780c390304,,,,,,,,,,,,,,,,,,,,,1131.1975,1131.1976,1131.2004,1131.8913,0,1,left,0.1532,,1131.8949,1131.8964,0,1,,1131.8984,1131.8997,0,1,,0,1131.8999,1131.8999,1131.9014,1133.4037,0,27,27,27,1,0.6,0.4,0.4,0.6,1,0,,,,,,,,,,,,,,,,,,,,,,,,,,,,,,,,,,,,
,,66b616b0db06f7953a7c1e1f,66fc9a3f14d92721204982a3,2024-10-02_03h02.03.631,mdp,2024.2.1,Win32,59.88023952,66fa4ebf79326e780c390304,,,,,,,,,,,,,,,,,,,,,1133.4053,1133.4054,1133.4084,1134.2566,1,1,right,0.3222,,1134.26,1134.2616,0,1,,1134.2634,1134.2648,0,0,,0,1134.2649,1134.2649,1134.2668,1135.7707,0,28,28,28,1,0.6,0.4,0.4,0.6,1,0,,,,,,,,,,,,,,,,,,,,,,,,,,,,,,,,,,,,
,,66b616b0db06f7953a7c1e1f,66fc9a3f14d92721204982a3,2024-10-02_03h02.03.631,mdp,2024.2.1,Win32,59.88023952,66fa4ebf79326e780c390304,,,,,,,,,,,,,,,,,,,,,1135.7711,1135.7711,1135.7723,1136.3028,1,1,right,0.0022,,1136.3066,1136.3082,0,1,,1136.3101,1136.3115,0,0,,0,1136.3117,1136.3117,1136.3133,1137.818,0,29,29,29,1,0.6,0.4,0.4,0.6,1,0,,,,,,,,,,,,,,,,,,,,,,,,,,,,,,,,,,,,
,,66b616b0db06f7953a7c1e1f,66fc9a3f14d92721204982a3,2024-10-02_03h02.03.631,mdp,2024.2.1,Win32,59.88023952,66fa4ebf79326e780c390304,,,,,,,,,,,,,,,,,,,,,1137.8198,1137.8198,1137.8225,1138.7477,1,1,right,0.3833,,1138.7518,1138.7543,0,1,,1138.7564,1138.7578,0,0,,0,1138.7579,1138.7579,1138.7594,1140.2601,0,30,30,30,1,0.8,0.2,0.8,0.2,1,0,,,,,,,,,,,,,,,,,,,,,,,,,,,,,,,,,,,,
,,66b616b0db06f7953a7c1e1f,66fc9a3f14d92721204982a3,2024-10-02_03h02.03.631,mdp,2024.2.1,Win32,59.88023952,66fa4ebf79326e780c390304,,,,,,,,,,,,,,,,,,,,,1140.2619,1140.2626,1140.265,1141.1164,1,0,right,0.3208,,1141.1197,1141.1213,0,1,,1141.123,1141.1245,0,1,,1,1141.1246,1141.1246,1141.1261,1142.6124,0,31,31,31,1,0.6,0.4,0.2,0.8,1,0,,,,,,,,,,,,,,,,,,,,,,,,,,,,,,,,,,,,
,,66b616b0db06f7953a7c1e1f,66fc9a3f14d92721204982a3,2024-10-02_03h02.03.631,mdp,2024.2.1,Win32,59.88023952,66fa4ebf79326e780c390304,,,,,,,,,,,,,,,,,,,,,1142.614,1142.614,1142.6171,1143.1918,1,1,right,0.0417,,1143.1959,1143.1975,0,1,,1143.1992,1143.2006,0,1,,0,1143.2007,1143.2007,1143.2027,1144.6944,0,32,32,32,1,0.6,0.4,0.2,0.8,1,0,,,,,,,,,,,,,,,,,,,,,,,,,,,,,,,,,,,,
,,66b616b0db06f7953a7c1e1f,66fc9a3f14d92721204982a3,2024-10-02_03h02.03.631,mdp,2024.2.1,Win32,59.88023952,66fa4ebf79326e780c390304,,,,,,,,,,,,,,,,,,,,,1144.6962,1144.6962,1144.6991,1145.696,0,1,left,0.4653,,1145.6988,1145.7003,0,1,,1145.7022,1145.7035,0,1,,0,1145.7036,1145.7036,1145.7052,1147.1919,0,33,33,33,1,0.6,0.4,0.2,0.8,1,0,,,,,,,,,,,,,,,,,,,,,,,,,,,,,,,,,,,,
,,66b616b0db06f7953a7c1e1f,66fc9a3f14d92721204982a3,2024-10-02_03h02.03.631,mdp,2024.2.1,Win32,59.88023952,66fa4ebf79326e780c390304,,,,,,,,,,,,,,,,,,,,,1147.1938,1147.1939,1147.1968,1148.0426,1,1,right,0.3153,,1148.0467,1148.0483,0,0,,1148.0504,1148.052,0,1,,0,1148.052,1148.052,1148.0536,1149.5408,0,34,34,34,1,0.6,0.4,0.2,0.8,1,0,,,,,,,,,,,,,,,,,,,,,,,,,,,,,,,,,,,,
,,66b616b0db06f7953a7c1e1f,66fc9a3f14d92721204982a3,2024-10-02_03h02.03.631,mdp,2024.2.1,Win32,59.88023952,66fa4ebf79326e780c390304,,,,,,,,,,,,,,,,,,,,,1149.5424,1149.5425,1149.5459,1150.4046,0,1,left,0.3332,,1150.4079,1150.4095,0,0,,1150.4116,1150.4134,0,0,,0,1150.414,1150.4141,1150.4158,1151.9071,0,35,35,35,1,0.6,0.4,0.2,0.8,1,0,,,,,,,,,,,,,,,,,,,,,,,,,,,,,,,,,,,,
,,66b616b0db06f7953a7c1e1f,66fc9a3f14d92721204982a3,2024-10-02_03h02.03.631,mdp,2024.2.1,Win32,59.88023952,66fa4ebf79326e780c390304,,,,,,,,,,,,,,,,,,,,,1151.9091,1151.9092,1151.9119,1152.703,0,0,left,0.2693,,1152.7069,1152.7084,0,0,,1152.7105,1152.7124,0,0,,1,1152.7125,1152.7125,1152.7142,1154.2014,0,36,36,36,1,0.8,0.2,0.6,0.4,1,0,,,,,,,,,,,,,,,,,,,,,,,,,,,,,,,,,,,,
,,66b616b0db06f7953a7c1e1f,66fc9a3f14d92721204982a3,2024-10-02_03h02.03.631,mdp,2024.2.1,Win32,59.88023952,66fa4ebf79326e780c390304,,,,,,,,,,,,,,,,,,,,,1154.2031,1154.2031,1154.2063,1155.0711,0,0,left,0.3365,,1155.0746,1155.0763,0,0,,1155.0785,1155.08,0,0,,1,1155.0801,1155.0802,1155.0822,1156.5826,0,37,37,37,1,0.8,0.2,0.6,0.4,1,0,,,,,,,,,,,,,,,,,,,,,,,,,,,,,,,,,,,,
,,66b616b0db06f7953a7c1e1f,66fc9a3f14d92721204982a3,2024-10-02_03h02.03.631,mdp,2024.2.1,Win32,59.88023952,66fa4ebf79326e780c390304,,,,,,,,,,,,,,,,,,,,,1156.5845,1156.5845,1156.5873,1157.3523,0,0,left,0.2375,,1157.356,1157.3578,0,0,,1157.3597,1157.3611,0,1,,1,1157.3612,1157.3612,1157.3631,1158.8646,0,38,38,38,1,0.2,0.8,0.8,0.2,1,0,,,,,,,,,,,,,,,,,,,,,,,,,,,,,,,,,,,,
,,66b616b0db06f7953a7c1e1f,66fc9a3f14d92721204982a3,2024-10-02_03h02.03.631,mdp,2024.2.1,Win32,59.88023952,66fa4ebf79326e780c390304,,,,,,,,,,,,,,,,,,,,,1158.8663,1158.8664,1158.8695,1159.767,0,1,left,0.3657,,1159.7693,1159.7709,0,1,,1159.7728,1159.7745,0,0,,0,1159.7745,1159.7746,1159.7763,1161.2792,0,39,39,39,1,0.2,0.8,0.8,0.2,1,0,,,,,,,,,,,,,,,,,,,,,,,,,,,,,,,,,,,,
,,66b616b0db06f7953a7c1e1f,66fc9a3f14d92721204982a3,2024-10-02_03h02.03.631,mdp,2024.2.1,Win32,59.88023952,66fa4ebf79326e780c390304,,,,,,,,,,,,,,,,,,,,,1161.2808,1161.2808,1161.2838,1162.1806,1,0,right,0.368,,1162.1831,1162.1845,0,0,,1162.1864,1162.1885,0,0,,1,1162.1885,1162.1886,1162.1909,1163.6791,0,40,40,40,1,0.2,0.8,0.8,0.2,1,0,,,,,,,,,,,,,,,,,,,,,,,,,,,,,,,,,,,,
,,66b616b0db06f7953a7c1e1f,66fc9a3f14d92721204982a3,2024-10-02_03h02.03.631,mdp,2024.2.1,Win32,59.88023952,66fa4ebf79326e780c390304,,,,,,,,,,,,,,,,,,,,,1163.6811,1163.6811,1163.6838,1164.49,1,0,right,0.286,,1164.4959,1164.4975,0,0,,1164.4993,1164.5013,0,0,,1,1164.5015,1164.5015,1164.5031,1166.0058,0,41,41,41,1,0.2,0.8,0.8,0.2,1,0,,,,,,,,,,,,,,,,,,,,,,,,,,,,,,,,,,,,
