init_exp.started,init_exp.stopped,participant,session,date,expName,psychopyVersion,OS,frameRate,study_id,disp_instruction.started,disp_instruction.stopped,instruction.thisRepN,instruction.thisTrialN,instruction.thisN,instruction.thisIndex,instruction.ran,instimg_path,consent.started,consent.stopped,key_resp_3.keys,key_resp_3.rt,key_resp_3.duration,n_steps,sequence_path,init_block.started,init_block.stopped,key_resp.keys,key_resp.rt,key_resp.duration,init_trials.started,init_trials.stopped,step0.started,step0.stopped,act0,s1,res0.keys,res0.rt,res0.duration,step1.started,step1.stopped,act1,s2,res1.keys,step2.started,step2.stopped,act2,s3,res2.keys,rew,reward_comp.started,reward_comp.stopped,reward_disp.started,reward_disp.stopped,trials.thisRepN,trials.thisTrialN,trials.thisN,trials.thisIndex,trials.ran,s00a0s10,s00a0s11,s00a1s10,s00a1s11,rew10,rew11,break_block.started,break_block.stopped,block.thisRepN,block.thisTrialN,block.thisN,block.thisIndex,block.ran,s00path,s10path,s11path,s20path,s21path,res1.rt,res1.duration,s10a0s20,s10a0s21,s10a1s20,s10a1s21,s11a0s20,s11a0s21,s11a1s20,s11a1s21,rew20,rew21,res2.rt,res2.duration,s20a0s30,s20a0s31,s20a1s30,s20a1s31,s21a0s30,s21a0s31,s21a1s30,s21a1s31,rew30,rew31
0.001,0.005,66c086c91cd54d5495701e9b,66fce21cf30a818a71481d4f,2024-10-01_23h05.44.786,mdp,2024.2.1,Win32,20.00080003,66fa4ebf79326e780c390304,,,,,,,,,,,,,,,,,,,,,,,,,,,,,,,,,,,,,,,,,,,,,,,,,,,,,,,,,,,,,,,,,,,,,,,,,,,,,,,,,,,,,,,,,,,
,,66c086c91cd54d5495701e9b,66fce21cf30a818a71481d4f,2024-10-01_23h05.44.786,mdp,2024.2.1,Win32,20.00080003,66fa4ebf79326e780c390304,0.016,12.72,0,0,0,0,1,rlnn_exp/rlnn_exp.001.png,,,,,,,,,,,,,,,,,,,,,,,,,,,,,,,,,,,,,,,,,,,,,,,,,,,,,,,,,,,,,,,,,,,,,,,,,,,,,,,,,,,
,,66c086c91cd54d5495701e9b,66fce21cf30a818a71481d4f,2024-10-01_23h05.44.786,mdp,2024.2.1,Win32,20.00080003,66fa4ebf79326e780c390304,12.722,24.333,0,1,1,1,1,rlnn_exp/rlnn_exp.002.png,,,,,,,,,,,,,,,,,,,,,,,,,,,,,,,,,,,,,,,,,,,,,,,,,,,,,,,,,,,,,,,,,,,,,,,,,,,,,,,,,,,
,,66c086c91cd54d5495701e9b,66fce21cf30a818a71481d4f,2024-10-01_23h05.44.786,mdp,2024.2.1,Win32,20.00080003,66fa4ebf79326e780c390304,24.355,35.636,0,2,2,2,1,rlnn_exp/rlnn_exp.003.png,,,,,,,,,,,,,,,,,,,,,,,,,,,,,,,,,,,,,,,,,,,,,,,,,,,,,,,,,,,,,,,,,,,,,,,,,,,,,,,,,,,
,,66c086c91cd54d5495701e9b,66fce21cf30a818a71481d4f,2024-10-01_23h05.44.786,mdp,2024.2.1,Win32,20.00080003,66fa4ebf79326e780c390304,35.657,53.187,0,3,3,3,1,rlnn_exp/rlnn_exp.004.png,,,,,,,,,,,,,,,,,,,,,,,,,,,,,,,,,,,,,,,,,,,,,,,,,,,,,,,,,,,,,,,,,,,,,,,,,,,,,,,,,,,
,,66c086c91cd54d5495701e9b,66fce21cf30a818a71481d4f,2024-10-01_23h05.44.786,mdp,2024.2.1,Win32,20.00080003,66fa4ebf79326e780c390304,,,,,,,,,53.208,89.671,y,26.362,,,,,,,,,,,,,,,,,,,,,,,,,,,,,,,,,,,,,,,,,,,,,,,,,,,,,,,,,,,,,,,,,,,,,,,,,,,,,,,
,,66c086c91cd54d5495701e9b,66fce21cf30a818a71481d4f,2024-10-01_23h05.44.786,mdp,2024.2.1,Win32,20.00080003,66fa4ebf79326e780c390304,,,,,,,,,,,,,,1,seqs/st1seq37.csv,89.701,92.412,space,2.145,,92.423,92.424,92.425,142.238,0,1,left,49.203,,142.26,142.266,,1,,142.267,142.273,,1,,0,142.274,142.274,142.276,143.743,0,0,0,0,1,0.2,0.8,0.6,0.4,1,0,,,,,,,,,,,,,,,,,,,,,,,,,,,,,,,,,,,,
,,66c086c91cd54d5495701e9b,66fce21cf30a818a71481d4f,2024-10-01_23h05.44.786,mdp,2024.2.1,Win32,20.00080003,66fa4ebf79326e780c390304,,,,,,,,,,,,,,,,,,,,,143.745,143.745,143.747,145.119,1,0,right,0.791,,145.121,145.123,,0,,145.125,145.127,,0,,1,145.127,145.127,145.129,146.629,0,1,1,1,1,0.2,0.8,0.6,0.4,1,0,,,,,,,,,,,,,,,,,,,,,,,,,,,,,,,,,,,,
,,66c086c91cd54d5495701e9b,66fce21cf30a818a71481d4f,2024-10-01_23h05.44.786,mdp,2024.2.1,Win32,20.00080003,66fa4ebf79326e780c390304,,,,,,,,,,,,,,,,,,,,,146.63,146.63,146.633,148.063,1,0,right,0.841,,148.065,148.067,,0,,148.069,148.071,,1,,1,148.071,148.071,148.073,149.587,0,2,2,2,1,0.6,0.4,0.4,0.6,1,0,,,,,,,,,,,,,,,,,,,,,,,,,,,,,,,,,,,,
,,66c086c91cd54d5495701e9b,66fce21cf30a818a71481d4f,2024-10-01_23h05.44.786,mdp,2024.2.1,Win32,20.00080003,66fa4ebf79326e780c390304,,,,,,,,,,,,,,,,,,,,,149.588,149.588,149.592,151.146,0,0,left,0.974,,151.15,151.152,,0,,151.154,151.156,,1,,1,151.156,151.156,151.158,152.63,0,3,3,3,1,0.6,0.4,0.4,0.6,1,0,,,,,,,,,,,,,,,,,,,,,,,,,,,,,,,,,,,,
,,66c086c91cd54d5495701e9b,66fce21cf30a818a71481d4f,2024-10-01_23h05.44.786,mdp,2024.2.1,Win32,20.00080003,66fa4ebf79326e780c390304,,,,,,,,,,,,,,,,,,,,,152.631,152.631,152.633,153.319,0,0,left,0.122,,153.321,153.323,,0,,153.324,153.326,,1,,1,153.327,153.327,153.328,154.838,0,4,4,4,1,0.6,0.4,0.4,0.6,1,0,,,,,,,,,,,,,,,,,,,,,,,,,,,,,,,,,,,,
,,66c086c91cd54d5495701e9b,66fce21cf30a818a71481d4f,2024-10-01_23h05.44.786,mdp,2024.2.1,Win32,20.00080003,66fa4ebf79326e780c390304,,,,,,,,,,,,,,,,,,,,,154.838,154.838,154.841,156.528,0,0,left,1.095,,156.53,156.532,,0,,156.533,156.536,,0,,1,156.536,156.536,156.538,157.99,0,5,5,5,1,0.6,0.4,0.4,0.6,1,0,,,,,,,,,,,,,,,,,,,,,,,,,,,,,,,,,,,,
,,66c086c91cd54d5495701e9b,66fce21cf30a818a71481d4f,2024-10-01_23h05.44.786,mdp,2024.2.1,Win32,20.00080003,66fa4ebf79326e780c390304,,,,,,,,,,,,,,,,,,,,,157.993,157.993,157.995,161.903,1,1,right,3.344,,161.924,161.926,,0,,161.927,161.929,,1,,0,161.929,161.929,161.93,163.414,0,6,6,6,1,0.6,0.4,0.4,0.6,1,0,,,,,,,,,,,,,,,,,,,,,,,,,,,,,,,,,,,,
,,66c086c91cd54d5495701e9b,66fce21cf30a818a71481d4f,2024-10-01_23h05.44.786,mdp,2024.2.1,Win32,20.00080003,66fa4ebf79326e780c390304,,,,,,,,,,,,,,,,,,,,,163.415,163.415,163.418,164.783,1,0,right,0.809,,164.787,164.789,,1,,164.791,164.793,,0,,1,164.793,164.793,164.794,166.244,0,7,7,7,1,0.6,0.4,0.4,0.6,1,0,,,,,,,,,,,,,,,,,,,,,,,,,,,,,,,,,,,,
,,66c086c91cd54d5495701e9b,66fce21cf30a818a71481d4f,2024-10-01_23h05.44.786,mdp,2024.2.1,Win32,20.00080003,66fa4ebf79326e780c390304,,,,,,,,,,,,,,,,,,,,,166.245,166.245,166.247,167.785,0,1,left,0.951,,167.787,167.789,,0,,167.79,167.792,,1,,0,167.792,167.792,167.794,169.27,0,8,8,8,1,0.6,0.4,0.4,0.6,1,0,,,,,,,,,,,,,,,,,,,,,,,,,,,,,,,,,,,,
,,66c086c91cd54d5495701e9b,66fce21cf30a818a71481d4f,2024-10-01_23h05.44.786,mdp,2024.2.1,Win32,20.00080003,66fa4ebf79326e780c390304,,,,,,,,,,,,,,,,,,,,,169.27,169.271,169.272,171.139,0,1,left,1.292,,171.14,171.142,,0,,171.144,171.146,,1,,0,171.147,171.147,171.149,172.633,0,9,9,9,1,0.6,0.4,0.4,0.6,1,0,,,,,,,,,,,,,,,,,,,,,,,,,,,,,,,,,,,,
,,66c086c91cd54d5495701e9b,66fce21cf30a818a71481d4f,2024-10-01_23h05.44.786,mdp,2024.2.1,Win32,20.00080003,66fa4ebf79326e780c390304,,,,,,,,,,,,,,,,,,,,,172.635,172.635,172.637,200.3,1,1,right,27.09,,200.322,200.324,,0,,200.325,200.327,,1,,0,200.327,200.327,200.329,201.816,0,10,10,10,1,0.6,0.4,0.4,0.6,1,0,,,,,,,,,,,,,,,,,,,,,,,,,,,,,,,,,,,,
,,66c086c91cd54d5495701e9b,66fce21cf30a818a71481d4f,2024-10-01_23h05.44.786,mdp,2024.2.1,Win32,20.00080003,66fa4ebf79326e780c390304,,,,,,,,,,,,,,,,,,,,,201.817,201.817,201.819,202.932,1,1,right,0.538,,202.934,202.936,,1,,202.937,202.939,,0,,0,202.939,202.939,202.941,204.432,0,11,11,11,1,0.8,0.2,0.2,0.8,1,0,,,,,,,,,,,,,,,,,,,,,,,,,,,,,,,,,,,,
,,66c086c91cd54d5495701e9b,66fce21cf30a818a71481d4f,2024-10-01_23h05.44.786,mdp,2024.2.1,Win32,20.00080003,66fa4ebf79326e780c390304,,,,,,,,,,,,,,,,,,,,,204.433,204.433,204.435,205.005,1,1,right,0.002,,205.007,205.008,,0,,205.01,205.012,,1,,0,205.012,205.012,205.014,206.478,0,12,12,12,1,0.8,0.2,0.2,0.8,1,0,,,,,,,,,,,,,,,,,,,,,,,,,,,,,,,,,,,,
,,66c086c91cd54d5495701e9b,66fce21cf30a818a71481d4f,2024-10-01_23h05.44.786,mdp,2024.2.1,Win32,20.00080003,66fa4ebf79326e780c390304,,,,,,,,,,,,,,,,,,,,,206.48,206.48,206.482,207.527,1,1,right,0.452,,207.529,207.531,,1,,207.532,207.534,,0,,0,207.534,207.534,207.536,209.03,0,13,13,13,1,0.8,0.2,0.2,0.8,1,0,,,,,,,,,,,,,,,,,,,,,,,,,,,,,,,,,,,,
,,66c086c91cd54d5495701e9b,66fce21cf30a818a71481d4f,2024-10-01_23h05.44.786,mdp,2024.2.1,Win32,20.00080003,66fa4ebf79326e780c390304,,,,,,,,,,,,,,,,,,,,,209.031,209.032,209.033,209.816,1,1,right,0.226,,209.818,209.821,,0,,209.823,209.825,,1,,0,209.825,209.826,209.827,211.299,0,14,14,14,1,0.8,0.2,0.2,0.8,1,0,,,,,,,,,,,,,,,,,,,,,,,,,,,,,,,,,,,,
,,66c086c91cd54d5495701e9b,66fce21cf30a818a71481d4f,2024-10-01_23h05.44.786,mdp,2024.2.1,Win32,20.00080003,66fa4ebf79326e780c390304,,,,,,,,,,,,,,,,,,,,,211.3,211.3,211.302,212.038,1,1,right,0.172,,212.04,212.041,,1,,212.043,212.045,,1,,0,212.045,212.045,212.047,213.512,0,15,15,15,1,0.8,0.2,0.2,0.8,1,0,,,,,,,,,,,,,,,,,,,,,,,,,,,,,,,,,,,,
,,66c086c91cd54d5495701e9b,66fce21cf30a818a71481d4f,2024-10-01_23h05.44.786,mdp,2024.2.1,Win32,20.00080003,66fa4ebf79326e780c390304,,,,,,,,,,,,,,,,,,,,,213.513,213.513,213.515,214.503,0,1,left,0.395,,214.505,214.507,,0,,214.508,214.51,,1,,0,214.51,214.51,214.512,215.99,0,16,16,16,1,0.4,0.6,0.6,0.4,1,0,,,,,,,,,,,,,,,,,,,,,,,,,,,,,,,,,,,,
,,66c086c91cd54d5495701e9b,66fce21cf30a818a71481d4f,2024-10-01_23h05.44.786,mdp,2024.2.1,Win32,20.00080003,66fa4ebf79326e780c390304,,,,,,,,,,,,,,,,,,,,,215.991,215.991,215.993,216.843,1,1,right,0.286,,216.845,216.847,,1,,216.848,216.85,,1,,0,216.851,216.851,216.852,218.368,0,17,17,17,1,0.8,0.2,0.2,0.8,1,0,,,,,,,,,,,,,,,,,,,,,,,,,,,,,,,,,,,,
,,66c086c91cd54d5495701e9b,66fce21cf30a818a71481d4f,2024-10-01_23h05.44.786,mdp,2024.2.1,Win32,20.00080003,66fa4ebf79326e780c390304,,,,,,,,,,,,,,,,,,,,,218.37,218.37,218.372,218.992,0,1,left,0.059,,218.994,218.995,,1,,218.997,218.999,,1,,0,218.999,218.999,219.001,220.455,0,18,18,18,1,0.2,0.8,0.6,0.4,1,0,,,,,,,,,,,,,,,,,,,,,,,,,,,,,,,,,,,,
,,66c086c91cd54d5495701e9b,66fce21cf30a818a71481d4f,2024-10-01_23h05.44.786,mdp,2024.2.1,Win32,20.00080003,66fa4ebf79326e780c390304,,,,,,,,,,,,,,,,,,,,,220.456,220.456,220.458,221.779,0,0,left,0.738,,221.781,221.783,,1,,221.785,221.786,,0,,1,221.787,221.787,221.79,223.303,0,19,19,19,1,0.8,0.2,0.2,0.8,1,0,,,,,,,,,,,,,,,,,,,,,,,,,,,,,,,,,,,,
,,66c086c91cd54d5495701e9b,66fce21cf30a818a71481d4f,2024-10-01_23h05.44.786,mdp,2024.2.1,Win32,20.00080003,66fa4ebf79326e780c390304,,,,,,,,,,,,,,,,,,,,,223.304,223.304,223.306,224.245,0,0,left,0.376,,224.247,224.249,,1,,224.251,224.253,,0,,1,224.253,224.253,224.255,225.744,0,20,20,20,1,0.8,0.2,0.2,0.8,1,0,,,,,,,,,,,,,,,,,,,,,,,,,,,,,,,,,,,,
,,66c086c91cd54d5495701e9b,66fce21cf30a818a71481d4f,2024-10-01_23h05.44.786,mdp,2024.2.1,Win32,20.00080003,66fa4ebf79326e780c390304,,,,,,,,,,,,,,,,,,,,,225.745,225.746,225.747,226.422,1,0,right,0.112,,226.424,226.426,,0,,226.428,226.43,,0,,1,226.43,226.43,226.432,227.918,0,21,21,21,1,0.4,0.6,0.8,0.2,1,0,,,,,,,,,,,,,,,,,,,,,,,,,,,,,,,,,,,,
,,66c086c91cd54d5495701e9b,66fce21cf30a818a71481d4f,2024-10-01_23h05.44.786,mdp,2024.2.1,Win32,20.00080003,66fa4ebf79326e780c390304,,,,,,,,,,,,,,,,,,,,,227.919,227.919,227.921,229.127,0,0,left,0.617,,229.129,229.131,,0,,229.133,229.135,,0,,1,229.135,229.135,229.137,230.639,0,22,22,22,1,0.4,0.6,0.8,0.2,1,0,,,,,,,,,,,,,,,,,,,,,,,,,,,,,,,,,,,,
,,66c086c91cd54d5495701e9b,66fce21cf30a818a71481d4f,2024-10-01_23h05.44.786,mdp,2024.2.1,Win32,20.00080003,66fa4ebf79326e780c390304,,,,,,,,,,,,,,,,,,,,,230.64,230.64,230.642,231.288,0,1,left,0.061,,231.289,231.291,,1,,231.293,231.295,,0,,0,231.295,231.295,231.296,232.783,0,23,23,23,1,0.4,0.6,0.8,0.2,1,0,,,,,,,,,,,,,,,,,,,,,,,,,,,,,,,,,,,,
,,66c086c91cd54d5495701e9b,66fce21cf30a818a71481d4f,2024-10-01_23h05.44.786,mdp,2024.2.1,Win32,20.00080003,66fa4ebf79326e780c390304,,,,,,,,,,,,,,,,,,,,,232.783,232.783,232.785,234.138,0,0,left,0.756,,234.141,234.143,,0,,234.145,234.147,,0,,1,234.147,234.147,234.149,235.648,0,24,24,24,1,0.6,0.4,0.2,0.8,1,0,,,,,,,,,,,,,,,,,,,,,,,,,,,,,,,,,,,,
,,66c086c91cd54d5495701e9b,66fce21cf30a818a71481d4f,2024-10-01_23h05.44.786,mdp,2024.2.1,Win32,20.00080003,66fa4ebf79326e780c390304,,,,,,,,,,,,,,,,,,,,,235.649,235.649,235.651,236.715,0,0,left,0.505,,236.717,236.719,,0,,236.72,236.722,,1,,1,236.722,236.722,236.724,238.222,0,25,25,25,1,0.6,0.4,0.2,0.8,1,0,,,,,,,,,,,,,,,,,,,,,,,,,,,,,,,,,,,,
,,66c086c91cd54d5495701e9b,66fce21cf30a818a71481d4f,2024-10-01_23h05.44.786,mdp,2024.2.1,Win32,20.00080003,66fa4ebf79326e780c390304,,,,,,,,,,,,,,,,,,,,,238.223,238.223,238.225,240.434,1,0,right,1.635,,240.435,240.437,,1,,240.439,240.441,,1,,1,240.441,240.441,240.442,241.944,0,26,26,26,1,0.6,0.4,0.2,0.8,1,0,,,,,,,,,,,,,,,,,,,,,,,,,,,,,,,,,,,,
,,66c086c91cd54d5495701e9b,66fce21cf30a818a71481d4f,2024-10-01_23h05.44.786,mdp,2024.2.1,Win32,20.00080003,66fa4ebf79326e780c390304,,,,,,,,,,,,,,,,,,,,,241.945,241.945,241.947,243.052,1,1,right,0.514,,243.054,243.056,,1,,243.057,243.059,,1,,0,243.059,243.059,243.061,244.574,0,27,27,27,1,0.6,0.4,0.2,0.8,1,0,,,,,,,,,,,,,,,,,,,,,,,,,,,,,,,,,,,,
,,66c086c91cd54d5495701e9b,66fce21cf30a818a71481d4f,2024-10-01_23h05.44.786,mdp,2024.2.1,Win32,20.00080003,66fa4ebf79326e780c390304,,,,,,,,,,,,,,,,,,,,,244.576,244.576,244.578,245.451,1,0,right,0.308,,245.453,245.454,,0,,245.456,245.458,,0,,1,245.458,245.458,245.46,246.927,0,28,28,28,1,0.2,0.8,0.8,0.2,1,0,,,,,,,,,,,,,,,,,,,,,,,,,,,,,,,,,,,,
,,66c086c91cd54d5495701e9b,66fce21cf30a818a71481d4f,2024-10-01_23h05.44.786,mdp,2024.2.1,Win32,20.00080003,66fa4ebf79326e780c390304,,,,,,,,,,,,,,,,,,,,,246.929,246.929,246.931,253.389,1,0,right,5.899,,253.41,253.412,,0,,253.413,253.415,,0,,1,253.415,253.415,253.416,254.913,0,29,29,29,1,0.2,0.8,0.8,0.2,1,0,,,,,,,,,,,,,,,,,,,,,,,,,,,,,,,,,,,,
,,66c086c91cd54d5495701e9b,66fce21cf30a818a71481d4f,2024-10-01_23h05.44.786,mdp,2024.2.1,Win32,20.00080003,66fa4ebf79326e780c390304,,,,,,,,,,,,,,,,,,,,,254.914,254.914,254.916,256.384,1,0,right,0.902,,256.385,256.387,,1,,256.389,256.391,,0,,1,256.391,256.391,256.392,257.897,0,30,30,30,1,0.2,0.8,0.8,0.2,1,0,,,,,,,,,,,,,,,,,,,,,,,,,,,,,,,,,,,,
,,66c086c91cd54d5495701e9b,66fce21cf30a818a71481d4f,2024-10-01_23h05.44.786,mdp,2024.2.1,Win32,20.00080003,66fa4ebf79326e780c390304,,,,,,,,,,,,,,,,,,,,,257.898,257.898,257.9,259.102,1,1,right,0.621,,259.104,259.106,,0,,259.107,259.109,,0,,0,259.109,259.109,259.111,260.58,0,31,31,31,1,0.2,0.8,0.8,0.2,1,0,,,,,,,,,,,,,,,,,,,,,,,,,,,,,,,,,,,,
,,66c086c91cd54d5495701e9b,66fce21cf30a818a71481d4f,2024-10-01_23h05.44.786,mdp,2024.2.1,Win32,20.00080003,66fa4ebf79326e780c390304,,,,,,,,,,,,,,,,,,,,,260.581,260.581,260.583,262.356,1,0,right,1.214,,262.359,262.361,,0,,262.363,262.365,,0,,1,262.365,262.365,262.367,263.82,0,32,32,32,1,0.2,0.8,0.8,0.2,1,0,,,,,,,,,,,,,,,,,,,,,,,,,,,,,,,,,,,,
,,66c086c91cd54d5495701e9b,66fce21cf30a818a71481d4f,2024-10-01_23h05.44.786,mdp,2024.2.1,Win32,20.00080003,66fa4ebf79326e780c390304,,,,,,,,,,,,,,,,,,,,,263.822,263.822,263.824,265.068,0,1,left,0.678,,265.07,265.071,,0,,265.073,265.075,,0,,0,265.075,265.075,265.077,266.555,0,33,33,33,1,0.2,0.8,0.8,0.2,1,0,,,,,,,,,,,,,,,,,,,,,,,,,,,,,,,,,,,,
,,66c086c91cd54d5495701e9b,66fce21cf30a818a71481d4f,2024-10-01_23h05.44.786,mdp,2024.2.1,Win32,20.00080003,66fa4ebf79326e780c390304,,,,,,,,,,,,,,,,,,,,,266.556,266.556,266.558,267.94,1,0,right,0.823,,267.942,267.944,,1,,267.945,267.947,,1,,1,267.947,267.947,267.949,269.422,0,34,34,34,1,0.8,0.2,0.2,0.8,1,0,,,,,,,,,,,,,,,,,,,,,,,,,,,,,,,,,,,,
,,66c086c91cd54d5495701e9b,66fce21cf30a818a71481d4f,2024-10-01_23h05.44.786,mdp,2024.2.1,Win32,20.00080003,66fa4ebf79326e780c390304,,,,,,,,,,,,,,,,,,,,,269.423,269.423,269.426,270.418,0,0,left,0.401,,270.419,270.421,,0,,270.424,270.426,,1,,1,270.426,270.426,270.428,271.919,0,35,35,35,1,0.8,0.2,0.2,0.8,1,0,,,,,,,,,,,,,,,,,,,,,,,,,,,,,,,,,,,,
,,66c086c91cd54d5495701e9b,66fce21cf30a818a71481d4f,2024-10-01_23h05.44.786,mdp,2024.2.1,Win32,20.00080003,66fa4ebf79326e780c390304,,,,,,,,,,,,,,,,,,,,,271.92,271.92,271.921,275.052,0,1,left,2.563,,275.054,275.056,,0,,275.058,275.059,,1,,0,275.06,275.06,275.061,276.537,0,36,36,36,1,0.8,0.2,0.2,0.8,1,0,,,,,,,,,,,,,,,,,,,,,,,,,,,,,,,,,,,,
,,66c086c91cd54d5495701e9b,66fce21cf30a818a71481d4f,2024-10-01_23h05.44.786,mdp,2024.2.1,Win32,20.00080003,66fa4ebf79326e780c390304,,,,,,,,,,,,,,,,,,,,,276.538,276.538,276.541,277.293,1,1,right,0.172,,277.295,277.297,,1,,277.298,277.3,,1,,0,277.3,277.3,277.302,278.789,0,37,37,37,1,0.2,0.8,0.8,0.2,1,0,,,,,,,,,,,,,,,,,,,,,,,,,,,,,,,,,,,,
,,66c086c91cd54d5495701e9b,66fce21cf30a818a71481d4f,2024-10-01_23h05.44.786,mdp,2024.2.1,Win32,20.00080003,66fa4ebf79326e780c390304,,,,,,,,,,,,,,,,,,,,,278.79,278.79,278.792,279.873,0,0,left,0.511,,279.875,279.876,,1,,279.878,279.88,,0,,1,279.88,279.88,279.882,281.37,0,38,38,38,1,0.2,0.8,0.8,0.2,1,0,,,,,,,,,,,,,,,,,,,,,,,,,,,,,,,,,,,,
,,66c086c91cd54d5495701e9b,66fce21cf30a818a71481d4f,2024-10-01_23h05.44.786,mdp,2024.2.1,Win32,20.00080003,66fa4ebf79326e780c390304,,,,,,,,,,,,,,,,,,,,,281.371,281.371,281.373,283.194,1,0,right,1.225,,283.196,283.197,,1,,283.199,283.202,,0,,1,283.202,283.202,283.204,284.695,0,39,39,39,1,0.2,0.8,0.8,0.2,1,0,,,,,,,,,,,,,,,,,,,,,,,,,,,,,,,,,,,,
,,66c086c91cd54d5495701e9b,66fce21cf30a818a71481d4f,2024-10-01_23h05.44.786,mdp,2024.2.1,Win32,20.00080003,66fa4ebf79326e780c390304,,,,,,,,,,,,,,,,,,,,,284.696,284.696,284.698,285.599,0,0,left,0.338,,285.601,285.603,,1,,285.605,285.607,,1,,1,285.607,285.607,285.608,287.113,0,40,40,40,1,0.2,0.8,0.8,0.2,1,0,,,,,,,,,,,,,,,,,,,,,,,,,,,,,,,,,,,,
,,66c086c91cd54d5495701e9b,66fce21cf30a818a71481d4f,2024-10-01_23h05.44.786,mdp,2024.2.1,Win32,20.00080003,66fa4ebf79326e780c390304,,,,,,,,,,,,,,,,,,,,,287.114,287.114,287.116,287.881,1,0,right,0.176,,287.883,287.884,,0,,287.886,287.888,,0,,1,287.888,287.888,287.889,289.4,0,41,41,41,1,0.2,0.8,0.8,0.2,1,0,,,,,,,,,,,,,,,,,,,,,,,,,,,,,,,,,,,,
,,66c086c91cd54d5495701e9b,66fce21cf30a818a71481d4f,2024-10-01_23h05.44.786,mdp,2024.2.1,Win32,20.00080003,66fa4ebf79326e780c390304,,,,,,,,,,,,,,,,,,,,,289.4,289.4,289.403,290.809,0,0,left,0.819,,290.811,290.813,,1,,290.815,290.816,,1,,1,290.817,290.817,290.818,292.331,0,42,42,42,1,0.2,0.8,0.8,0.2,1,0,,,,,,,,,,,,,,,,,,,,,,,,,,,,,,,,,,,,
,,66c086c91cd54d5495701e9b,66fce21cf30a818a71481d4f,2024-10-01_23h05.44.786,mdp,2024.2.1,Win32,20.00080003,66fa4ebf79326e780c390304,,,,,,,,,,,,,,,,,,,,,292.333,292.333,292.335,294.913,1,0,right,2.018,,294.934,294.936,,1,,294.938,294.94,,1,,1,294.94,294.94,294.941,296.424,0,43,43,43,1,0.8,0.2,0.4,0.6,1,0,,,,,,,,,,,,,,,,,,,,,,,,,,,,,,,,,,,,
,,66c086c91cd54d5495701e9b,66fce21cf30a818a71481d4f,2024-10-01_23h05.44.786,mdp,2024.2.1,Win32,20.00080003,66fa4ebf79326e780c390304,,,,,,,,,,,,,,,,,,,,,296.426,296.426,296.428,298.571,0,1,left,1.583,,298.573,298.575,,0,,298.577,298.578,,0,,0,298.578,298.578,298.58,300.051,0,44,44,44,1,0.8,0.2,0.4,0.6,1,0,,,,,,,,,,,,,,,,,,,,,,,,,,,,,,,,,,,,
,,66c086c91cd54d5495701e9b,66fce21cf30a818a71481d4f,2024-10-01_23h05.44.786,mdp,2024.2.1,Win32,20.00080003,66fa4ebf79326e780c390304,,,,,,,,,,,,,,,,,,,,,300.052,300.052,300.054,300.797,1,0,right,0.19,,300.8,300.802,,0,,300.804,300.806,,0,,1,300.806,300.806,300.808,302.281,0,45,45,45,1,0.6,0.4,0.8,0.2,1,0,,,,,,,,,,,,,,,,,,,,,,,,,,,,,,,,,,,,
,,66c086c91cd54d5495701e9b,66fce21cf30a818a71481d4f,2024-10-01_23h05.44.786,mdp,2024.2.1,Win32,20.00080003,66fa4ebf79326e780c390304,,,,,,,,,,,,,,,,,,,,,302.281,302.281,302.283,303.257,0,0,left,0.396,,303.26,303.263,,0,,303.264,303.266,,0,,1,303.266,303.266,303.268,304.743,0,46,46,46,1,0.6,0.4,0.8,0.2,1,0,,,,,,,,,,,,,,,,,,,,,,,,,,,,,,,,,,,,
,,66c086c91cd54d5495701e9b,66fce21cf30a818a71481d4f,2024-10-01_23h05.44.786,mdp,2024.2.1,Win32,20.00080003,66fa4ebf79326e780c390304,,,,,,,,,,,,,,,,,,,,,304.744,304.744,304.746,305.897,1,0,right,0.582,,305.898,305.9,,0,,305.902,305.904,,0,,1,305.904,305.904,305.905,307.375,0,47,47,47,1,0.6,0.4,0.8,0.2,1,0,,,,,,,,,,,,,,,,,,,,,,,,,,,,,,,,,,,,
,,66c086c91cd54d5495701e9b,66fce21cf30a818a71481d4f,2024-10-01_23h05.44.786,mdp,2024.2.1,Win32,20.00080003,66fa4ebf79326e780c390304,,,,,,,,,,,,,,,,,,,,,307.377,307.377,307.379,311.371,1,0,right,3.434,,311.373,311.375,,0,,311.377,311.378,,0,,1,311.378,311.378,311.38,312.859,0,48,48,48,1,0.6,0.4,0.8,0.2,1,0,,,,,,,,,,,,,,,,,,,,,,,,,,,,,,,,,,,,
,,66c086c91cd54d5495701e9b,66fce21cf30a818a71481d4f,2024-10-01_23h05.44.786,mdp,2024.2.1,Win32,20.00080003,66fa4ebf79326e780c390304,,,,,,,,,,,,,,,,,,,,,312.862,312.862,312.866,314.704,0,0,left,1.239,,314.706,314.708,,0,,314.71,314.712,,0,,1,314.712,314.712,314.714,316.211,0,49,49,49,1,0.6,0.4,0.8,0.2,1,0,,,,,,,,,,,,,,,,,,,,,,,,,,,,,,,,,,,,
,,66c086c91cd54d5495701e9b,66fce21cf30a818a71481d4f,2024-10-01_23h05.44.786,mdp,2024.2.1,Win32,20.00080003,66fa4ebf79326e780c390304,,,,,,,,,,,,,,,,,,,,,,,,,,,,,,,,,,,,,,,,,,,,,,,,,,,,,,,,316.212,374.741,0,0,0,0,1,imgs/dog.png,imgs/cat.png,imgs/lion.png,imgs/elephant.png,imgs/goat.png,,,,,,,,,,,,,,,,,,,,,,,,
,,66c086c91cd54d5495701e9b,66fce21cf30a818a71481d4f,2024-10-01_23h05.44.786,mdp,2024.2.1,Win32,20.00080003,66fa4ebf79326e780c390304,,,,,,,,,,,,,,2,seqs/st2seq27.csv,374.763,386.642,space,11.316,,386.673,386.674,386.675,392.812,1,1,right,5.545,,392.834,394.763,0,1,left,394.765,394.767,,0,,0,394.767,394.767,394.769,396.265,0,0,0,0,1,0.8,0.2,0.4,0.6,,,,,,,,,,,,,,,1.356,,0.4,0.6,0.2,0.8,0.8,0.2,0.6,0.4,1,0,,,,,,,,,,,,
,,66c086c91cd54d5495701e9b,66fce21cf30a818a71481d4f,2024-10-01_23h05.44.786,mdp,2024.2.1,Win32,20.00080003,66fa4ebf79326e780c390304,,,,,,,,,,,,,,,,,,,,,396.267,396.267,396.268,397.362,1,1,right,0.51,,397.364,399.173,0,0,left,399.175,399.176,,0,,1,399.176,399.176,399.178,400.706,0,1,1,1,1,0.8,0.2,0.4,0.6,,,,,,,,,,,,,,,1.25,,0.2,0.8,0.4,0.6,0.8,0.2,0.6,0.4,1,0,,,,,,,,,,,,
,,66c086c91cd54d5495701e9b,66fce21cf30a818a71481d4f,2024-10-01_23h05.44.786,mdp,2024.2.1,Win32,20.00080003,66fa4ebf79326e780c390304,,,,,,,,,,,,,,,,,,,,,400.706,400.706,400.71,402.061,1,1,right,0.758,,402.063,403.941,0,0,left,403.942,403.944,,0,,1,403.944,403.944,403.946,405.432,0,2,2,2,1,0.8,0.2,0.4,0.6,,,,,,,,,,,,,,,1.31,,0.2,0.8,0.4,0.6,0.8,0.2,0.6,0.4,1,0,,,,,,,,,,,,
,,66c086c91cd54d5495701e9b,66fce21cf30a818a71481d4f,2024-10-01_23h05.44.786,mdp,2024.2.1,Win32,20.00080003,66fa4ebf79326e780c390304,,,,,,,,,,,,,,,,,,,,,405.434,405.434,405.435,406.829,1,1,right,0.808,,406.831,409.273,0,0,left,409.275,409.277,,0,,1,409.277,409.277,409.278,410.77,0,3,3,3,1,0.8,0.2,0.4,0.6,,,,,,,,,,,,,,,1.875,,0.2,0.8,0.4,0.6,0.8,0.2,0.6,0.4,1,0,,,,,,,,,,,,
,,66c086c91cd54d5495701e9b,66fce21cf30a818a71481d4f,2024-10-01_23h05.44.786,mdp,2024.2.1,Win32,20.00080003,66fa4ebf79326e780c390304,,,,,,,,,,,,,,,,,,,,,410.77,410.77,410.772,411.822,1,1,right,0.448,,411.824,413.348,0,1,left,413.35,413.352,,1,,0,413.352,413.352,413.354,414.86,0,4,4,4,1,0.8,0.2,0.4,0.6,,,,,,,,,,,,,,,0.968,,0.2,0.8,0.4,0.6,0.8,0.2,0.6,0.4,1,0,,,,,,,,,,,,
,,66c086c91cd54d5495701e9b,66fce21cf30a818a71481d4f,2024-10-01_23h05.44.786,mdp,2024.2.1,Win32,20.00080003,66fa4ebf79326e780c390304,,,,,,,,,,,,,,,,,,,,,414.861,414.861,414.863,417.648,0,0,left,2.212,,417.65,420.917,1,0,right,420.938,420.939,,1,,1,420.939,420.939,420.941,422.442,0,5,5,5,1,0.8,0.2,0.4,0.6,,,,,,,,,,,,,,,2.656,,0.2,0.8,0.4,0.6,0.8,0.2,0.6,0.4,1,0,,,,,,,,,,,,
,,66c086c91cd54d5495701e9b,66fce21cf30a818a71481d4f,2024-10-01_23h05.44.786,mdp,2024.2.1,Win32,20.00080003,66fa4ebf79326e780c390304,,,,,,,,,,,,,,,,,,,,,422.443,422.443,422.445,423.515,0,0,left,0.509,,423.518,424.551,1,1,right,424.553,424.555,,1,,0,424.555,424.555,424.556,426.047,0,6,6,6,1,0.8,0.2,0.4,0.6,,,,,,,,,,,,,,,0.456,,0.8,0.2,0.2,0.8,0.8,0.2,0.6,0.4,1,0,,,,,,,,,,,,
,,66c086c91cd54d5495701e9b,66fce21cf30a818a71481d4f,2024-10-01_23h05.44.786,mdp,2024.2.1,Win32,20.00080003,66fa4ebf79326e780c390304,,,,,,,,,,,,,,,,,,,,,426.048,426.048,426.05,426.611,0,1,left,0.002,,426.612,427.803,0,0,left,427.805,427.807,,0,,1,427.807,427.807,427.809,429.295,0,7,7,7,1,0.8,0.2,0.4,0.6,,,,,,,,,,,,,,,0.624,,0.8,0.2,0.2,0.8,0.8,0.2,0.6,0.4,1,0,,,,,,,,,,,,
,,66c086c91cd54d5495701e9b,66fce21cf30a818a71481d4f,2024-10-01_23h05.44.786,mdp,2024.2.1,Win32,20.00080003,66fa4ebf79326e780c390304,,,,,,,,,,,,,,,,,,,,,429.296,429.296,429.298,429.859,1,1,right,0.002,,429.861,431.068,1,0,right,431.071,431.073,,0,,1,431.073,431.073,431.075,432.589,0,8,8,8,1,0.8,0.2,0.4,0.6,,,,,,,,,,,,,,,0.622,,0.8,0.2,0.2,0.8,0.8,0.2,0.6,0.4,1,0,,,,,,,,,,,,
,,66c086c91cd54d5495701e9b,66fce21cf30a818a71481d4f,2024-10-01_23h05.44.786,mdp,2024.2.1,Win32,20.00080003,66fa4ebf79326e780c390304,,,,,,,,,,,,,,,,,,,,,432.59,432.59,432.592,433.436,0,1,left,0.288,,433.437,434.24,1,1,right,434.241,434.243,,1,,0,434.243,434.243,434.245,435.695,0,9,9,9,1,0.8,0.2,0.4,0.6,,,,,,,,,,,,,,,0.176,,0.8,0.2,0.2,0.8,0.4,0.6,0.2,0.8,1,0,,,,,,,,,,,,
,,66c086c91cd54d5495701e9b,66fce21cf30a818a71481d4f,2024-10-01_23h05.44.786,mdp,2024.2.1,Win32,20.00080003,66fa4ebf79326e780c390304,,,,,,,,,,,,,,,,,,,,,435.696,435.696,435.698,436.515,1,1,right,0.232,,436.517,437.081,0,0,left,437.083,437.085,,0,,1,437.085,437.085,437.087,438.563,0,10,10,10,1,0.8,0.2,0.4,0.6,,,,,,,,,,,,,,,0.002,,0.8,0.2,0.2,0.8,0.4,0.6,0.2,0.8,1,0,,,,,,,,,,,,
,,66c086c91cd54d5495701e9b,66fce21cf30a818a71481d4f,2024-10-01_23h05.44.786,mdp,2024.2.1,Win32,20.00080003,66fa4ebf79326e780c390304,,,,,,,,,,,,,,,,,,,,,438.565,438.565,438.566,439.158,0,1,left,0.001,,439.16,439.901,1,1,right,439.904,439.906,,1,,0,439.906,439.906,439.908,441.415,0,11,11,11,1,0.8,0.2,0.4,0.6,,,,,,,,,,,,,,,0.176,,0.8,0.2,0.2,0.8,0.4,0.6,0.2,0.8,1,0,,,,,,,,,,,,
,,66c086c91cd54d5495701e9b,66fce21cf30a818a71481d4f,2024-10-01_23h05.44.786,mdp,2024.2.1,Win32,20.00080003,66fa4ebf79326e780c390304,,,,,,,,,,,,,,,,,,,,,441.416,441.416,441.418,442.624,0,0,left,0.648,,442.627,443.807,0,0,left,443.809,443.811,,0,,1,443.811,443.811,443.812,445.317,0,12,12,12,1,0.8,0.2,0.4,0.6,,,,,,,,,,,,,,,0.578,,0.8,0.2,0.2,0.8,0.4,0.6,0.2,0.8,1,0,,,,,,,,,,,,
,,66c086c91cd54d5495701e9b,66fce21cf30a818a71481d4f,2024-10-01_23h05.44.786,mdp,2024.2.1,Win32,20.00080003,66fa4ebf79326e780c390304,,,,,,,,,,,,,,,,,,,,,445.318,445.318,445.319,446.049,0,0,left,0.169,,446.05,446.989,0,0,left,446.991,446.992,,0,,1,446.992,446.992,446.994,448.501,0,13,13,13,1,0.8,0.2,0.4,0.6,,,,,,,,,,,,,,,0.343,,0.8,0.2,0.2,0.8,0.4,0.6,0.2,0.8,1,0,,,,,,,,,,,,
,,66c086c91cd54d5495701e9b,66fce21cf30a818a71481d4f,2024-10-01_23h05.44.786,mdp,2024.2.1,Win32,20.00080003,66fa4ebf79326e780c390304,,,,,,,,,,,,,,,,,,,,,448.502,448.502,448.504,449.608,1,1,right,0.533,,449.61,450.242,1,0,right,450.243,450.245,,1,,1,450.245,450.245,450.247,451.749,0,14,14,14,1,0.8,0.2,0.4,0.6,,,,,,,,,,,,,,,0.061,,0.8,0.2,0.2,0.8,0.4,0.6,0.2,0.8,1,0,,,,,,,,,,,,
,,66c086c91cd54d5495701e9b,66fce21cf30a818a71481d4f,2024-10-01_23h05.44.786,mdp,2024.2.1,Win32,20.00080003,66fa4ebf79326e780c390304,,,,,,,,,,,,,,,,,,,,,451.751,451.751,451.753,452.462,0,0,left,0.123,,452.464,453.092,1,1,right,453.093,453.095,,0,,0,453.095,453.095,453.097,454.589,0,15,15,15,1,0.8,0.2,0.4,0.6,,,,,,,,,,,,,,,0.058,,0.8,0.2,0.2,0.8,0.4,0.6,0.2,0.8,1,0,,,,,,,,,,,,
,,66c086c91cd54d5495701e9b,66fce21cf30a818a71481d4f,2024-10-01_23h05.44.786,mdp,2024.2.1,Win32,20.00080003,66fa4ebf79326e780c390304,,,,,,,,,,,,,,,,,,,,,454.589,454.589,454.591,455.404,0,0,left,0.254,,455.405,456.031,1,1,right,456.033,456.035,,1,,0,456.035,456.035,456.037,457.522,0,16,16,16,1,0.8,0.2,0.4,0.6,,,,,,,,,,,,,,,0.059,,0.8,0.2,0.2,0.8,0.4,0.6,0.2,0.8,1,0,,,,,,,,,,,,
,,66c086c91cd54d5495701e9b,66fce21cf30a818a71481d4f,2024-10-01_23h05.44.786,mdp,2024.2.1,Win32,20.00080003,66fa4ebf79326e780c390304,,,,,,,,,,,,,,,,,,,,,457.523,457.523,457.524,458.147,0,0,left,0.058,,458.148,458.725,1,1,right,458.727,458.729,,1,,0,458.729,458.729,458.73,460.194,0,17,17,17,1,0.8,0.2,0.4,0.6,,,,,,,,,,,,,,,0.001,,0.8,0.2,0.2,0.8,0.4,0.6,0.2,0.8,1,0,,,,,,,,,,,,
,,66c086c91cd54d5495701e9b,66fce21cf30a818a71481d4f,2024-10-01_23h05.44.786,mdp,2024.2.1,Win32,20.00080003,66fa4ebf79326e780c390304,,,,,,,,,,,,,,,,,,,,,460.195,460.195,460.196,461.138,1,1,right,0.341,,461.139,462.055,1,1,right,462.057,462.059,,1,,0,462.059,462.059,462.06,463.498,0,18,18,18,1,0.8,0.2,0.4,0.6,,,,,,,,,,,,,,,0.342,,0.8,0.2,0.2,0.8,0.4,0.6,0.2,0.8,1,0,,,,,,,,,,,,
,,66c086c91cd54d5495701e9b,66fce21cf30a818a71481d4f,2024-10-01_23h05.44.786,mdp,2024.2.1,Win32,20.00080003,66fa4ebf79326e780c390304,,,,,,,,,,,,,,,,,,,,,463.5,463.5,463.502,464.075,1,0,right,0.003,,464.077,465.146,0,0,left,465.148,465.15,,0,,1,465.15,465.15,465.151,466.659,0,19,19,19,1,0.8,0.2,0.4,0.6,,,,,,,,,,,,,,,0.466,,0.8,0.2,0.2,0.8,0.6,0.4,0.8,0.2,1,0,,,,,,,,,,,,
,,66c086c91cd54d5495701e9b,66fce21cf30a818a71481d4f,2024-10-01_23h05.44.786,mdp,2024.2.1,Win32,20.00080003,66fa4ebf79326e780c390304,,,,,,,,,,,,,,,,,,,,,466.66,466.66,466.661,467.484,0,0,left,0.258,,467.486,468.06,0,1,left,468.062,468.064,,0,,0,468.064,468.064,468.065,469.538,0,20,20,20,1,0.8,0.2,0.4,0.6,,,,,,,,,,,,,,,0.003,,0.8,0.2,0.2,0.8,0.8,0.2,0.4,0.6,1,0,,,,,,,,,,,,
,,66c086c91cd54d5495701e9b,66fce21cf30a818a71481d4f,2024-10-01_23h05.44.786,mdp,2024.2.1,Win32,20.00080003,66fa4ebf79326e780c390304,,,,,,,,,,,,,,,,,,,,,469.538,469.538,469.54,470.727,1,1,right,0.619,,470.729,471.64,0,0,left,471.642,471.644,,0,,1,471.644,471.644,471.646,473.15,0,21,21,21,1,0.8,0.2,0.4,0.6,,,,,,,,,,,,,,,0.339,,0.8,0.2,0.2,0.8,0.8,0.2,0.4,0.6,1,0,,,,,,,,,,,,
,,66c086c91cd54d5495701e9b,66fce21cf30a818a71481d4f,2024-10-01_23h05.44.786,mdp,2024.2.1,Win32,20.00080003,66fa4ebf79326e780c390304,,,,,,,,,,,,,,,,,,,,,473.151,473.151,473.153,473.907,1,1,right,0.169,,473.909,474.644,1,0,right,474.645,474.647,,0,,1,474.647,474.647,474.649,476.164,0,22,22,22,1,0.8,0.2,0.4,0.6,,,,,,,,,,,,,,,0.17,,0.8,0.2,0.2,0.8,0.8,0.2,0.4,0.6,1,0,,,,,,,,,,,,
,,66c086c91cd54d5495701e9b,66fce21cf30a818a71481d4f,2024-10-01_23h05.44.786,mdp,2024.2.1,Win32,20.00080003,66fa4ebf79326e780c390304,,,,,,,,,,,,,,,,,,,,,476.165,476.165,476.167,476.881,1,0,right,0.111,,476.882,477.71,1,0,right,477.713,477.715,,1,,1,477.715,477.715,477.718,479.187,0,23,23,23,1,0.8,0.2,0.4,0.6,,,,,,,,,,,,,,,0.252,,0.8,0.2,0.2,0.8,0.8,0.2,0.4,0.6,1,0,,,,,,,,,,,,
,,66c086c91cd54d5495701e9b,66fce21cf30a818a71481d4f,2024-10-01_23h05.44.786,mdp,2024.2.1,Win32,20.00080003,66fa4ebf79326e780c390304,,,,,,,,,,,,,,,,,,,,,479.189,479.189,479.191,479.843,0,1,left,0.06,,479.844,480.48,1,1,right,480.482,480.485,,0,,0,480.485,480.485,480.487,481.976,0,24,24,24,1,0.8,0.2,0.4,0.6,,,,,,,,,,,,,,,0.057,,0.8,0.2,0.2,0.8,0.8,0.2,0.4,0.6,1,0,,,,,,,,,,,,
,,66c086c91cd54d5495701e9b,66fce21cf30a818a71481d4f,2024-10-01_23h05.44.786,mdp,2024.2.1,Win32,20.00080003,66fa4ebf79326e780c390304,,,,,,,,,,,,,,,,,,,,,481.978,481.978,481.98,482.585,0,0,left,0.001,,482.587,483.227,1,1,right,483.23,483.232,,0,,0,483.232,483.232,483.233,484.707,0,25,25,25,1,0.8,0.2,0.4,0.6,,,,,,,,,,,,,,,0.056,,0.8,0.2,0.2,0.8,0.8,0.2,0.4,0.6,1,0,,,,,,,,,,,,
,,66c086c91cd54d5495701e9b,66fce21cf30a818a71481d4f,2024-10-01_23h05.44.786,mdp,2024.2.1,Win32,20.00080003,66fa4ebf79326e780c390304,,,,,,,,,,,,,,,,,,,,,484.709,484.709,484.711,485.45,0,0,left,0.173,,485.451,486.261,1,0,right,486.264,486.266,,1,,1,486.266,486.266,486.268,487.733,0,26,26,26,1,0.8,0.2,0.4,0.6,,,,,,,,,,,,,,,0.224,,0.8,0.2,0.2,0.8,0.8,0.2,0.4,0.6,1,0,,,,,,,,,,,,
,,66c086c91cd54d5495701e9b,66fce21cf30a818a71481d4f,2024-10-01_23h05.44.786,mdp,2024.2.1,Win32,20.00080003,66fa4ebf79326e780c390304,,,,,,,,,,,,,,,,,,,,,487.734,487.734,487.736,488.83,1,1,right,0.53,,488.832,490.004,1,1,right,490.006,490.007,,0,,0,490.007,490.007,490.009,491.471,0,27,27,27,1,0.8,0.2,0.4,0.6,,,,,,,,,,,,,,,0.597,,0.8,0.2,0.2,0.8,0.8,0.2,0.4,0.6,1,0,,,,,,,,,,,,
,,66c086c91cd54d5495701e9b,66fce21cf30a818a71481d4f,2024-10-01_23h05.44.786,mdp,2024.2.1,Win32,20.00080003,66fa4ebf79326e780c390304,,,,,,,,,,,,,,,,,,,,,491.473,491.473,491.474,492.072,0,0,left,0.003,,492.073,492.773,0,0,left,492.775,492.777,,0,,1,492.777,492.777,492.779,494.3,0,28,28,28,1,0.8,0.2,0.4,0.6,,,,,,,,,,,,,,,0.117,,0.8,0.2,0.2,0.8,0.8,0.2,0.4,0.6,1,0,,,,,,,,,,,,
,,66c086c91cd54d5495701e9b,66fce21cf30a818a71481d4f,2024-10-01_23h05.44.786,mdp,2024.2.1,Win32,20.00080003,66fa4ebf79326e780c390304,,,,,,,,,,,,,,,,,,,,,494.3,494.3,494.302,495.075,1,0,right,0.171,,495.076,496.242,0,0,left,496.244,496.245,,0,,1,496.245,496.245,496.247,497.72,0,29,29,29,1,0.8,0.2,0.4,0.6,,,,,,,,,,,,,,,0.602,,0.8,0.2,0.2,0.8,0.8,0.2,0.4,0.6,1,0,,,,,,,,,,,,
,,66c086c91cd54d5495701e9b,66fce21cf30a818a71481d4f,2024-10-01_23h05.44.786,mdp,2024.2.1,Win32,20.00080003,66fa4ebf79326e780c390304,,,,,,,,,,,,,,,,,,,,,497.723,497.723,497.724,498.632,1,1,right,0.341,,498.633,499.365,1,1,right,499.367,499.368,,1,,0,499.369,499.369,499.37,500.853,0,30,30,30,1,0.8,0.2,0.4,0.6,,,,,,,,,,,,,,,0.116,,0.8,0.2,0.2,0.8,0.8,0.2,0.4,0.6,1,0,,,,,,,,,,,,
,,66c086c91cd54d5495701e9b,66fce21cf30a818a71481d4f,2024-10-01_23h05.44.786,mdp,2024.2.1,Win32,20.00080003,66fa4ebf79326e780c390304,,,,,,,,,,,,,,,,,,,,,500.854,500.854,500.857,501.44,1,1,right,0.002,,501.442,502.061,1,1,right,502.062,502.064,,1,,0,502.064,502.064,502.065,503.547,0,31,31,31,1,0.8,0.2,0.4,0.6,,,,,,,,,,,,,,,0.06,,0.8,0.2,0.2,0.8,0.8,0.2,0.4,0.6,1,0,,,,,,,,,,,,
,,66c086c91cd54d5495701e9b,66fce21cf30a818a71481d4f,2024-10-01_23h05.44.786,mdp,2024.2.1,Win32,20.00080003,66fa4ebf79326e780c390304,,,,,,,,,,,,,,,,,,,,,503.548,503.548,503.55,504.557,1,0,right,0.402,,504.558,505.728,1,1,right,505.73,505.732,,1,,0,505.732,505.732,505.733,507.197,0,32,32,32,1,0.8,0.2,0.4,0.6,,,,,,,,,,,,,,,0.564,,0.8,0.2,0.2,0.8,0.8,0.2,0.4,0.6,1,0,,,,,,,,,,,,
,,66c086c91cd54d5495701e9b,66fce21cf30a818a71481d4f,2024-10-01_23h05.44.786,mdp,2024.2.1,Win32,20.00080003,66fa4ebf79326e780c390304,,,,,,,,,,,,,,,,,,,,,507.198,507.198,507.199,508.349,1,0,right,0.589,,508.35,509.176,1,1,right,509.178,509.18,,1,,0,509.18,509.18,509.182,510.682,0,33,33,33,1,0.8,0.2,0.4,0.6,,,,,,,,,,,,,,,0.248,,0.8,0.2,0.2,0.8,0.8,0.2,0.4,0.6,1,0,,,,,,,,,,,,
,,66c086c91cd54d5495701e9b,66fce21cf30a818a71481d4f,2024-10-01_23h05.44.786,mdp,2024.2.1,Win32,20.00080003,66fa4ebf79326e780c390304,,,,,,,,,,,,,,,,,,,,,510.683,510.683,510.686,511.534,1,0,right,0.286,,511.535,512.333,1,0,right,512.335,512.337,,0,,1,512.337,512.337,512.339,513.792,0,34,34,34,1,0.8,0.2,0.4,0.6,,,,,,,,,,,,,,,0.225,,0.2,0.8,0.6,0.4,0.8,0.2,0.4,0.6,1,0,,,,,,,,,,,,
,,66c086c91cd54d5495701e9b,66fce21cf30a818a71481d4f,2024-10-01_23h05.44.786,mdp,2024.2.1,Win32,20.00080003,66fa4ebf79326e780c390304,,,,,,,,,,,,,,,,,,,,,513.794,513.794,513.796,514.784,1,0,right,0.401,,514.786,516.137,1,1,right,516.139,516.14,,0,,0,516.141,516.141,516.142,517.593,0,35,35,35,1,0.8,0.2,0.4,0.6,,,,,,,,,,,,,,,0.788,,0.2,0.8,0.6,0.4,0.6,0.4,0.6,0.4,1,0,,,,,,,,,,,,
,,66c086c91cd54d5495701e9b,66fce21cf30a818a71481d4f,2024-10-01_23h05.44.786,mdp,2024.2.1,Win32,20.00080003,66fa4ebf79326e780c390304,,,,,,,,,,,,,,,,,,,,,517.594,517.594,517.596,518.8,1,1,right,0.62,,518.802,519.454,1,0,right,519.456,519.458,,1,,1,519.458,519.458,519.46,520.953,0,36,36,36,1,0.8,0.2,0.4,0.6,,,,,,,,,,,,,,,0.057,,0.2,0.8,0.6,0.4,0.6,0.4,0.6,0.4,1,0,,,,,,,,,,,,
,,66c086c91cd54d5495701e9b,66fce21cf30a818a71481d4f,2024-10-01_23h05.44.786,mdp,2024.2.1,Win32,20.00080003,66fa4ebf79326e780c390304,,,,,,,,,,,,,,,,,,,,,520.953,520.953,520.955,521.673,0,0,left,0.117,,521.675,522.34,1,1,right,522.341,522.343,,0,,0,522.343,522.343,522.345,523.835,0,37,37,37,1,0.8,0.2,0.4,0.6,,,,,,,,,,,,,,,0.059,,0.2,0.8,0.6,0.4,0.6,0.4,0.6,0.4,1,0,,,,,,,,,,,,
,,66c086c91cd54d5495701e9b,66fce21cf30a818a71481d4f,2024-10-01_23h05.44.786,mdp,2024.2.1,Win32,20.00080003,66fa4ebf79326e780c390304,,,,,,,,,,,,,,,,,,,,,523.836,523.836,523.838,524.43,1,1,right,0.003,,524.432,525.286,1,0,right,525.288,525.29,,1,,1,525.29,525.29,525.291,526.741,0,38,38,38,1,0.8,0.2,0.4,0.6,,,,,,,,,,,,,,,0.287,,0.2,0.8,0.6,0.4,0.6,0.4,0.6,0.4,1,0,,,,,,,,,,,,
,,66c086c91cd54d5495701e9b,66fce21cf30a818a71481d4f,2024-10-01_23h05.44.786,mdp,2024.2.1,Win32,20.00080003,66fa4ebf79326e780c390304,,,,,,,,,,,,,,,,,,,,,526.743,526.743,526.745,528.156,0,0,left,0.814,,528.158,528.797,1,1,right,528.8,528.802,,1,,0,528.802,528.802,528.804,530.294,0,39,39,39,1,0.8,0.2,0.4,0.6,,,,,,,,,,,,,,,0.059,,0.2,0.8,0.6,0.4,0.6,0.4,0.6,0.4,1,0,,,,,,,,,,,,
,,66c086c91cd54d5495701e9b,66fce21cf30a818a71481d4f,2024-10-01_23h05.44.786,mdp,2024.2.1,Win32,20.00080003,66fa4ebf79326e780c390304,,,,,,,,,,,,,,,,,,,,,530.295,530.295,530.296,531.159,1,1,right,0.298,,531.161,533.643,1,1,right,533.644,533.647,,0,,0,533.647,533.647,533.649,535.141,0,40,40,40,1,0.8,0.2,0.4,0.6,,,,,,,,,,,,,,,1.899,,0.4,0.6,0.4,0.6,0.6,0.4,0.6,0.4,1,0,,,,,,,,,,,,
,,66c086c91cd54d5495701e9b,66fce21cf30a818a71481d4f,2024-10-01_23h05.44.786,mdp,2024.2.1,Win32,20.00080003,66fa4ebf79326e780c390304,,,,,,,,,,,,,,,,,,,,,535.142,535.142,535.144,535.867,1,1,right,0.123,,535.869,536.748,1,0,right,536.75,536.752,,0,,1,536.752,536.752,536.754,538.252,0,41,41,41,1,0.8,0.2,0.4,0.6,,,,,,,,,,,,,,,0.285,,0.4,0.6,0.4,0.6,0.6,0.4,0.6,0.4,1,0,,,,,,,,,,,,
,,66c086c91cd54d5495701e9b,66fce21cf30a818a71481d4f,2024-10-01_23h05.44.786,mdp,2024.2.1,Win32,20.00080003,66fa4ebf79326e780c390304,,,,,,,,,,,,,,,,,,,,,538.253,538.253,538.255,540.417,1,0,right,1.596,,540.419,541.046,1,0,right,541.047,541.049,,1,,1,541.049,541.049,541.051,542.509,0,42,42,42,1,0.8,0.2,0.4,0.6,,,,,,,,,,,,,,,0.06,,0.4,0.6,0.4,0.6,0.6,0.4,0.6,0.4,1,0,,,,,,,,,,,,
,,66c086c91cd54d5495701e9b,66fce21cf30a818a71481d4f,2024-10-01_23h05.44.786,mdp,2024.2.1,Win32,20.00080003,66fa4ebf79326e780c390304,,,,,,,,,,,,,,,,,,,,,542.51,542.51,542.512,543.269,1,0,right,0.187,,543.271,543.905,1,1,right,543.907,543.909,,0,,0,543.909,543.909,543.91,545.389,0,43,43,43,1,0.8,0.2,0.4,0.6,,,,,,,,,,,,,,,0.059,,0.4,0.6,0.4,0.6,0.6,0.4,0.6,0.4,1,0,,,,,,,,,,,,
,,66c086c91cd54d5495701e9b,66fce21cf30a818a71481d4f,2024-10-01_23h05.44.786,mdp,2024.2.1,Win32,20.00080003,66fa4ebf79326e780c390304,,,,,,,,,,,,,,,,,,,,,545.39,545.39,545.392,546.649,0,0,left,0.694,,546.651,547.398,0,1,left,547.4,547.402,,1,,0,547.402,547.402,547.403,548.881,0,44,44,44,1,0.8,0.2,0.4,0.6,,,,,,,,,,,,,,,0.187,,0.4,0.6,0.4,0.6,0.6,0.4,0.6,0.4,1,0,,,,,,,,,,,,
,,66c086c91cd54d5495701e9b,66fce21cf30a818a71481d4f,2024-10-01_23h05.44.786,mdp,2024.2.1,Win32,20.00080003,66fa4ebf79326e780c390304,,,,,,,,,,,,,,,,,,,,,548.883,548.883,548.885,583.296,1,1,right,33.849,,583.318,587.417,1,0,right,587.419,587.421,,1,,1,587.421,587.421,587.423,588.915,0,45,45,45,1,0.8,0.2,0.4,0.6,,,,,,,,,,,,,,,3.504,,0.4,0.6,0.4,0.6,0.6,0.4,0.6,0.4,1,0,,,,,,,,,,,,
,,66c086c91cd54d5495701e9b,66fce21cf30a818a71481d4f,2024-10-01_23h05.44.786,mdp,2024.2.1,Win32,20.00080003,66fa4ebf79326e780c390304,,,,,,,,,,,,,,,,,,,,,588.915,588.915,588.917,600.592,1,1,right,11.119,,600.614,601.214,1,1,right,601.216,601.218,,0,,0,601.218,601.218,601.219,602.697,0,46,46,46,1,0.8,0.2,0.4,0.6,,,,,,,,,,,,,,,0.002,,0.4,0.6,0.4,0.6,0.6,0.4,0.6,0.4,1,0,,,,,,,,,,,,
,,66c086c91cd54d5495701e9b,66fce21cf30a818a71481d4f,2024-10-01_23h05.44.786,mdp,2024.2.1,Win32,20.00080003,66fa4ebf79326e780c390304,,,,,,,,,,,,,,,,,,,,,602.698,602.698,602.7,603.65,1,1,right,0.39,,603.651,604.52,1,0,right,604.521,604.523,,0,,1,604.523,604.523,604.525,606.02,0,47,47,47,1,0.8,0.2,0.4,0.6,,,,,,,,,,,,,,,0.282,,0.4,0.6,0.4,0.6,0.4,0.6,0.8,0.2,1,0,,,,,,,,,,,,
,,66c086c91cd54d5495701e9b,66fce21cf30a818a71481d4f,2024-10-01_23h05.44.786,mdp,2024.2.1,Win32,20.00080003,66fa4ebf79326e780c390304,,,,,,,,,,,,,,,,,,,,,606.021,606.021,606.023,608.689,0,0,left,2.109,,608.691,609.265,1,1,right,609.268,609.27,,1,,0,609.27,609.27,609.272,610.736,0,48,48,48,1,0.8,0.2,0.4,0.6,,,,,,,,,,,,,,,0.004,,0.4,0.6,0.4,0.6,0.4,0.6,0.8,0.2,1,0,,,,,,,,,,,,
,,66c086c91cd54d5495701e9b,66fce21cf30a818a71481d4f,2024-10-01_23h05.44.786,mdp,2024.2.1,Win32,20.00080003,66fa4ebf79326e780c390304,,,,,,,,,,,,,,,,,,,,,610.737,610.737,610.739,611.859,1,0,right,0.516,,611.861,612.512,1,0,right,612.514,612.516,,1,,1,612.516,612.516,612.518,614.022,0,49,49,49,1,0.8,0.2,0.4,0.6,,,,,,,,,,,,,,,0.057,,0.4,0.6,0.4,0.6,0.4,0.6,0.8,0.2,1,0,,,,,,,,,,,,
,,66c086c91cd54d5495701e9b,66fce21cf30a818a71481d4f,2024-10-01_23h05.44.786,mdp,2024.2.1,Win32,20.00080003,66fa4ebf79326e780c390304,,,,,,,,,,,,,,,,,,,,,,,,,,,,,,,,,,,,,,,,,,,,,,,,,,,,,,,,614.022,672.553,0,1,1,2,1,imgs/rabbit.png,imgs/dog.png,imgs/goat.png,imgs/pig.png,imgs/kangaroo.png,,,,,,,,,,,,,,,,,,,,,,,,
,,66c086c91cd54d5495701e9b,66fce21cf30a818a71481d4f,2024-10-01_23h05.44.786,mdp,2024.2.1,Win32,20.00080003,66fa4ebf79326e780c390304,,,,,,,,,,,,,,3,seqs/st3seq15.csv,672.576,689.302,space,16.153,,689.365,689.366,689.367,694.06,1,0,right,4.113,,694.081,694.768,0,0,left,694.769,695.474,0,0,left,1,695.474,695.474,695.476,696.973,0,0,0,0,1,0.2,0.8,0.6,0.4,,,,,,,,,,,,,,,0.067,,0.2,0.8,0.8,0.2,0.2,0.8,0.8,0.2,,,0.114,,0.8,0.2,0.2,0.8,0.8,0.2,0.2,0.8,1,0
,,66c086c91cd54d5495701e9b,66fce21cf30a818a71481d4f,2024-10-01_23h05.44.786,mdp,2024.2.1,Win32,20.00080003,66fa4ebf79326e780c390304,,,,,,,,,,,,,,,,,,,,,696.974,696.974,696.976,697.677,1,0,right,0.142,,697.68,698.249,0,1,left,698.251,698.828,1,1,right,0,698.828,698.828,698.83,700.32,0,1,1,1,1,0.2,0.8,0.6,0.4,,,,,,,,,,,,,,,0.003,,0.2,0.8,0.8,0.2,0.2,0.8,0.8,0.2,,,0.002,,0.8,0.2,0.2,0.8,0.8,0.2,0.2,0.8,1,0
,,66c086c91cd54d5495701e9b,66fce21cf30a818a71481d4f,2024-10-01_23h05.44.786,mdp,2024.2.1,Win32,20.00080003,66fa4ebf79326e780c390304,,,,,,,,,,,,,,,,,,,,,700.32,700.32,700.322,700.925,0,1,left,0.002,,700.927,701.506,0,1,left,701.509,702.222,1,1,right,0,702.222,702.222,702.223,703.71,0,2,2,2,1,0.2,0.8,0.6,0.4,,,,,,,,,,,,,,,0.002,,0.2,0.8,0.8,0.2,0.2,0.8,0.8,0.2,,,0.115,,0.8,0.2,0.2,0.8,0.8,0.2,0.2,0.8,1,0
,,66c086c91cd54d5495701e9b,66fce21cf30a818a71481d4f,2024-10-01_23h05.44.786,mdp,2024.2.1,Win32,20.00080003,66fa4ebf79326e780c390304,,,,,,,,,,,,,,,,,,,,,703.711,703.711,703.713,704.39,0,1,left,0.112,,704.392,705.133,1,0,right,705.134,705.778,0,0,left,1,705.778,705.778,705.781,707.252,0,3,3,3,1,0.2,0.8,0.6,0.4,,,,,,,,,,,,,,,0.175,,0.2,0.8,0.8,0.2,0.8,0.2,0.6,0.4,,,0.071,,0.8,0.2,0.2,0.8,0.8,0.2,0.2,0.8,1,0
,,66c086c91cd54d5495701e9b,66fce21cf30a818a71481d4f,2024-10-01_23h05.44.786,mdp,2024.2.1,Win32,20.00080003,66fa4ebf79326e780c390304,,,,,,,,,,,,,,,,,,,,,707.253,707.253,707.255,707.971,0,1,left,0.125,,707.973,708.708,0,1,left,708.71,709.765,1,1,right,0,709.765,709.765,709.767,711.223,0,4,4,4,1,0.2,0.8,0.6,0.4,,,,,,,,,,,,,,,0.172,,0.2,0.8,0.8,0.2,0.8,0.2,0.6,0.4,,,0.457,,0.8,0.2,0.2,0.8,0.8,0.2,0.2,0.8,1,0
,,66c086c91cd54d5495701e9b,66fce21cf30a818a71481d4f,2024-10-01_23h05.44.786,mdp,2024.2.1,Win32,20.00080003,66fa4ebf79326e780c390304,,,,,,,,,,,,,,,,,,,,,711.225,711.225,711.226,712.113,0,1,left,0.302,,712.115,712.742,1,0,right,712.745,713.32,1,1,right,0,713.321,713.321,713.323,714.8,0,5,5,5,1,0.2,0.8,0.6,0.4,,,,,,,,,,,,,,,0.06,,0.2,0.8,0.8,0.2,0.8,0.2,0.6,0.4,,,0.001,,0.8,0.2,0.2,0.8,0.2,0.8,0.8,0.2,1,0
,,66c086c91cd54d5495701e9b,66fce21cf30a818a71481d4f,2024-10-01_23h05.44.786,mdp,2024.2.1,Win32,20.00080003,66fa4ebf79326e780c390304,,,,,,,,,,,,,,,,,,,,,714.8,714.8,714.804,715.626,1,1,right,0.228,,715.628,716.55,1,0,right,716.552,717.229,1,0,right,1,717.23,717.23,717.232,718.712,0,6,6,6,1,0.8,0.2,0.2,0.8,,,,,,,,,,,,,,,0.341,,0.2,0.8,0.8,0.2,0.8,0.2,0.6,0.4,,,0.115,,0.8,0.2,0.2,0.8,0.2,0.8,0.8,0.2,1,0
,,66c086c91cd54d5495701e9b,66fce21cf30a818a71481d4f,2024-10-01_23h05.44.786,mdp,2024.2.1,Win32,20.00080003,66fa4ebf79326e780c390304,,,,,,,,,,,,,,,,,,,,,718.712,718.712,718.715,719.472,0,0,left,0.172,,719.473,720.382,1,0,right,720.384,721.003,1,1,right,0,721.003,721.003,721.005,722.516,0,7,7,7,1,0.8,0.2,0.2,0.8,,,,,,,,,,,,,,,0.339,,0.2,0.8,0.8,0.2,0.8,0.2,0.6,0.4,,,0.06,,0.8,0.2,0.2,0.8,0.2,0.8,0.8,0.2,1,0
,,66c086c91cd54d5495701e9b,66fce21cf30a818a71481d4f,2024-10-01_23h05.44.786,mdp,2024.2.1,Win32,20.00080003,66fa4ebf79326e780c390304,,,,,,,,,,,,,,,,,,,,,722.518,722.518,722.52,723.114,0,1,left,0.002,,723.116,723.69,0,0,left,723.691,724.608,1,1,right,0,724.608,724.608,724.61,726.069,0,8,8,8,1,0.4,0.6,0.6,0.4,,,,,,,,,,,,,,,0.002,,0.2,0.8,0.8,0.2,0.8,0.2,0.6,0.4,,,0.348,,0.8,0.2,0.2,0.8,0.2,0.8,0.8,0.2,1,0
,,66c086c91cd54d5495701e9b,66fce21cf30a818a71481d4f,2024-10-01_23h05.44.786,mdp,2024.2.1,Win32,20.00080003,66fa4ebf79326e780c390304,,,,,,,,,,,,,,,,,,,,,726.07,726.07,726.071,727.046,0,1,left,0.414,,727.048,727.91,1,1,right,727.911,728.542,1,0,right,1,728.542,728.542,728.545,730.045,0,9,9,9,1,0.4,0.6,0.6,0.4,,,,,,,,,,,,,,,0.286,,0.2,0.8,0.8,0.2,0.8,0.2,0.6,0.4,,,0.059,,0.8,0.2,0.2,0.8,0.2,0.8,0.8,0.2,1,0
,,66c086c91cd54d5495701e9b,66fce21cf30a818a71481d4f,2024-10-01_23h05.44.786,mdp,2024.2.1,Win32,20.00080003,66fa4ebf79326e780c390304,,,,,,,,,,,,,,,,,,,,,730.045,730.045,730.049,730.921,0,0,left,0.287,,730.923,731.763,1,0,right,731.765,732.822,0,0,left,1,732.823,732.823,732.824,734.295,0,10,10,10,1,0.4,0.6,0.6,0.4,,,,,,,,,,,,,,,0.233,,0.2,0.8,0.8,0.2,0.8,0.2,0.6,0.4,,,0.455,,0.8,0.2,0.2,0.8,0.2,0.8,0.8,0.2,1,0
,,66c086c91cd54d5495701e9b,66fce21cf30a818a71481d4f,2024-10-01_23h05.44.786,mdp,2024.2.1,Win32,20.00080003,66fa4ebf79326e780c390304,,,,,,,,,,,,,,,,,,,,,734.296,734.296,734.298,735.245,1,1,right,0.372,,735.246,735.827,0,0,left,735.83,736.54,0,0,left,1,736.541,736.541,736.542,738.032,0,11,11,11,1,0.4,0.6,0.6,0.4,,,,,,,,,,,,,,,0.002,,0.2,0.8,0.8,0.2,0.8,0.2,0.6,0.4,,,0.116,,0.8,0.2,0.2,0.8,0.2,0.8,0.8,0.2,1,0
,,66c086c91cd54d5495701e9b,66fce21cf30a818a71481d4f,2024-10-01_23h05.44.786,mdp,2024.2.1,Win32,20.00080003,66fa4ebf79326e780c390304,,,,,,,,,,,,,,,,,,,,,738.033,738.033,738.035,739.2,1,0,right,0.589,,739.202,739.774,1,1,right,739.776,740.44,1,0,right,1,740.44,740.441,740.443,741.953,0,12,12,12,1,0.4,0.6,0.6,0.4,,,,,,,,,,,,,,,0.001,,0.2,0.8,0.8,0.2,0.8,0.2,0.6,0.4,,,0.06,,0.8,0.2,0.2,0.8,0.2,0.8,0.8,0.2,1,0
,,66c086c91cd54d5495701e9b,66fce21cf30a818a71481d4f,2024-10-01_23h05.44.786,mdp,2024.2.1,Win32,20.00080003,66fa4ebf79326e780c390304,,,,,,,,,,,,,,,,,,,,,741.954,741.954,741.956,742.666,0,1,left,0.114,,742.667,743.523,0,1,left,743.524,744.086,0,1,left,0,744.086,744.086,744.087,745.585,0,13,13,13,1,0.4,0.6,0.6,0.4,,,,,,,,,,,,,,,0.283,,0.2,0.8,0.8,0.2,0.8,0.2,0.6,0.4,,,0.002,,0.8,0.2,0.2,0.8,0.2,0.8,0.8,0.2,1,0
,,66c086c91cd54d5495701e9b,66fce21cf30a818a71481d4f,2024-10-01_23h05.44.786,mdp,2024.2.1,Win32,20.00080003,66fa4ebf79326e780c390304,,,,,,,,,,,,,,,,,,,,,745.586,745.586,745.588,746.281,0,1,left,0.127,,746.282,747.656,1,1,right,747.658,748.674,1,1,right,0,748.675,748.675,748.676,750.167,0,14,14,14,1,0.4,0.6,0.6,0.4,,,,,,,,,,,,,,,0.8,,0.2,0.8,0.8,0.2,0.8,0.2,0.6,0.4,,,0.456,,0.8,0.2,0.2,0.8,0.2,0.8,0.8,0.2,1,0
,,66c086c91cd54d5495701e9b,66fce21cf30a818a71481d4f,2024-10-01_23h05.44.786,mdp,2024.2.1,Win32,20.00080003,66fa4ebf79326e780c390304,,,,,,,,,,,,,,,,,,,,,750.168,750.168,750.17,750.761,1,1,right,0.002,,750.763,751.778,0,0,left,751.779,752.444,0,0,left,1,752.444,752.444,752.446,753.936,0,15,15,15,1,0.4,0.6,0.6,0.4,,,,,,,,,,,,,,,0.454,,0.2,0.8,0.8,0.2,0.6,0.4,0.4,0.6,,,0.058,,0.8,0.2,0.2,0.8,0.2,0.8,0.8,0.2,1,0
,,66c086c91cd54d5495701e9b,66fce21cf30a818a71481d4f,2024-10-01_23h05.44.786,mdp,2024.2.1,Win32,20.00080003,66fa4ebf79326e780c390304,,,,,,,,,,,,,,,,,,,,,753.937,753.937,753.94,754.566,0,1,left,0.06,,754.568,755.625,1,0,right,755.627,756.188,1,1,right,0,756.188,756.188,756.19,757.677,0,16,16,16,1,0.4,0.6,0.6,0.4,,,,,,,,,,,,,,,0.503,,0.2,0.8,0.8,0.2,0.6,0.4,0.4,0.6,,,0.004,,0.8,0.2,0.2,0.8,0.2,0.8,0.8,0.2,1,0
,,66c086c91cd54d5495701e9b,66fce21cf30a818a71481d4f,2024-10-01_23h05.44.786,mdp,2024.2.1,Win32,20.00080003,66fa4ebf79326e780c390304,,,,,,,,,,,,,,,,,,,,,757.678,757.678,757.68,758.311,0,1,left,0.071,,758.313,758.997,0,0,left,758.998,760.01,1,1,right,0,760.01,760.01,760.011,761.488,0,17,17,17,1,0.4,0.6,0.6,0.4,,,,,,,,,,,,,,,0.113,,0.2,0.8,0.8,0.2,0.6,0.4,0.4,0.6,,,0.451,,0.8,0.2,0.2,0.8,0.2,0.8,0.8,0.2,1,0
,,66c086c91cd54d5495701e9b,66fce21cf30a818a71481d4f,2024-10-01_23h05.44.786,mdp,2024.2.1,Win32,20.00080003,66fa4ebf79326e780c390304,,,,,,,,,,,,,,,,,,,,,761.489,761.489,761.491,762.056,0,1,left,0.001,,762.058,762.981,1,1,right,762.983,764.659,1,0,right,1,764.659,764.659,764.661,766.162,0,18,18,18,1,0.4,0.6,0.6,0.4,,,,,,,,,,,,,,,0.34,,0.2,0.8,0.8,0.2,0.6,0.4,0.4,0.6,,,1.071,,0.8,0.2,0.2,0.8,0.2,0.8,0.8,0.2,1,0
,,66c086c91cd54d5495701e9b,66fce21cf30a818a71481d4f,2024-10-01_23h05.44.786,mdp,2024.2.1,Win32,20.00080003,66fa4ebf79326e780c390304,,,,,,,,,,,,,,,,,,,,,766.163,766.163,766.165,766.907,1,1,right,0.172,,766.91,768.148,1,0,right,768.149,768.874,1,1,right,0,768.875,768.875,768.877,770.337,0,19,19,19,1,0.4,0.6,0.6,0.4,,,,,,,,,,,,,,,0.669,,0.2,0.8,0.8,0.2,0.6,0.4,0.4,0.6,,,0.113,,0.8,0.2,0.2,0.8,0.2,0.8,0.8,0.2,1,0
,,66c086c91cd54d5495701e9b,66fce21cf30a818a71481d4f,2024-10-01_23h05.44.786,mdp,2024.2.1,Win32,20.00080003,66fa4ebf79326e780c390304,,,,,,,,,,,,,,,,,,,,,770.338,770.338,770.34,771.021,0,0,left,0.114,,771.022,772.145,0,0,left,772.147,772.743,0,0,left,1,772.744,772.744,772.746,774.217,0,20,20,20,1,0.4,0.6,0.6,0.4,,,,,,,,,,,,,,,0.515,,0.8,0.2,0.2,0.8,0.6,0.4,0.4,0.6,,,0.001,,0.8,0.2,0.2,0.8,0.2,0.8,0.8,0.2,1,0
,,66c086c91cd54d5495701e9b,66fce21cf30a818a71481d4f,2024-10-01_23h05.44.786,mdp,2024.2.1,Win32,20.00080003,66fa4ebf79326e780c390304,,,,,,,,,,,,,,,,,,,,,774.218,774.218,774.22,775.128,1,1,right,0.339,,775.129,775.966,1,1,right,775.968,777.363,1,1,right,0,777.363,777.363,777.365,778.854,0,21,21,21,1,0.4,0.6,0.6,0.4,,,,,,,,,,,,,,,0.226,,0.8,0.2,0.2,0.8,0.6,0.4,0.4,0.6,,,0.793,,0.8,0.2,0.2,0.8,0.2,0.8,0.8,0.2,1,0
,,66c086c91cd54d5495701e9b,66fce21cf30a818a71481d4f,2024-10-01_23h05.44.786,mdp,2024.2.1,Win32,20.00080003,66fa4ebf79326e780c390304,,,,,,,,,,,,,,,,,,,,,778.855,778.855,778.857,779.481,0,1,left,0.059,,779.484,780.075,0,0,left,780.076,780.761,0,0,left,1,780.761,780.761,780.762,782.243,0,22,22,22,1,0.4,0.6,0.6,0.4,,,,,,,,,,,,,,,0.002,,0.8,0.2,0.2,0.8,0.6,0.4,0.4,0.6,,,0.113,,0.8,0.2,0.2,0.8,0.2,0.8,0.8,0.2,1,0
,,66c086c91cd54d5495701e9b,66fce21cf30a818a71481d4f,2024-10-01_23h05.44.786,mdp,2024.2.1,Win32,20.00080003,66fa4ebf79326e780c390304,,,,,,,,,,,,,,,,,,,,,782.244,782.244,782.245,784.276,1,0,right,1.433,,784.279,785.116,0,0,left,785.118,785.849,1,1,right,0,785.849,785.849,785.851,787.344,0,23,23,23,1,0.4,0.6,0.6,0.4,,,,,,,,,,,,,,,0.229,,0.8,0.2,0.2,0.8,0.6,0.4,0.4,0.6,,,0.17,,0.8,0.2,0.2,0.8,0.2,0.8,0.8,0.2,1,0
,,66c086c91cd54d5495701e9b,66fce21cf30a818a71481d4f,2024-10-01_23h05.44.786,mdp,2024.2.1,Win32,20.00080003,66fa4ebf79326e780c390304,,,,,,,,,,,,,,,,,,,,,787.345,787.345,787.346,788.409,0,1,left,0.452,,788.411,789.133,0,1,left,789.135,795.248,1,1,right,0,795.248,795.248,795.27,796.741,0,24,24,24,1,0.4,0.6,0.6,0.4,,,,,,,,,,,,,,,0.116,,0.8,0.2,0.2,0.8,0.6,0.4,0.4,0.6,,,5.544,,0.8,0.2,0.2,0.8,0.2,0.8,0.8,0.2,1,0
,,66c086c91cd54d5495701e9b,66fce21cf30a818a71481d4f,2024-10-01_23h05.44.786,mdp,2024.2.1,Win32,20.00080003,66fa4ebf79326e780c390304,,,,,,,,,,,,,,,,,,,,,796.743,796.743,796.745,798.609,1,1,right,1.291,,798.611,800.991,1,1,right,800.993,803.304,0,1,left,0,803.304,803.305,803.307,804.809,0,25,25,25,1,0.4,0.6,0.6,0.4,,,,,,,,,,,,,,,1.819,,0.8,0.2,0.2,0.8,0.6,0.4,0.4,0.6,,,1.748,,0.4,0.6,0.8,0.2,0.2,0.8,0.8,0.2,1,0
,,66c086c91cd54d5495701e9b,66fce21cf30a818a71481d4f,2024-10-01_23h05.44.786,mdp,2024.2.1,Win32,20.00080003,66fa4ebf79326e780c390304,,,,,,,,,,,,,,,,,,,,,804.81,804.81,804.812,806.183,1,1,right,0.795,,806.185,807.421,0,0,left,807.423,808.376,1,0,right,1,808.376,808.376,808.378,809.875,0,26,26,26,1,0.4,0.6,0.6,0.4,,,,,,,,,,,,,,,0.679,,0.8,0.2,0.2,0.8,0.6,0.4,0.4,0.6,,,0.341,,0.4,0.6,0.8,0.2,0.2,0.8,0.8,0.2,1,0
,,66c086c91cd54d5495701e9b,66fce21cf30a818a71481d4f,2024-10-01_23h05.44.786,mdp,2024.2.1,Win32,20.00080003,66fa4ebf79326e780c390304,,,,,,,,,,,,,,,,,,,,,809.876,809.876,809.878,811.576,1,1,right,1.138,,811.578,812.563,1,0,right,812.565,813.327,0,1,left,0,813.327,813.327,813.329,814.783,0,27,27,27,1,0.4,0.6,0.6,0.4,,,,,,,,,,,,,,,0.396,,0.8,0.2,0.2,0.8,0.6,0.4,0.4,0.6,,,0.17,,0.4,0.6,0.8,0.2,0.2,0.8,0.8,0.2,1,0
,,66c086c91cd54d5495701e9b,66fce21cf30a818a71481d4f,2024-10-01_23h05.44.786,mdp,2024.2.1,Win32,20.00080003,66fa4ebf79326e780c390304,,,,,,,,,,,,,,,,,,,,,814.784,814.784,814.786,815.759,0,1,left,0.4,,815.76,816.467,1,0,right,816.468,817.119,0,1,left,0,817.119,817.119,817.121,818.607,0,28,28,28,1,0.4,0.6,0.6,0.4,,,,,,,,,,,,,,,0.114,,0.8,0.2,0.2,0.8,0.6,0.4,0.4,0.6,,,0.063,,0.4,0.6,0.8,0.2,0.2,0.8,0.8,0.2,1,0
,,66c086c91cd54d5495701e9b,66fce21cf30a818a71481d4f,2024-10-01_23h05.44.786,mdp,2024.2.1,Win32,20.00080003,66fa4ebf79326e780c390304,,,,,,,,,,,,,,,,,,,,,818.609,818.609,818.61,820.506,1,0,right,1.293,,820.507,821.095,0,0,left,821.099,822.474,0,1,left,0,822.474,822.474,822.476,823.937,0,29,29,29,1,0.4,0.6,0.6,0.4,,,,,,,,,,,,,,,0.002,,0.8,0.2,0.2,0.8,0.6,0.4,0.4,0.6,,,0.798,,0.4,0.6,0.8,0.2,0.2,0.8,0.8,0.2,1,0
,,66c086c91cd54d5495701e9b,66fce21cf30a818a71481d4f,2024-10-01_23h05.44.786,mdp,2024.2.1,Win32,20.00080003,66fa4ebf79326e780c390304,,,,,,,,,,,,,,,,,,,,,823.938,823.938,823.94,824.878,0,1,left,0.342,,824.88,826.041,0,0,left,826.043,826.9,1,0,right,1,826.9,826.9,826.901,828.38,0,30,30,30,1,0.4,0.6,0.6,0.4,,,,,,,,,,,,,,,0.567,,0.8,0.2,0.2,0.8,0.6,0.4,0.4,0.6,,,0.285,,0.4,0.6,0.8,0.2,0.2,0.8,0.8,0.2,1,0
,,66c086c91cd54d5495701e9b,66fce21cf30a818a71481d4f,2024-10-01_23h05.44.786,mdp,2024.2.1,Win32,20.00080003,66fa4ebf79326e780c390304,,,,,,,,,,,,,,,,,,,,,828.381,828.381,828.383,828.966,0,1,left,0.003,,828.968,830.027,0,1,left,830.029,832.372,0,0,left,1,832.372,832.372,832.374,833.859,0,31,31,31,1,0.4,0.6,0.6,0.4,,,,,,,,,,,,,,,0.459,,0.8,0.2,0.2,0.8,0.2,0.8,0.8,0.2,,,1.75,,0.4,0.6,0.8,0.2,0.2,0.8,0.8,0.2,1,0
,,66c086c91cd54d5495701e9b,66fce21cf30a818a71481d4f,2024-10-01_23h05.44.786,mdp,2024.2.1,Win32,20.00080003,66fa4ebf79326e780c390304,,,,,,,,,,,,,,,,,,,,,833.861,833.861,833.863,834.676,0,0,left,0.229,,834.678,836.517,0,0,left,836.518,837.203,1,0,right,1,837.204,837.204,837.206,838.696,0,32,32,32,1,0.4,0.6,0.6,0.4,,,,,,,,,,,,,,,1.259,,0.8,0.2,0.2,0.8,0.2,0.8,0.8,0.2,,,0.115,,0.4,0.6,0.8,0.2,0.2,0.8,0.8,0.2,1,0
,,66c086c91cd54d5495701e9b,66fce21cf30a818a71481d4f,2024-10-01_23h05.44.786,mdp,2024.2.1,Win32,20.00080003,66fa4ebf79326e780c390304,,,,,,,,,,,,,,,,,,,,,838.698,838.698,838.7,839.722,0,0,left,0.455,,839.724,840.506,1,1,right,840.508,841.194,1,0,right,1,841.194,841.194,841.196,842.65,0,33,33,33,1,0.4,0.6,0.6,0.4,,,,,,,,,,,,,,,0.18,,0.8,0.2,0.2,0.8,0.2,0.8,0.8,0.2,,,0.116,,0.4,0.6,0.8,0.2,0.2,0.8,0.8,0.2,1,0
,,66c086c91cd54d5495701e9b,66fce21cf30a818a71481d4f,2024-10-01_23h05.44.786,mdp,2024.2.1,Win32,20.00080003,66fa4ebf79326e780c390304,,,,,,,,,,,,,,,,,,,,,842.651,842.651,842.653,843.634,0,0,left,0.418,,843.636,844.201,1,1,right,844.204,844.904,1,1,right,0,844.904,844.904,844.906,846.386,0,34,34,34,1,0.4,0.6,0.6,0.4,,,,,,,,,,,,,,,0.003,,0.8,0.2,0.2,0.8,0.2,0.8,0.8,0.2,,,0.114,,0.4,0.6,0.8,0.2,0.2,0.8,0.8,0.2,1,0
,,66c086c91cd54d5495701e9b,66fce21cf30a818a71481d4f,2024-10-01_23h05.44.786,mdp,2024.2.1,Win32,20.00080003,66fa4ebf79326e780c390304,,,,,,,,,,,,,,,,,,,,,846.388,846.388,846.389,847.13,0,0,left,0.17,,847.132,847.702,0,0,left,847.706,848.566,1,0,right,1,848.566,848.566,848.568,850.021,0,35,35,35,1,0.4,0.6,0.6,0.4,,,,,,,,,,,,,,,0.002,,0.8,0.2,0.2,0.8,0.2,0.8,0.8,0.2,,,0.282,,0.4,0.6,0.8,0.2,0.2,0.8,0.8,0.2,1,0
,,66c086c91cd54d5495701e9b,66fce21cf30a818a71481d4f,2024-10-01_23h05.44.786,mdp,2024.2.1,Win32,20.00080003,66fa4ebf79326e780c390304,,,,,,,,,,,,,,,,,,,,,850.022,850.022,850.024,850.617,0,0,left,0.002,,850.619,851.391,0,1,left,851.393,852.197,0,1,left,0,852.197,852.197,852.2,853.71,0,36,36,36,1,0.4,0.6,0.6,0.4,,,,,,,,,,,,,,,0.207,,0.8,0.2,0.2,0.8,0.2,0.8,0.8,0.2,,,0.227,,0.4,0.6,0.8,0.2,0.2,0.8,0.8,0.2,1,0
,,66c086c91cd54d5495701e9b,66fce21cf30a818a71481d4f,2024-10-01_23h05.44.786,mdp,2024.2.1,Win32,20.00080003,66fa4ebf79326e780c390304,,,,,,,,,,,,,,,,,,,,,853.711,853.711,853.713,854.708,1,1,right,0.426,,854.71,855.544,0,1,left,855.546,856.229,0,1,left,0,856.229,856.229,856.231,857.747,0,37,37,37,1,0.4,0.6,0.6,0.4,,,,,,,,,,,,,,,0.254,,0.8,0.2,0.2,0.8,0.2,0.8,0.8,0.2,,,0.112,,0.4,0.6,0.8,0.2,0.2,0.8,0.8,0.2,1,0
,,66c086c91cd54d5495701e9b,66fce21cf30a818a71481d4f,2024-10-01_23h05.44.786,mdp,2024.2.1,Win32,20.00080003,66fa4ebf79326e780c390304,,,,,,,,,,,,,,,,,,,,,857.748,857.748,857.75,858.448,1,1,right,0.13,,858.451,859.245,0,1,left,859.247,860.113,0,1,left,0,860.113,860.113,860.114,861.618,0,38,38,38,1,0.4,0.6,0.6,0.4,,,,,,,,,,,,,,,0.226,,0.8,0.2,0.2,0.8,0.2,0.8,0.8,0.2,,,0.283,,0.4,0.6,0.8,0.2,0.2,0.8,0.8,0.2,1,0
,,66c086c91cd54d5495701e9b,66fce21cf30a818a71481d4f,2024-10-01_23h05.44.786,mdp,2024.2.1,Win32,20.00080003,66fa4ebf79326e780c390304,,,,,,,,,,,,,,,,,,,,,861.619,861.619,861.621,862.945,0,0,left,0.763,,862.946,863.545,0,1,left,863.546,864.407,0,1,left,0,864.407,864.407,864.409,865.874,0,39,39,39,1,0.4,0.6,0.6,0.4,,,,,,,,,,,,,,,0.003,,0.8,0.2,0.2,0.8,0.2,0.8,0.8,0.2,,,0.287,,0.4,0.6,0.8,0.2,0.2,0.8,0.8,0.2,1,0
,,66c086c91cd54d5495701e9b,66fce21cf30a818a71481d4f,2024-10-01_23h05.44.786,mdp,2024.2.1,Win32,20.00080003,66fa4ebf79326e780c390304,,,,,,,,,,,,,,,,,,,,,865.875,865.875,865.877,866.585,0,1,left,0.144,,866.587,867.329,0,1,left,867.331,867.926,0,1,left,0,867.926,867.926,867.928,869.426,0,40,40,40,1,0.4,0.6,0.6,0.4,,,,,,,,,,,,,,,0.174,,0.8,0.2,0.2,0.8,0.2,0.8,0.8,0.2,,,0.002,,0.4,0.6,0.8,0.2,0.2,0.8,0.8,0.2,1,0
,,66c086c91cd54d5495701e9b,66fce21cf30a818a71481d4f,2024-10-01_23h05.44.786,mdp,2024.2.1,Win32,20.00080003,66fa4ebf79326e780c390304,,,,,,,,,,,,,,,,,,,,,869.427,869.427,869.429,870.593,0,1,left,0.599,,870.595,871.385,0,1,left,871.387,872.669,0,1,left,0,872.669,872.669,872.67,874.143,0,41,41,41,1,0.4,0.6,0.6,0.4,,,,,,,,,,,,,,,0.226,,0.8,0.2,0.2,0.8,0.2,0.8,0.8,0.2,,,0.695,,0.4,0.6,0.8,0.2,0.2,0.8,0.8,0.2,1,0
,,66c086c91cd54d5495701e9b,66fce21cf30a818a71481d4f,2024-10-01_23h05.44.786,mdp,2024.2.1,Win32,20.00080003,66fa4ebf79326e780c390304,,,,,,,,,,,,,,,,,,,,,874.143,874.143,874.145,875.492,1,0,right,0.789,,875.495,876.269,0,0,left,876.272,876.872,1,0,right,1,876.872,876.872,876.874,878.352,0,42,42,42,1,0.4,0.6,0.6,0.4,,,,,,,,,,,,,,,0.174,,0.8,0.2,0.2,0.8,0.2,0.8,0.8,0.2,,,0.004,,0.4,0.6,0.8,0.2,0.4,0.6,0.2,0.8,1,0
,,66c086c91cd54d5495701e9b,66fce21cf30a818a71481d4f,2024-10-01_23h05.44.786,mdp,2024.2.1,Win32,20.00080003,66fa4ebf79326e780c390304,,,,,,,,,,,,,,,,,,,,,878.353,878.353,878.355,878.975,0,1,left,0.058,,878.977,879.806,1,0,right,879.808,880.665,0,1,left,0,880.665,880.665,880.667,882.158,0,43,43,43,1,0.4,0.6,0.6,0.4,,,,,,,,,,,,,,,0.242,,0.8,0.2,0.2,0.8,0.2,0.8,0.8,0.2,,,0.294,,0.4,0.6,0.8,0.2,0.4,0.6,0.2,0.8,1,0
,,66c086c91cd54d5495701e9b,66fce21cf30a818a71481d4f,2024-10-01_23h05.44.786,mdp,2024.2.1,Win32,20.00080003,66fa4ebf79326e780c390304,,,,,,,,,,,,,,,,,,,,,882.159,882.159,882.161,883.03,0,0,left,0.296,,883.032,883.621,1,0,right,883.622,884.313,1,0,right,1,884.313,884.313,884.314,885.806,0,44,44,44,1,0.4,0.6,0.6,0.4,,,,,,,,,,,,,,,0.002,,0.8,0.2,0.2,0.8,0.2,0.8,0.8,0.2,,,0.115,,0.4,0.6,0.8,0.2,0.4,0.6,0.2,0.8,1,0
,,66c086c91cd54d5495701e9b,66fce21cf30a818a71481d4f,2024-10-01_23h05.44.786,mdp,2024.2.1,Win32,20.00080003,66fa4ebf79326e780c390304,,,,,,,,,,,,,,,,,,,,,885.807,885.807,885.809,886.54,0,0,left,0.169,,886.542,887.163,1,1,right,887.165,887.799,0,1,left,0,887.799,887.799,887.8,889.297,0,45,45,45,1,0.4,0.6,0.6,0.4,,,,,,,,,,,,,,,0.057,,0.8,0.2,0.2,0.8,0.2,0.8,0.8,0.2,,,0.061,,0.4,0.6,0.8,0.2,0.4,0.6,0.2,0.8,1,0
,,66c086c91cd54d5495701e9b,66fce21cf30a818a71481d4f,2024-10-01_23h05.44.786,mdp,2024.2.1,Win32,20.00080003,66fa4ebf79326e780c390304,,,,,,,,,,,,,,,,,,,,,889.298,889.298,889.3,890.225,0,1,left,0.339,,890.227,891.065,0,1,left,891.067,891.86,0,0,left,1,891.86,891.86,891.862,893.35,0,46,46,46,1,0.4,0.6,0.6,0.4,,,,,,,,,,,,,,,0.227,,0.8,0.2,0.2,0.8,0.2,0.8,0.8,0.2,,,0.23,,0.4,0.6,0.8,0.2,0.4,0.6,0.2,0.8,1,0
,,66c086c91cd54d5495701e9b,66fce21cf30a818a71481d4f,2024-10-01_23h05.44.786,mdp,2024.2.1,Win32,20.00080003,66fa4ebf79326e780c390304,,,,,,,,,,,,,,,,,,,,,893.352,893.352,893.354,893.998,0,0,left,0.058,,894.002,894.692,0,0,left,894.694,895.32,1,0,right,1,895.321,895.321,895.323,896.767,0,47,47,47,1,0.4,0.6,0.6,0.4,,,,,,,,,,,,,,,0.115,,0.8,0.2,0.2,0.8,0.2,0.8,0.8,0.2,,,0.058,,0.4,0.6,0.8,0.2,0.4,0.6,0.2,0.8,1,0
,,66c086c91cd54d5495701e9b,66fce21cf30a818a71481d4f,2024-10-01_23h05.44.786,mdp,2024.2.1,Win32,20.00080003,66fa4ebf79326e780c390304,,,,,,,,,,,,,,,,,,,,,896.768,896.768,896.77,897.345,0,1,left,0.002,,897.347,898.129,0,1,left,898.131,898.964,0,0,left,1,898.964,898.964,898.966,900.433,0,48,48,48,1,0.4,0.6,0.6,0.4,,,,,,,,,,,,,,,0.184,,0.8,0.2,0.2,0.8,0.2,0.8,0.8,0.2,,,0.24,,0.4,0.6,0.8,0.2,0.8,0.2,0.6,0.4,1,0
,,66c086c91cd54d5495701e9b,66fce21cf30a818a71481d4f,2024-10-01_23h05.44.786,mdp,2024.2.1,Win32,20.00080003,66fa4ebf79326e780c390304,,,,,,,,,,,,,,,,,,,,,900.434,900.434,900.436,901.002,1,0,right,0.002,,901.004,901.831,1,1,right,901.832,902.688,0,0,left,1,902.688,902.688,902.691,904.196,0,49,49,49,1,0.4,0.6,0.6,0.4,,,,,,,,,,,,,,,0.248,,0.8,0.2,0.2,0.8,0.2,0.8,0.8,0.2,,,0.281,,0.4,0.6,0.8,0.2,0.8,0.2,0.6,0.4,1,0
,,66c086c91cd54d5495701e9b,66fce21cf30a818a71481d4f,2024-10-01_23h05.44.786,mdp,2024.2.1,Win32,20.00080003,66fa4ebf79326e780c390304,,,,,,,,,,,,,,,,,,,,,,,,,,,,,,,,,,,,,,,,,,,,,,,,,,,,,,,,904.196,962.73,0,2,2,5,1,imgs/bear.png,imgs/pig.png,imgs/cat.png,imgs/elephant.png,imgs/goat.png,,,,,,,,,,,,,,,,,,,,,,,,
,,66c086c91cd54d5495701e9b,66fce21cf30a818a71481d4f,2024-10-01_23h05.44.786,mdp,2024.2.1,Win32,20.00080003,66fa4ebf79326e780c390304,,,,,,,,,,,,,,3,seqs/st3seq30.csv,962.752,968.523,space,5.15,,968.558,968.558,968.57,991.965,0,0,left,22.825,,991.987,993.489,0,0,left,993.49,995.992,0,1,left,0,995.992,995.992,995.994,997.496,0,0,0,0,1,0.8,0.2,0.2,0.8,,,,,,,,,,,,,,,0.937,,0.6,0.4,0.8,0.2,0.8,0.2,0.4,0.6,,,1.909,,0.2,0.8,0.8,0.2,0.4,0.6,0.8,0.2,1,0
,,66c086c91cd54d5495701e9b,66fce21cf30a818a71481d4f,2024-10-01_23h05.44.786,mdp,2024.2.1,Win32,20.00080003,66fa4ebf79326e780c390304,,,,,,,,,,,,,,,,,,,,,997.497,997.497,997.5,998.268,1,1,right,0.175,,998.27,999.078,0,0,left,999.08,1003.957,1,0,right,1,1003.957,1003.957,1003.978,1005.451,0,1,1,1,1,0.8,0.2,0.2,0.8,,,,,,,,,,,,,,,0.229,,0.6,0.4,0.8,0.2,0.8,0.2,0.4,0.6,,,4.322,,0.2,0.8,0.8,0.2,0.4,0.6,0.8,0.2,1,0
,,66c086c91cd54d5495701e9b,66fce21cf30a818a71481d4f,2024-10-01_23h05.44.786,mdp,2024.2.1,Win32,20.00080003,66fa4ebf79326e780c390304,,,,,,,,,,,,,,,,,,,,,1005.452,1005.452,1005.453,1006.284,1,1,right,0.237,,1006.286,1007.385,1,0,right,1007.386,1008.008,0,1,left,0,1008.009,1008.009,1008.01,1009.52,0,2,2,2,1,0.8,0.2,0.2,0.8,,,,,,,,,,,,,,,0.539,,0.6,0.4,0.8,0.2,0.8,0.2,0.4,0.6,,,0.06,,0.2,0.8,0.8,0.2,0.4,0.6,0.8,0.2,1,0
,,66c086c91cd54d5495701e9b,66fce21cf30a818a71481d4f,2024-10-01_23h05.44.786,mdp,2024.2.1,Win32,20.00080003,66fa4ebf79326e780c390304,,,,,,,,,,,,,,,,,,,,,1009.521,1009.521,1009.523,1012.503,0,0,left,2.401,,1012.505,1015.109,1,0,right,1015.13,1016.059,0,1,left,0,1016.059,1016.059,1016.061,1017.571,0,3,3,3,1,0.8,0.2,0.2,0.8,,,,,,,,,,,,,,,2.006,,0.6,0.4,0.8,0.2,0.8,0.2,0.4,0.6,,,0.353,,0.2,0.8,0.8,0.2,0.4,0.6,0.8,0.2,1,0
,,66c086c91cd54d5495701e9b,66fce21cf30a818a71481d4f,2024-10-01_23h05.44.786,mdp,2024.2.1,Win32,20.00080003,66fa4ebf79326e780c390304,,,,,,,,,,,,,,,,,,,,,1017.572,1017.572,1017.574,1018.385,1,1,right,0.229,,1018.386,1019.488,0,0,left,1019.49,1020.216,0,1,left,0,1020.216,1020.216,1020.218,1021.693,0,4,4,4,1,0.8,0.2,0.2,0.8,,,,,,,,,,,,,,,0.531,,0.6,0.4,0.8,0.2,0.8,0.2,0.4,0.6,,,0.171,,0.2,0.8,0.8,0.2,0.4,0.6,0.8,0.2,1,0
,,66c086c91cd54d5495701e9b,66fce21cf30a818a71481d4f,2024-10-01_23h05.44.786,mdp,2024.2.1,Win32,20.00080003,66fa4ebf79326e780c390304,,,,,,,,,,,,,,,,,,,,,1021.695,1021.695,1021.697,1022.389,0,1,left,0.114,,1022.391,1023.009,0,1,left,1023.011,1024.843,0,0,left,1,1024.843,1024.843,1024.845,1026.325,0,5,5,5,1,0.8,0.2,0.2,0.8,,,,,,,,,,,,,,,0.058,,0.6,0.4,0.8,0.2,0.8,0.2,0.4,0.6,,,1.262,,0.2,0.8,0.8,0.2,0.6,0.4,0.4,0.6,1,0
,,66c086c91cd54d5495701e9b,66fce21cf30a818a71481d4f,2024-10-01_23h05.44.786,mdp,2024.2.1,Win32,20.00080003,66fa4ebf79326e780c390304,,,,,,,,,,,,,,,,,,,,,1026.326,1026.326,1026.327,1029.257,1,1,right,2.369,,1029.26,1030.403,0,0,left,1030.405,1031.237,0,1,left,0,1031.237,1031.237,1031.239,1032.722,0,6,6,6,1,0.8,0.2,0.2,0.8,,,,,,,,,,,,,,,0.581,,0.6,0.4,0.8,0.2,0.8,0.2,0.4,0.6,,,0.256,,0.2,0.8,0.8,0.2,0.6,0.4,0.4,0.6,1,0
,,66c086c91cd54d5495701e9b,66fce21cf30a818a71481d4f,2024-10-01_23h05.44.786,mdp,2024.2.1,Win32,20.00080003,66fa4ebf79326e780c390304,,,,,,,,,,,,,,,,,,,,,1032.723,1032.723,1032.724,1034.24,0,0,left,0.925,,1034.244,1034.995,0,0,left,1034.997,1035.834,1,0,right,1,1035.835,1035.835,1035.836,1037.291,0,7,7,7,1,0.8,0.2,0.2,0.8,,,,,,,,,,,,,,,0.17,,0.6,0.4,0.8,0.2,0.8,0.2,0.4,0.6,,,0.279,,0.2,0.8,0.8,0.2,0.6,0.4,0.4,0.6,1,0
,,66c086c91cd54d5495701e9b,66fce21cf30a818a71481d4f,2024-10-01_23h05.44.786,mdp,2024.2.1,Win32,20.00080003,66fa4ebf79326e780c390304,,,,,,,,,,,,,,,,,,,,,1037.292,1037.292,1037.294,1038.103,1,1,right,0.229,,1038.105,1039.212,1,0,right,1039.214,1040.302,1,0,right,1,1040.302,1040.302,1040.304,1041.776,0,8,8,8,1,0.8,0.2,0.2,0.8,,,,,,,,,,,,,,,0.504,,0.6,0.4,0.8,0.2,0.8,0.2,0.4,0.6,,,0.506,,0.2,0.8,0.8,0.2,0.6,0.4,0.4,0.6,1,0
,,66c086c91cd54d5495701e9b,66fce21cf30a818a71481d4f,2024-10-01_23h05.44.786,mdp,2024.2.1,Win32,20.00080003,66fa4ebf79326e780c390304,,,,,,,,,,,,,,,,,,,,,1041.777,1041.777,1041.779,1043.491,0,0,left,1.116,,1043.493,1044.075,1,0,right,1044.077,1044.755,1,0,right,1,1044.756,1044.756,1044.757,1046.271,0,9,9,9,1,0.8,0.2,0.2,0.8,,,,,,,,,,,,,,,0.003,,0.6,0.4,0.8,0.2,0.8,0.2,0.4,0.6,,,0.114,,0.2,0.8,0.8,0.2,0.6,0.4,0.4,0.6,1,0
,,66c086c91cd54d5495701e9b,66fce21cf30a818a71481d4f,2024-10-01_23h05.44.786,mdp,2024.2.1,Win32,20.00080003,66fa4ebf79326e780c390304,,,,,,,,,,,,,,,,,,,,,1046.273,1046.273,1046.275,1047.462,1,1,right,0.611,,1047.464,1048.66,1,0,right,1048.661,1050.635,0,0,left,1,1050.636,1050.636,1050.637,1052.091,0,10,10,10,1,0.8,0.2,0.2,0.8,,,,,,,,,,,,,,,0.62,,0.6,0.4,0.8,0.2,0.8,0.2,0.4,0.6,,,1.419,,0.2,0.8,0.8,0.2,0.6,0.4,0.4,0.6,1,0
,,66c086c91cd54d5495701e9b,66fce21cf30a818a71481d4f,2024-10-01_23h05.44.786,mdp,2024.2.1,Win32,20.00080003,66fa4ebf79326e780c390304,,,,,,,,,,,,,,,,,,,,,1052.093,1052.093,1052.095,1054.282,1,1,right,1.596,,1054.284,1055.664,1,1,right,1055.666,1056.237,1,0,right,1,1056.237,1056.237,1056.239,1057.7,0,11,11,11,1,0.8,0.2,0.2,0.8,,,,,,,,,,,,,,,0.788,,0.8,0.2,0.2,0.8,0.8,0.2,0.4,0.6,,,0.002,,0.2,0.8,0.8,0.2,0.6,0.4,0.4,0.6,1,0
,,66c086c91cd54d5495701e9b,66fce21cf30a818a71481d4f,2024-10-01_23h05.44.786,mdp,2024.2.1,Win32,20.00080003,66fa4ebf79326e780c390304,,,,,,,,,,,,,,,,,,,,,1057.701,1057.701,1057.703,1059.168,1,1,right,0.902,,1059.17,1060.54,1,1,right,1060.543,1061.133,1,0,right,1,1061.133,1061.133,1061.134,1062.629,0,12,12,12,1,0.8,0.2,0.2,0.8,,,,,,,,,,,,,,,0.802,,0.8,0.2,0.2,0.8,0.8,0.2,0.4,0.6,,,0.002,,0.8,0.2,0.6,0.4,0.6,0.4,0.4,0.6,1,0
,,66c086c91cd54d5495701e9b,66fce21cf30a818a71481d4f,2024-10-01_23h05.44.786,mdp,2024.2.1,Win32,20.00080003,66fa4ebf79326e780c390304,,,,,,,,,,,,,,,,,,,,,1062.631,1062.631,1062.632,1067.535,0,0,left,4.338,,1067.556,1068.112,0,0,left,1068.114,1081.109,1,1,right,0,1081.109,1081.109,1081.131,1082.574,0,13,13,13,1,0.8,0.2,0.2,0.8,,,,,,,,,,,,,,,0.001,,0.8,0.2,0.2,0.8,0.8,0.2,0.4,0.6,,,12.405,,0.8,0.2,0.6,0.4,0.6,0.4,0.4,0.6,1,0
,,66c086c91cd54d5495701e9b,66fce21cf30a818a71481d4f,2024-10-01_23h05.44.786,mdp,2024.2.1,Win32,20.00080003,66fa4ebf79326e780c390304,,,,,,,,,,,,,,,,,,,,,1082.575,1082.575,1082.577,1083.207,1,1,right,0.001,,1083.209,1085.127,1,1,right,1085.128,1086.051,1,0,right,1,1086.051,1086.051,1086.052,1087.519,0,14,14,14,1,0.8,0.2,0.2,0.8,,,,,,,,,,,,,,,1.315,,0.8,0.2,0.2,0.8,0.8,0.2,0.4,0.6,,,0.344,,0.8,0.2,0.6,0.4,0.6,0.4,0.4,0.6,1,0
,,66c086c91cd54d5495701e9b,66fce21cf30a818a71481d4f,2024-10-01_23h05.44.786,mdp,2024.2.1,Win32,20.00080003,66fa4ebf79326e780c390304,,,,,,,,,,,,,,,,,,,,,1087.521,1087.521,1087.523,1088.883,1,1,right,0.753,,1088.885,1089.788,0,0,left,1089.791,1090.428,1,0,right,1,1090.428,1090.428,1090.43,1091.919,0,15,15,15,1,0.8,0.2,0.2,0.8,,,,,,,,,,,,,,,0.338,,0.8,0.2,0.2,0.8,0.8,0.2,0.4,0.6,,,0.06,,0.8,0.2,0.6,0.4,0.6,0.4,0.4,0.6,1,0
,,66c086c91cd54d5495701e9b,66fce21cf30a818a71481d4f,2024-10-01_23h05.44.786,mdp,2024.2.1,Win32,20.00080003,66fa4ebf79326e780c390304,,,,,,,,,,,,,,,,,,,,,1091.92,1091.92,1091.922,1093.06,1,0,right,0.567,,1093.061,1093.876,1,1,right,1093.878,1096.309,1,1,right,0,1096.309,1096.309,1096.311,1097.776,0,16,16,16,1,0.8,0.2,0.2,0.8,,,,,,,,,,,,,,,0.237,,0.8,0.2,0.2,0.8,0.8,0.2,0.4,0.6,,,1.858,,0.8,0.2,0.6,0.4,0.6,0.4,0.4,0.6,1,0
,,66c086c91cd54d5495701e9b,66fce21cf30a818a71481d4f,2024-10-01_23h05.44.786,mdp,2024.2.1,Win32,20.00080003,66fa4ebf79326e780c390304,,,,,,,,,,,,,,,,,,,,,1097.777,1097.777,1097.779,1099.965,1,1,right,1.619,,1099.966,1100.544,1,0,right,1100.546,1101.262,0,0,left,1,1101.262,1101.262,1101.265,1102.769,0,17,17,17,1,0.8,0.2,0.2,0.8,,,,,,,,,,,,,,,0.002,,0.8,0.2,0.2,0.8,0.8,0.2,0.4,0.6,,,0.116,,0.8,0.2,0.6,0.4,0.6,0.4,0.4,0.6,1,0
,,66c086c91cd54d5495701e9b,66fce21cf30a818a71481d4f,2024-10-01_23h05.44.786,mdp,2024.2.1,Win32,20.00080003,66fa4ebf79326e780c390304,,,,,,,,,,,,,,,,,,,,,1102.77,1102.771,1102.773,1105.208,1,1,right,1.863,,1105.21,1107.923,1,0,right,1107.925,1108.498,1,0,right,1,1108.498,1108.498,1108.5,1109.956,0,18,18,18,1,0.8,0.2,0.2,0.8,,,,,,,,,,,,,,,2.139,,0.8,0.2,0.2,0.8,0.8,0.2,0.4,0.6,,,0.001,,0.8,0.2,0.6,0.4,0.6,0.4,0.4,0.6,1,0
,,66c086c91cd54d5495701e9b,66fce21cf30a818a71481d4f,2024-10-01_23h05.44.786,mdp,2024.2.1,Win32,20.00080003,66fa4ebf79326e780c390304,,,,,,,,,,,,,,,,,,,,,1109.957,1109.957,1109.959,1110.722,0,1,left,0.186,,1110.724,1111.31,0,1,left,1111.312,1112.056,1,1,right,0,1112.056,1112.056,1112.058,1113.524,0,19,19,19,1,0.8,0.2,0.2,0.8,,,,,,,,,,,,,,,0.003,,0.8,0.2,0.2,0.8,0.8,0.2,0.4,0.6,,,0.169,,0.8,0.2,0.6,0.4,0.6,0.4,0.4,0.6,1,0
,,66c086c91cd54d5495701e9b,66fce21cf30a818a71481d4f,2024-10-01_23h05.44.786,mdp,2024.2.1,Win32,20.00080003,66fa4ebf79326e780c390304,,,,,,,,,,,,,,,,,,,,,1113.527,1113.527,1113.528,1114.368,1,1,right,0.233,,1114.37,1116.308,1,1,right,1116.31,1117.465,0,0,left,1,1117.465,1117.465,1117.467,1118.972,0,20,20,20,1,0.8,0.2,0.2,0.8,,,,,,,,,,,,,,,1.376,,0.8,0.2,0.2,0.8,0.8,0.2,0.4,0.6,,,0.603,,0.8,0.2,0.6,0.4,0.6,0.4,0.4,0.6,1,0
,,66c086c91cd54d5495701e9b,66fce21cf30a818a71481d4f,2024-10-01_23h05.44.786,mdp,2024.2.1,Win32,20.00080003,66fa4ebf79326e780c390304,,,,,,,,,,,,,,,,,,,,,1118.974,1118.974,1118.975,1120.649,1,1,right,1.08,,1120.651,1122.955,1,0,right,1122.957,1125.542,1,0,right,1,1125.542,1125.542,1125.544,1127.046,0,21,21,21,1,0.8,0.2,0.2,0.8,,,,,,,,,,,,,,,1.712,,0.8,0.2,0.2,0.8,0.8,0.2,0.4,0.6,,,1.984,,0.8,0.2,0.6,0.4,0.6,0.4,0.4,0.6,1,0
,,66c086c91cd54d5495701e9b,66fce21cf30a818a71481d4f,2024-10-01_23h05.44.786,mdp,2024.2.1,Win32,20.00080003,66fa4ebf79326e780c390304,,,,,,,,,,,,,,,,,,,,,1127.046,1127.046,1127.049,1134.727,1,1,right,7.094,,1134.749,1135.513,0,0,left,1135.515,1136.326,1,1,right,0,1136.326,1136.326,1136.329,1137.806,0,22,22,22,1,0.8,0.2,0.2,0.8,,,,,,,,,,,,,,,0.177,,0.8,0.2,0.2,0.8,0.8,0.2,0.4,0.6,,,0.245,,0.8,0.2,0.6,0.4,0.6,0.4,0.4,0.6,1,0
,,66c086c91cd54d5495701e9b,66fce21cf30a818a71481d4f,2024-10-01_23h05.44.786,mdp,2024.2.1,Win32,20.00080003,66fa4ebf79326e780c390304,,,,,,,,,,,,,,,,,,,,,1137.807,1137.807,1137.809,1138.572,1,1,right,0.171,,1138.574,1139.141,1,0,right,1139.143,1139.767,1,1,right,0,1139.767,1139.767,1139.768,1141.235,0,23,23,23,1,0.8,0.2,0.2,0.8,,,,,,,,,,,,,,,0.003,,0.8,0.2,0.2,0.8,0.8,0.2,0.4,0.6,,,0.058,,0.8,0.2,0.6,0.4,0.6,0.4,0.4,0.6,1,0
,,66c086c91cd54d5495701e9b,66fce21cf30a818a71481d4f,2024-10-01_23h05.44.786,mdp,2024.2.1,Win32,20.00080003,66fa4ebf79326e780c390304,,,,,,,,,,,,,,,,,,,,,1141.236,1141.237,1141.24,1144.15,0,0,left,2.325,,1144.151,1144.889,1,0,right,1144.891,1145.562,1,0,right,1,1145.562,1145.562,1145.564,1147.054,0,24,24,24,1,0.8,0.2,0.2,0.8,,,,,,,,,,,,,,,0.169,,0.8,0.2,0.2,0.8,0.8,0.2,0.4,0.6,,,0.114,,0.8,0.2,0.6,0.4,0.6,0.4,0.4,0.6,1,0
,,66c086c91cd54d5495701e9b,66fce21cf30a818a71481d4f,2024-10-01_23h05.44.786,mdp,2024.2.1,Win32,20.00080003,66fa4ebf79326e780c390304,,,,,,,,,,,,,,,,,,,,,1147.055,1147.055,1147.057,1148.746,0,1,left,1.108,,1148.75,1153.034,1,0,right,1153.055,1153.784,1,1,right,0,1153.784,1153.784,1153.786,1155.287,0,25,25,25,1,0.8,0.2,0.2,0.8,,,,,,,,,,,,,,,3.705,,0.8,0.2,0.2,0.8,0.8,0.2,0.4,0.6,,,0.171,,0.8,0.2,0.6,0.4,0.6,0.4,0.4,0.6,1,0
,,66c086c91cd54d5495701e9b,66fce21cf30a818a71481d4f,2024-10-01_23h05.44.786,mdp,2024.2.1,Win32,20.00080003,66fa4ebf79326e780c390304,,,,,,,,,,,,,,,,,,,,,1155.288,1155.288,1155.29,1158.16,1,1,right,2.266,,1158.162,1159.898,1,1,right,1159.9,1162.604,1,1,right,0,1162.604,1162.604,1162.606,1164.062,0,26,26,26,1,0.8,0.2,0.2,0.8,,,,,,,,,,,,,,,1.147,,0.8,0.2,0.2,0.8,0.8,0.2,0.4,0.6,,,2.131,,0.8,0.2,0.6,0.4,0.6,0.4,0.4,0.6,1,0
,,66c086c91cd54d5495701e9b,66fce21cf30a818a71481d4f,2024-10-01_23h05.44.786,mdp,2024.2.1,Win32,20.00080003,66fa4ebf79326e780c390304,,,,,,,,,,,,,,,,,,,,,1164.062,1164.062,1164.064,1164.647,1,1,right,0.001,,1164.648,1165.563,1,0,right,1165.564,1166.671,0,0,left,1,1166.671,1166.671,1166.672,1168.176,0,27,27,27,1,0.8,0.2,0.2,0.8,,,,,,,,,,,,,,,0.338,,0.8,0.2,0.2,0.8,0.8,0.2,0.4,0.6,,,0.529,,0.8,0.2,0.6,0.4,0.6,0.4,0.4,0.6,1,0
,,66c086c91cd54d5495701e9b,66fce21cf30a818a71481d4f,2024-10-01_23h05.44.786,mdp,2024.2.1,Win32,20.00080003,66fa4ebf79326e780c390304,,,,,,,,,,,,,,,,,,,,,1168.177,1168.177,1168.179,1169.245,1,0,right,0.507,,1169.247,1169.937,1,0,right,1169.938,1170.499,1,1,right,0,1170.499,1170.499,1170.501,1171.995,0,28,28,28,1,0.8,0.2,0.2,0.8,,,,,,,,,,,,,,,0.115,,0.8,0.2,0.2,0.8,0.8,0.2,0.4,0.6,,,0.002,,0.8,0.2,0.6,0.4,0.6,0.4,0.4,0.6,1,0
,,66c086c91cd54d5495701e9b,66fce21cf30a818a71481d4f,2024-10-01_23h05.44.786,mdp,2024.2.1,Win32,20.00080003,66fa4ebf79326e780c390304,,,,,,,,,,,,,,,,,,,,,1171.998,1171.998,1172,1172.683,1,1,right,0.119,,1172.685,1173.545,1,0,right,1173.547,1174.189,0,0,left,1,1174.189,1174.189,1174.191,1175.641,0,29,29,29,1,0.8,0.2,0.2,0.8,,,,,,,,,,,,,,,0.289,,0.8,0.2,0.2,0.8,0.8,0.2,0.4,0.6,,,0.06,,0.8,0.2,0.6,0.4,0.6,0.4,0.4,0.6,1,0
,,66c086c91cd54d5495701e9b,66fce21cf30a818a71481d4f,2024-10-01_23h05.44.786,mdp,2024.2.1,Win32,20.00080003,66fa4ebf79326e780c390304,,,,,,,,,,,,,,,,,,,,,1175.643,1175.643,1175.644,1176.408,1,0,right,0.17,,1176.41,1177.12,0,0,left,1177.122,1177.83,1,0,right,1,1177.83,1177.83,1177.832,1179.321,0,30,30,30,1,0.8,0.2,0.2,0.8,,,,,,,,,,,,,,,0.115,,0.8,0.2,0.2,0.8,0.8,0.2,0.4,0.6,,,0.123,,0.8,0.2,0.6,0.4,0.6,0.4,0.4,0.6,1,0
,,66c086c91cd54d5495701e9b,66fce21cf30a818a71481d4f,2024-10-01_23h05.44.786,mdp,2024.2.1,Win32,20.00080003,66fa4ebf79326e780c390304,,,,,,,,,,,,,,,,,,,,,1179.322,1179.322,1179.323,1179.965,0,0,left,0.058,,1179.967,1180.648,0,1,left,1180.65,1181.545,1,1,right,0,1181.546,1181.546,1181.547,1183.004,0,31,31,31,1,0.8,0.2,0.2,0.8,,,,,,,,,,,,,,,0.116,,0.8,0.2,0.2,0.8,0.8,0.2,0.4,0.6,,,0.286,,0.8,0.2,0.6,0.4,0.6,0.4,0.4,0.6,1,0
,,66c086c91cd54d5495701e9b,66fce21cf30a818a71481d4f,2024-10-01_23h05.44.786,mdp,2024.2.1,Win32,20.00080003,66fa4ebf79326e780c390304,,,,,,,,,,,,,,,,,,,,,1183.005,1183.005,1183.007,1183.685,0,0,left,0.113,,1183.686,1184.674,1,1,right,1184.677,1185.497,1,1,right,0,1185.497,1185.497,1185.498,1186.949,0,32,32,32,1,0.8,0.2,0.2,0.8,,,,,,,,,,,,,,,0.399,,0.8,0.2,0.2,0.8,0.8,0.2,0.4,0.6,,,0.228,,0.8,0.2,0.6,0.4,0.6,0.4,0.4,0.6,1,0
,,66c086c91cd54d5495701e9b,66fce21cf30a818a71481d4f,2024-10-01_23h05.44.786,mdp,2024.2.1,Win32,20.00080003,66fa4ebf79326e780c390304,,,,,,,,,,,,,,,,,,,,,1186.95,1186.95,1186.952,1187.514,1,0,right,0.001,,1187.516,1188.105,1,0,right,1188.107,1188.858,1,1,right,0,1188.858,1188.858,1188.86,1190.359,0,33,33,33,1,0.8,0.2,0.2,0.8,,,,,,,,,,,,,,,0.003,,0.8,0.2,0.2,0.8,0.8,0.2,0.4,0.6,,,0.178,,0.8,0.2,0.6,0.4,0.6,0.4,0.4,0.6,1,0
,,66c086c91cd54d5495701e9b,66fce21cf30a818a71481d4f,2024-10-01_23h05.44.786,mdp,2024.2.1,Win32,20.00080003,66fa4ebf79326e780c390304,,,,,,,,,,,,,,,,,,,,,1190.36,1190.36,1190.362,1190.929,0,0,left,0.003,,1190.93,1191.779,1,1,right,1191.781,1193.001,1,0,right,1,1193.001,1193.001,1193.003,1194.486,0,34,34,34,1,0.8,0.2,0.2,0.8,,,,,,,,,,,,,,,0.287,,0.8,0.2,0.2,0.8,0.8,0.2,0.4,0.6,,,0.623,,0.8,0.2,0.6,0.4,0.6,0.4,0.4,0.6,1,0
,,66c086c91cd54d5495701e9b,66fce21cf30a818a71481d4f,2024-10-01_23h05.44.786,mdp,2024.2.1,Win32,20.00080003,66fa4ebf79326e780c390304,,,,,,,,,,,,,,,,,,,,,1194.487,1194.487,1194.489,1195.646,0,0,left,0.569,,1195.648,1197.024,0,1,left,1197.026,1197.865,0,0,left,1,1197.865,1197.865,1197.867,1199.368,0,35,35,35,1,0.8,0.2,0.2,0.8,,,,,,,,,,,,,,,0.791,,0.8,0.2,0.2,0.8,0.8,0.2,0.4,0.6,,,0.277,,0.8,0.2,0.6,0.4,0.6,0.4,0.4,0.6,1,0
,,66c086c91cd54d5495701e9b,66fce21cf30a818a71481d4f,2024-10-01_23h05.44.786,mdp,2024.2.1,Win32,20.00080003,66fa4ebf79326e780c390304,,,,,,,,,,,,,,,,,,,,,1199.369,1199.369,1199.37,1199.936,0,1,left,0.003,,1199.938,1200.818,1,0,right,1200.82,1201.579,1,0,right,1,1201.579,1201.579,1201.581,1203.05,0,36,36,36,1,0.8,0.2,0.2,0.8,,,,,,,,,,,,,,,0.284,,0.8,0.2,0.2,0.8,0.4,0.6,0.2,0.8,,,0.173,,0.8,0.2,0.6,0.4,0.6,0.4,0.4,0.6,1,0
,,66c086c91cd54d5495701e9b,66fce21cf30a818a71481d4f,2024-10-01_23h05.44.786,mdp,2024.2.1,Win32,20.00080003,66fa4ebf79326e780c390304,,,,,,,,,,,,,,,,,,,,,1203.051,1203.051,1203.053,1203.85,1,0,right,0.226,,1203.852,1204.425,0,0,left,1204.427,1205.272,1,0,right,1,1205.274,1205.274,1205.275,1206.737,0,37,37,37,1,0.8,0.2,0.2,0.8,,,,,,,,,,,,,,,0.002,,0.8,0.2,0.2,0.8,0.4,0.6,0.2,0.8,,,0.282,,0.8,0.2,0.6,0.4,0.6,0.4,0.4,0.6,1,0
,,66c086c91cd54d5495701e9b,66fce21cf30a818a71481d4f,2024-10-01_23h05.44.786,mdp,2024.2.1,Win32,20.00080003,66fa4ebf79326e780c390304,,,,,,,,,,,,,,,,,,,,,1206.739,1206.739,1206.741,1207.555,1,1,right,0.226,,1207.557,1208.391,1,0,right,1208.392,1208.963,1,1,right,0,1208.963,1208.963,1208.964,1210.482,0,38,38,38,1,0.8,0.2,0.2,0.8,,,,,,,,,,,,,,,0.236,,0.8,0.2,0.2,0.8,0.4,0.6,0.2,0.8,,,0.002,,0.8,0.2,0.6,0.4,0.6,0.4,0.4,0.6,1,0
,,66c086c91cd54d5495701e9b,66fce21cf30a818a71481d4f,2024-10-01_23h05.44.786,mdp,2024.2.1,Win32,20.00080003,66fa4ebf79326e780c390304,,,,,,,,,,,,,,,,,,,,,1210.483,1210.483,1210.485,1211.132,1,1,right,0.063,,1211.134,1211.712,1,1,right,1211.714,1212.352,1,0,right,1,1212.352,1212.352,1212.354,1213.85,0,39,39,39,1,0.6,0.4,0.8,0.2,,,,,,,,,,,,,,,0.002,,0.8,0.2,0.2,0.8,0.4,0.6,0.2,0.8,,,0.058,,0.8,0.2,0.6,0.4,0.6,0.4,0.4,0.6,1,0
,,66c086c91cd54d5495701e9b,66fce21cf30a818a71481d4f,2024-10-01_23h05.44.786,mdp,2024.2.1,Win32,20.00080003,66fa4ebf79326e780c390304,,,,,,,,,,,,,,,,,,,,,1213.852,1213.852,1213.853,1214.509,0,1,left,0.061,,1214.511,1215.653,1,1,right,1215.655,1216.331,1,1,right,0,1216.331,1216.331,1216.333,1217.815,0,40,40,40,1,0.6,0.4,0.8,0.2,,,,,,,,,,,,,,,0.572,,0.8,0.2,0.2,0.8,0.4,0.6,0.2,0.8,,,0.115,,0.8,0.2,0.6,0.4,0.6,0.4,0.4,0.6,1,0
,,66c086c91cd54d5495701e9b,66fce21cf30a818a71481d4f,2024-10-01_23h05.44.786,mdp,2024.2.1,Win32,20.00080003,66fa4ebf79326e780c390304,,,,,,,,,,,,,,,,,,,,,1217.816,1217.816,1217.817,1218.804,1,0,right,0.394,,1218.806,1219.412,1,1,right,1219.414,1220.036,1,1,right,0,1220.036,1220.036,1220.038,1221.538,0,41,41,41,1,0.6,0.4,0.8,0.2,,,,,,,,,,,,,,,0.003,,0.8,0.2,0.2,0.8,0.8,0.2,0.8,0.2,,,0.059,,0.8,0.2,0.6,0.4,0.6,0.4,0.4,0.6,1,0
,,66c086c91cd54d5495701e9b,66fce21cf30a818a71481d4f,2024-10-01_23h05.44.786,mdp,2024.2.1,Win32,20.00080003,66fa4ebf79326e780c390304,,,,,,,,,,,,,,,,,,,,,1221.538,1221.538,1221.54,1222.809,0,1,left,0.707,,1222.811,1223.62,0,0,left,1223.621,1224.758,0,0,left,1,1224.758,1224.758,1224.76,1226.215,0,42,42,42,1,0.6,0.4,0.8,0.2,,,,,,,,,,,,,,,0.233,,0.8,0.2,0.2,0.8,0.8,0.2,0.8,0.2,,,0.566,,0.8,0.2,0.6,0.4,0.6,0.4,0.4,0.6,1,0
,,66c086c91cd54d5495701e9b,66fce21cf30a818a71481d4f,2024-10-01_23h05.44.786,mdp,2024.2.1,Win32,20.00080003,66fa4ebf79326e780c390304,,,,,,,,,,,,,,,,,,,,,1226.216,1226.216,1226.22,1227.257,0,0,left,0.453,,1227.259,1228.897,1,1,right,1228.898,1230.185,1,1,right,0,1230.185,1230.185,1230.187,1231.697,0,43,43,43,1,0.6,0.4,0.8,0.2,,,,,,,,,,,,,,,1.068,,0.8,0.2,0.2,0.8,0.8,0.2,0.8,0.2,,,0.688,,0.8,0.2,0.6,0.4,0.6,0.4,0.4,0.6,1,0
,,66c086c91cd54d5495701e9b,66fce21cf30a818a71481d4f,2024-10-01_23h05.44.786,mdp,2024.2.1,Win32,20.00080003,66fa4ebf79326e780c390304,,,,,,,,,,,,,,,,,,,,,1231.699,1231.699,1231.7,1232.547,1,0,right,0.282,,1232.549,1233.172,1,1,right,1233.173,1233.849,0,0,left,1,1233.849,1233.849,1233.851,1235.341,0,44,44,44,1,0.6,0.4,0.8,0.2,,,,,,,,,,,,,,,0.056,,0.8,0.2,0.2,0.8,0.8,0.2,0.8,0.2,,,0.115,,0.8,0.2,0.6,0.4,0.6,0.4,0.4,0.6,1,0
,,66c086c91cd54d5495701e9b,66fce21cf30a818a71481d4f,2024-10-01_23h05.44.786,mdp,2024.2.1,Win32,20.00080003,66fa4ebf79326e780c390304,,,,,,,,,,,,,,,,,,,,,1235.343,1235.343,1235.345,1235.938,1,0,right,0.002,,1235.94,1236.579,1,1,right,1236.58,1237.644,1,0,right,1,1237.644,1237.644,1237.645,1239.118,0,45,45,45,1,0.6,0.4,0.8,0.2,,,,,,,,,,,,,,,0.058,,0.8,0.2,0.2,0.8,0.8,0.2,0.8,0.2,,,0.507,,0.8,0.2,0.6,0.4,0.6,0.4,0.4,0.6,1,0
,,66c086c91cd54d5495701e9b,66fce21cf30a818a71481d4f,2024-10-01_23h05.44.786,mdp,2024.2.1,Win32,20.00080003,66fa4ebf79326e780c390304,,,,,,,,,,,,,,,,,,,,,1239.12,1239.12,1239.121,1240.686,0,1,left,0.982,,1240.689,1241.75,0,0,left,1241.751,1243.269,1,1,right,0,1243.269,1243.269,1243.271,1244.773,0,46,46,46,1,0.6,0.4,0.8,0.2,,,,,,,,,,,,,,,0.487,,0.8,0.2,0.2,0.8,0.8,0.2,0.8,0.2,,,0.941,,0.8,0.2,0.6,0.4,0.6,0.4,0.4,0.6,1,0
,,66c086c91cd54d5495701e9b,66fce21cf30a818a71481d4f,2024-10-01_23h05.44.786,mdp,2024.2.1,Win32,20.00080003,66fa4ebf79326e780c390304,,,,,,,,,,,,,,,,,,,,,1244.774,1244.774,1244.775,1245.405,1,1,right,0.059,,1245.408,1246.194,0,1,left,1246.196,1246.828,0,0,left,1,1246.828,1246.828,1246.83,1248.287,0,47,47,47,1,0.6,0.4,0.8,0.2,,,,,,,,,,,,,,,0.225,,0.8,0.2,0.2,0.8,0.8,0.2,0.8,0.2,,,0.062,,0.8,0.2,0.6,0.4,0.6,0.4,0.4,0.6,1,0
,,66c086c91cd54d5495701e9b,66fce21cf30a818a71481d4f,2024-10-01_23h05.44.786,mdp,2024.2.1,Win32,20.00080003,66fa4ebf79326e780c390304,,,,,,,,,,,,,,,,,,,,,1248.288,1248.288,1248.29,1248.888,0,0,left,0.001,,1248.89,1249.466,0,0,left,1249.468,1250.501,1,0,right,1,1250.501,1250.501,1250.503,1251.963,0,48,48,48,1,0.6,0.4,0.8,0.2,,,,,,,,,,,,,,,0.003,,0.8,0.2,0.2,0.8,0.8,0.2,0.8,0.2,,,0.439,,0.8,0.2,0.6,0.4,0.6,0.4,0.4,0.6,1,0
,,66c086c91cd54d5495701e9b,66fce21cf30a818a71481d4f,2024-10-01_23h05.44.786,mdp,2024.2.1,Win32,20.00080003,66fa4ebf79326e780c390304,,,,,,,,,,,,,,,,,,,,,1251.964,1251.964,1251.966,1252.846,1,0,right,0.295,,1252.847,1253.967,1,1,right,1253.968,1254.889,1,1,right,0,1254.889,1254.889,1254.89,1256.382,0,49,49,49,1,0.6,0.4,0.8,0.2,,,,,,,,,,,,,,,0.534,,0.8,0.2,0.2,0.8,0.8,0.2,0.8,0.2,,,0.344,,0.8,0.2,0.6,0.4,0.6,0.4,0.4,0.6,1,0
,,66c086c91cd54d5495701e9b,66fce21cf30a818a71481d4f,2024-10-01_23h05.44.786,mdp,2024.2.1,Win32,20.00080003,66fa4ebf79326e780c390304,,,,,,,,,,,,,,,,,,,,,,,,,,,,,,,,,,,,,,,,,,,,,,,,,,,,,,,,1256.383,1314.892,0,3,3,8,1,imgs/squirrel.png,imgs/goat.png,imgs/dog.png,imgs/bear.png,imgs/horse.png,,,,,,,,,,,,,,,,,,,,,,,,
,,66c086c91cd54d5495701e9b,66fce21cf30a818a71481d4f,2024-10-01_23h05.44.786,mdp,2024.2.1,Win32,20.00080003,66fa4ebf79326e780c390304,,,,,,,,,,,,,,1,seqs/st1seq17.csv,1314.915,1316.845,space,1.372,,1316.855,1316.855,1316.857,1320.812,1,1,right,3.373,,1320.833,1320.835,1,0,,1320.836,1320.837,1,0,,0,1320.837,1320.837,1320.839,1322.353,0,0,0,0,1,0.2,0.8,0.8,0.2,1,0,,,,,,,,,,,,,,,,,,,,,,,,,,,,,,,,,,,,
,,66c086c91cd54d5495701e9b,66fce21cf30a818a71481d4f,2024-10-01_23h05.44.786,mdp,2024.2.1,Win32,20.00080003,66fa4ebf79326e780c390304,,,,,,,,,,,,,,,,,,,,,1322.355,1322.355,1322.356,1323.236,0,0,left,0.313,,1323.238,1323.24,1,1,,1323.242,1323.243,1,0,,1,1323.244,1323.244,1323.246,1324.733,0,1,1,1,1,0.8,0.2,0.2,0.8,1,0,,,,,,,,,,,,,,,,,,,,,,,,,,,,,,,,,,,,
,,66c086c91cd54d5495701e9b,66fce21cf30a818a71481d4f,2024-10-01_23h05.44.786,mdp,2024.2.1,Win32,20.00080003,66fa4ebf79326e780c390304,,,,,,,,,,,,,,,,,,,,,1324.734,1324.734,1324.736,1325.381,1,1,right,0.057,,1325.383,1325.384,1,1,,1325.386,1325.388,1,1,,0,1325.388,1325.388,1325.39,1326.897,0,2,2,2,1,0.8,0.2,0.2,0.8,1,0,,,,,,,,,,,,,,,,,,,,,,,,,,,,,,,,,,,,
,,66c086c91cd54d5495701e9b,66fce21cf30a818a71481d4f,2024-10-01_23h05.44.786,mdp,2024.2.1,Win32,20.00080003,66fa4ebf79326e780c390304,,,,,,,,,,,,,,,,,,,,,1326.898,1326.898,1326.899,1327.625,0,1,left,0.17,,1327.627,1327.628,1,0,,1327.63,1327.632,1,0,,0,1327.632,1327.632,1327.633,1329.112,0,3,3,3,1,0.8,0.2,0.2,0.8,1,0,,,,,,,,,,,,,,,,,,,,,,,,,,,,,,,,,,,,
,,66c086c91cd54d5495701e9b,66fce21cf30a818a71481d4f,2024-10-01_23h05.44.786,mdp,2024.2.1,Win32,20.00080003,66fa4ebf79326e780c390304,,,,,,,,,,,,,,,,,,,,,1329.113,1329.113,1329.115,1330.124,1,1,right,0.449,,1330.126,1330.128,1,0,,1330.129,1330.131,1,1,,0,1330.131,1330.131,1330.133,1331.633,0,4,4,4,1,0.8,0.2,0.2,0.8,1,0,,,,,,,,,,,,,,,,,,,,,,,,,,,,,,,,,,,,
,,66c086c91cd54d5495701e9b,66fce21cf30a818a71481d4f,2024-10-01_23h05.44.786,mdp,2024.2.1,Win32,20.00080003,66fa4ebf79326e780c390304,,,,,,,,,,,,,,,,,,,,,1331.634,1331.634,1331.636,1332.257,0,0,left,0.058,,1332.259,1332.261,1,0,,1332.264,1332.265,1,0,,1,1332.265,1332.265,1332.267,1333.763,0,5,5,5,1,0.8,0.2,0.2,0.8,1,0,,,,,,,,,,,,,,,,,,,,,,,,,,,,,,,,,,,,
,,66c086c91cd54d5495701e9b,66fce21cf30a818a71481d4f,2024-10-01_23h05.44.786,mdp,2024.2.1,Win32,20.00080003,66fa4ebf79326e780c390304,,,,,,,,,,,,,,,,,,,,,1333.764,1333.764,1333.765,1334.436,1,0,right,0.112,,1334.438,1334.44,1,1,,1334.442,1334.443,1,1,,1,1334.443,1334.443,1334.445,1335.9,0,6,6,6,1,0.8,0.2,0.2,0.8,1,0,,,,,,,,,,,,,,,,,,,,,,,,,,,,,,,,,,,,
,,66c086c91cd54d5495701e9b,66fce21cf30a818a71481d4f,2024-10-01_23h05.44.786,mdp,2024.2.1,Win32,20.00080003,66fa4ebf79326e780c390304,,,,,,,,,,,,,,,,,,,,,1335.901,1335.901,1335.903,1336.593,0,0,left,0.115,,1336.594,1336.596,1,0,,1336.597,1336.599,1,1,,1,1336.599,1336.599,1336.601,1338.068,0,7,7,7,1,0.8,0.2,0.2,0.8,1,0,,,,,,,,,,,,,,,,,,,,,,,,,,,,,,,,,,,,
,,66c086c91cd54d5495701e9b,66fce21cf30a818a71481d4f,2024-10-01_23h05.44.786,mdp,2024.2.1,Win32,20.00080003,66fa4ebf79326e780c390304,,,,,,,,,,,,,,,,,,,,,1338.069,1338.069,1338.071,1338.972,0,0,left,0.338,,1338.974,1338.975,1,1,,1338.977,1338.979,1,0,,1,1338.979,1338.979,1338.98,1340.493,0,8,8,8,1,0.4,0.6,0.6,0.4,1,0,,,,,,,,,,,,,,,,,,,,,,,,,,,,,,,,,,,,
,,66c086c91cd54d5495701e9b,66fce21cf30a818a71481d4f,2024-10-01_23h05.44.786,mdp,2024.2.1,Win32,20.00080003,66fa4ebf79326e780c390304,,,,,,,,,,,,,,,,,,,,,1340.493,1340.493,1340.495,1361.948,1,0,right,20.886,,1361.97,1361.972,1,1,,1361.973,1361.974,1,1,,1,1361.975,1361.975,1361.976,1363.444,0,9,9,9,1,0.4,0.6,0.6,0.4,1,0,,,,,,,,,,,,,,,,,,,,,,,,,,,,,,,,,,,,
,,66c086c91cd54d5495701e9b,66fce21cf30a818a71481d4f,2024-10-01_23h05.44.786,mdp,2024.2.1,Win32,20.00080003,66fa4ebf79326e780c390304,,,,,,,,,,,,,,,,,,,,,1363.444,1363.444,1363.446,1364.01,0,1,left,0.002,,1364.013,1364.014,1,1,,1364.016,1364.018,1,0,,0,1364.018,1364.018,1364.019,1365.522,0,10,10,10,1,0.4,0.6,0.6,0.4,1,0,,,,,,,,,,,,,,,,,,,,,,,,,,,,,,,,,,,,
,,66c086c91cd54d5495701e9b,66fce21cf30a818a71481d4f,2024-10-01_23h05.44.786,mdp,2024.2.1,Win32,20.00080003,66fa4ebf79326e780c390304,,,,,,,,,,,,,,,,,,,,,1365.523,1365.523,1365.525,1367.053,1,1,right,0.96,,1367.055,1367.057,1,1,,1367.058,1367.06,1,0,,0,1367.06,1367.06,1367.062,1368.536,0,11,11,11,1,0.6,0.4,0.4,0.6,1,0,,,,,,,,,,,,,,,,,,,,,,,,,,,,,,,,,,,,
,,66c086c91cd54d5495701e9b,66fce21cf30a818a71481d4f,2024-10-01_23h05.44.786,mdp,2024.2.1,Win32,20.00080003,66fa4ebf79326e780c390304,,,,,,,,,,,,,,,,,,,,,1368.536,1368.536,1368.538,1369.463,1,1,right,0.337,,1369.465,1369.466,1,0,,1369.468,1369.47,1,0,,0,1369.47,1369.47,1369.471,1370.959,0,12,12,12,1,0.6,0.4,0.4,0.6,1,0,,,,,,,,,,,,,,,,,,,,,,,,,,,,,,,,,,,,
,,66c086c91cd54d5495701e9b,66fce21cf30a818a71481d4f,2024-10-01_23h05.44.786,mdp,2024.2.1,Win32,20.00080003,66fa4ebf79326e780c390304,,,,,,,,,,,,,,,,,,,,,1370.96,1370.96,1370.961,1371.807,1,0,right,0.281,,1371.808,1371.81,1,0,,1371.812,1371.813,1,1,,1,1371.813,1371.813,1371.815,1373.323,0,13,13,13,1,0.6,0.4,0.4,0.6,1,0,,,,,,,,,,,,,,,,,,,,,,,,,,,,,,,,,,,,
,,66c086c91cd54d5495701e9b,66fce21cf30a818a71481d4f,2024-10-01_23h05.44.786,mdp,2024.2.1,Win32,20.00080003,66fa4ebf79326e780c390304,,,,,,,,,,,,,,,,,,,,,1373.323,1373.323,1373.325,1374.036,1,0,right,0.115,,1374.038,1374.04,1,1,,1374.041,1374.043,1,0,,1,1374.043,1374.043,1374.045,1375.506,0,14,14,14,1,0.6,0.4,0.4,0.6,1,0,,,,,,,,,,,,,,,,,,,,,,,,,,,,,,,,,,,,
,,66c086c91cd54d5495701e9b,66fce21cf30a818a71481d4f,2024-10-01_23h05.44.786,mdp,2024.2.1,Win32,20.00080003,66fa4ebf79326e780c390304,,,,,,,,,,,,,,,,,,,,,1375.508,1375.508,1375.509,1379.59,1,1,right,3.493,,1379.611,1379.613,1,1,,1379.614,1379.616,1,0,,0,1379.616,1379.616,1379.617,1381.114,0,15,15,15,1,0.6,0.4,0.4,0.6,1,0,,,,,,,,,,,,,,,,,,,,,,,,,,,,,,,,,,,,
,,66c086c91cd54d5495701e9b,66fce21cf30a818a71481d4f,2024-10-01_23h05.44.786,mdp,2024.2.1,Win32,20.00080003,66fa4ebf79326e780c390304,,,,,,,,,,,,,,,,,,,,,1381.115,1381.115,1381.117,1381.738,0,1,left,0.057,,1381.74,1381.741,1,0,,1381.743,1381.744,1,0,,0,1381.745,1381.745,1381.746,1383.234,0,16,16,16,1,0.6,0.4,0.4,0.6,1,0,,,,,,,,,,,,,,,,,,,,,,,,,,,,,,,,,,,,
,,66c086c91cd54d5495701e9b,66fce21cf30a818a71481d4f,2024-10-01_23h05.44.786,mdp,2024.2.1,Win32,20.00080003,66fa4ebf79326e780c390304,,,,,,,,,,,,,,,,,,,,,1383.235,1383.235,1383.236,1384.393,0,0,left,0.568,,1384.395,1384.397,1,0,,1384.398,1384.4,1,1,,1,1384.4,1384.4,1384.402,1385.878,0,17,17,17,1,0.2,0.8,0.6,0.4,1,0,,,,,,,,,,,,,,,,,,,,,,,,,,,,,,,,,,,,
,,66c086c91cd54d5495701e9b,66fce21cf30a818a71481d4f,2024-10-01_23h05.44.786,mdp,2024.2.1,Win32,20.00080003,66fa4ebf79326e780c390304,,,,,,,,,,,,,,,,,,,,,1385.879,1385.879,1385.881,1386.736,1,0,right,0.287,,1386.738,1386.739,1,0,,1386.741,1386.742,1,0,,1,1386.743,1386.743,1386.744,1388.211,0,18,18,18,1,0.2,0.8,0.6,0.4,1,0,,,,,,,,,,,,,,,,,,,,,,,,,,,,,,,,,,,,
,,66c086c91cd54d5495701e9b,66fce21cf30a818a71481d4f,2024-10-01_23h05.44.786,mdp,2024.2.1,Win32,20.00080003,66fa4ebf79326e780c390304,,,,,,,,,,,,,,,,,,,,,1388.213,1388.213,1388.214,1388.947,0,0,left,0.17,,1388.949,1388.951,1,1,,1388.952,1388.954,1,1,,1,1388.954,1388.954,1388.956,1390.441,0,19,19,19,1,0.2,0.8,0.6,0.4,1,0,,,,,,,,,,,,,,,,,,,,,,,,,,,,,,,,,,,,
,,66c086c91cd54d5495701e9b,66fce21cf30a818a71481d4f,2024-10-01_23h05.44.786,mdp,2024.2.1,Win32,20.00080003,66fa4ebf79326e780c390304,,,,,,,,,,,,,,,,,,,,,1390.442,1390.443,1390.445,1391.03,0,1,left,0.002,,1391.032,1391.034,1,1,,1391.035,1391.037,1,1,,0,1391.038,1391.038,1391.039,1392.55,0,20,20,20,1,0.2,0.8,0.6,0.4,1,0,,,,,,,,,,,,,,,,,,,,,,,,,,,,,,,,,,,,
,,66c086c91cd54d5495701e9b,66fce21cf30a818a71481d4f,2024-10-01_23h05.44.786,mdp,2024.2.1,Win32,20.00080003,66fa4ebf79326e780c390304,,,,,,,,,,,,,,,,,,,,,1392.551,1392.551,1392.553,1393.195,0,1,left,0.058,,1393.197,1393.198,1,1,,1393.2,1393.202,1,1,,0,1393.202,1393.202,1393.203,1394.71,0,21,21,21,1,0.2,0.8,0.6,0.4,1,0,,,,,,,,,,,,,,,,,,,,,,,,,,,,,,,,,,,,
,,66c086c91cd54d5495701e9b,66fce21cf30a818a71481d4f,2024-10-01_23h05.44.786,mdp,2024.2.1,Win32,20.00080003,66fa4ebf79326e780c390304,,,,,,,,,,,,,,,,,,,,,1394.71,1394.71,1394.712,1395.579,1,0,right,0.28,,1395.58,1395.582,1,1,,1395.583,1395.585,1,1,,1,1395.585,1395.585,1395.587,1397.055,0,22,22,22,1,0.2,0.8,0.6,0.4,1,0,,,,,,,,,,,,,,,,,,,,,,,,,,,,,,,,,,,,
,,66c086c91cd54d5495701e9b,66fce21cf30a818a71481d4f,2024-10-01_23h05.44.786,mdp,2024.2.1,Win32,20.00080003,66fa4ebf79326e780c390304,,,,,,,,,,,,,,,,,,,,,1397.056,1397.056,1397.058,1398.3,0,1,left,0.634,,1398.301,1398.303,1,1,,1398.305,1398.307,1,0,,0,1398.307,1398.307,1398.308,1399.807,0,23,23,23,1,0.2,0.8,0.6,0.4,1,0,,,,,,,,,,,,,,,,,,,,,,,,,,,,,,,,,,,,
,,66c086c91cd54d5495701e9b,66fce21cf30a818a71481d4f,2024-10-01_23h05.44.786,mdp,2024.2.1,Win32,20.00080003,66fa4ebf79326e780c390304,,,,,,,,,,,,,,,,,,,,,1399.808,1399.808,1399.81,1400.375,0,1,left,0.001,,1400.377,1400.378,1,1,,1400.38,1400.382,1,1,,0,1400.382,1400.382,1400.385,1401.897,0,24,24,24,1,0.2,0.8,0.6,0.4,1,0,,,,,,,,,,,,,,,,,,,,,,,,,,,,,,,,,,,,
,,66c086c91cd54d5495701e9b,66fce21cf30a818a71481d4f,2024-10-01_23h05.44.786,mdp,2024.2.1,Win32,20.00080003,66fa4ebf79326e780c390304,,,,,,,,,,,,,,,,,,,,,1401.898,1401.898,1401.9,1402.609,1,0,right,0.115,,1402.611,1402.613,1,1,,1402.616,1402.618,1,1,,1,1402.618,1402.618,1402.62,1404.126,0,25,25,25,1,0.2,0.8,0.6,0.4,1,0,,,,,,,,,,,,,,,,,,,,,,,,,,,,,,,,,,,,
,,66c086c91cd54d5495701e9b,66fce21cf30a818a71481d4f,2024-10-01_23h05.44.786,mdp,2024.2.1,Win32,20.00080003,66fa4ebf79326e780c390304,,,,,,,,,,,,,,,,,,,,,1404.127,1404.127,1404.13,1406.978,1,1,right,2.273,,1407.001,1407.002,1,0,,1407.004,1407.005,1,0,,0,1407.005,1407.005,1407.006,1408.459,0,26,26,26,1,0.2,0.8,0.6,0.4,1,0,,,,,,,,,,,,,,,,,,,,,,,,,,,,,,,,,,,,
,,66c086c91cd54d5495701e9b,66fce21cf30a818a71481d4f,2024-10-01_23h05.44.786,mdp,2024.2.1,Win32,20.00080003,66fa4ebf79326e780c390304,,,,,,,,,,,,,,,,,,,,,1408.46,1408.46,1408.462,1409.148,1,1,right,0.114,,1409.15,1409.152,1,1,,1409.153,1409.155,1,0,,0,1409.155,1409.155,1409.157,1410.638,0,27,27,27,1,0.2,0.8,0.6,0.4,1,0,,,,,,,,,,,,,,,,,,,,,,,,,,,,,,,,,,,,
,,66c086c91cd54d5495701e9b,66fce21cf30a818a71481d4f,2024-10-01_23h05.44.786,mdp,2024.2.1,Win32,20.00080003,66fa4ebf79326e780c390304,,,,,,,,,,,,,,,,,,,,,1410.64,1410.64,1410.642,1411.236,1,0,right,0.002,,1411.238,1411.239,1,0,,1411.241,1411.242,1,1,,1,1411.242,1411.242,1411.244,1412.731,0,28,28,28,1,0.2,0.8,0.6,0.4,1,0,,,,,,,,,,,,,,,,,,,,,,,,,,,,,,,,,,,,
,,66c086c91cd54d5495701e9b,66fce21cf30a818a71481d4f,2024-10-01_23h05.44.786,mdp,2024.2.1,Win32,20.00080003,66fa4ebf79326e780c390304,,,,,,,,,,,,,,,,,,,,,1412.733,1412.733,1412.734,1414.588,1,0,right,1.262,,1414.59,1414.591,1,0,,1414.593,1414.595,1,1,,1,1414.595,1414.595,1414.596,1416.097,0,29,29,29,1,0.8,0.2,0.4,0.6,1,0,,,,,,,,,,,,,,,,,,,,,,,,,,,,,,,,,,,,
,,66c086c91cd54d5495701e9b,66fce21cf30a818a71481d4f,2024-10-01_23h05.44.786,mdp,2024.2.1,Win32,20.00080003,66fa4ebf79326e780c390304,,,,,,,,,,,,,,,,,,,,,1416.098,1416.098,1416.1,1418.406,1,1,right,1.744,,1418.408,1418.409,1,0,,1418.411,1418.412,1,1,,0,1418.412,1418.412,1418.414,1419.921,0,30,30,30,1,0.8,0.2,0.4,0.6,1,0,,,,,,,,,,,,,,,,,,,,,,,,,,,,,,,,,,,,
,,66c086c91cd54d5495701e9b,66fce21cf30a818a71481d4f,2024-10-01_23h05.44.786,mdp,2024.2.1,Win32,20.00080003,66fa4ebf79326e780c390304,,,,,,,,,,,,,,,,,,,,,1419.922,1419.922,1419.924,1420.601,1,1,right,0.117,,1420.603,1420.605,1,0,,1420.606,1420.609,1,1,,0,1420.61,1420.61,1420.611,1422.095,0,31,31,31,1,0.8,0.2,0.4,0.6,1,0,,,,,,,,,,,,,,,,,,,,,,,,,,,,,,,,,,,,
,,66c086c91cd54d5495701e9b,66fce21cf30a818a71481d4f,2024-10-01_23h05.44.786,mdp,2024.2.1,Win32,20.00080003,66fa4ebf79326e780c390304,,,,,,,,,,,,,,,,,,,,,1422.095,1422.095,1422.097,1422.681,1,1,right,0.002,,1422.682,1422.684,1,1,,1422.686,1422.687,1,0,,0,1422.687,1422.687,1422.689,1424.15,0,32,32,32,1,0.8,0.2,0.4,0.6,1,0,,,,,,,,,,,,,,,,,,,,,,,,,,,,,,,,,,,,
,,66c086c91cd54d5495701e9b,66fce21cf30a818a71481d4f,2024-10-01_23h05.44.786,mdp,2024.2.1,Win32,20.00080003,66fa4ebf79326e780c390304,,,,,,,,,,,,,,,,,,,,,1424.151,1424.151,1424.153,1426.091,1,1,right,1.381,,1426.093,1426.094,1,1,,1426.096,1426.097,1,1,,0,1426.098,1426.098,1426.099,1427.577,0,33,33,33,1,0.8,0.2,0.4,0.6,1,0,,,,,,,,,,,,,,,,,,,,,,,,,,,,,,,,,,,,
,,66c086c91cd54d5495701e9b,66fce21cf30a818a71481d4f,2024-10-01_23h05.44.786,mdp,2024.2.1,Win32,20.00080003,66fa4ebf79326e780c390304,,,,,,,,,,,,,,,,,,,,,1427.579,1427.579,1427.581,1428.352,1,0,right,0.205,,1428.353,1428.355,1,1,,1428.356,1428.358,1,0,,1,1428.358,1428.358,1428.36,1429.856,0,34,34,34,1,0.8,0.2,0.4,0.6,1,0,,,,,,,,,,,,,,,,,,,,,,,,,,,,,,,,,,,,
,,66c086c91cd54d5495701e9b,66fce21cf30a818a71481d4f,2024-10-01_23h05.44.786,mdp,2024.2.1,Win32,20.00080003,66fa4ebf79326e780c390304,,,,,,,,,,,,,,,,,,,,,1429.857,1429.857,1429.859,1430.82,1,0,right,0.396,,1430.822,1430.824,1,1,,1430.825,1430.827,1,0,,1,1430.827,1430.827,1430.829,1432.335,0,35,35,35,1,0.8,0.2,0.4,0.6,1,0,,,,,,,,,,,,,,,,,,,,,,,,,,,,,,,,,,,,
,,66c086c91cd54d5495701e9b,66fce21cf30a818a71481d4f,2024-10-01_23h05.44.786,mdp,2024.2.1,Win32,20.00080003,66fa4ebf79326e780c390304,,,,,,,,,,,,,,,,,,,,,1432.336,1432.336,1432.338,1435.693,1,0,right,2.774,,1435.714,1435.716,1,1,,1435.718,1435.719,1,0,,1,1435.719,1435.719,1435.721,1437.194,0,36,36,36,1,0.8,0.2,0.4,0.6,1,0,,,,,,,,,,,,,,,,,,,,,,,,,,,,,,,,,,,,
,,66c086c91cd54d5495701e9b,66fce21cf30a818a71481d4f,2024-10-01_23h05.44.786,mdp,2024.2.1,Win32,20.00080003,66fa4ebf79326e780c390304,,,,,,,,,,,,,,,,,,,,,1437.195,1437.195,1437.197,1437.817,1,0,right,0.058,,1437.818,1437.819,1,1,,1437.821,1437.822,1,0,,1,1437.823,1437.823,1437.824,1439.288,0,37,37,37,1,0.8,0.2,0.4,0.6,1,0,,,,,,,,,,,,,,,,,,,,,,,,,,,,,,,,,,,,
,,66c086c91cd54d5495701e9b,66fce21cf30a818a71481d4f,2024-10-01_23h05.44.786,mdp,2024.2.1,Win32,20.00080003,66fa4ebf79326e780c390304,,,,,,,,,,,,,,,,,,,,,1439.29,1439.29,1439.292,1439.984,1,1,right,0.114,,1439.987,1439.988,1,0,,1439.99,1439.992,1,0,,0,1439.992,1439.992,1439.993,1441.464,0,38,38,38,1,0.4,0.6,0.8,0.2,1,0,,,,,,,,,,,,,,,,,,,,,,,,,,,,,,,,,,,,
,,66c086c91cd54d5495701e9b,66fce21cf30a818a71481d4f,2024-10-01_23h05.44.786,mdp,2024.2.1,Win32,20.00080003,66fa4ebf79326e780c390304,,,,,,,,,,,,,,,,,,,,,1441.465,1441.466,1441.467,1442.259,1,1,right,0.223,,1442.262,1442.265,1,1,,1442.267,1442.269,1,0,,0,1442.269,1442.269,1442.271,1443.761,0,39,39,39,1,0.4,0.6,0.8,0.2,1,0,,,,,,,,,,,,,,,,,,,,,,,,,,,,,,,,,,,,
,,66c086c91cd54d5495701e9b,66fce21cf30a818a71481d4f,2024-10-01_23h05.44.786,mdp,2024.2.1,Win32,20.00080003,66fa4ebf79326e780c390304,,,,,,,,,,,,,,,,,,,,,1443.762,1443.762,1443.764,1444.451,0,1,left,0.126,,1444.452,1444.453,1,1,,1444.455,1444.456,1,1,,0,1444.457,1444.457,1444.458,1445.946,0,40,40,40,1,0.4,0.6,0.8,0.2,1,0,,,,,,,,,,,,,,,,,,,,,,,,,,,,,,,,,,,,
,,66c086c91cd54d5495701e9b,66fce21cf30a818a71481d4f,2024-10-01_23h05.44.786,mdp,2024.2.1,Win32,20.00080003,66fa4ebf79326e780c390304,,,,,,,,,,,,,,,,,,,,,1445.948,1445.948,1445.95,1448.706,1,0,right,2.198,,1448.727,1448.728,1,0,,1448.73,1448.731,1,1,,1,1448.731,1448.731,1448.733,1450.2,0,41,41,41,1,0.4,0.6,0.8,0.2,1,0,,,,,,,,,,,,,,,,,,,,,,,,,,,,,,,,,,,,
,,66c086c91cd54d5495701e9b,66fce21cf30a818a71481d4f,2024-10-01_23h05.44.786,mdp,2024.2.1,Win32,20.00080003,66fa4ebf79326e780c390304,,,,,,,,,,,,,,,,,,,,,1450.2,1450.2,1450.202,1450.89,1,0,right,0.122,,1450.892,1450.894,1,0,,1450.896,1450.897,1,0,,1,1450.898,1450.898,1450.899,1452.379,0,42,42,42,1,0.4,0.6,0.8,0.2,1,0,,,,,,,,,,,,,,,,,,,,,,,,,,,,,,,,,,,,
,,66c086c91cd54d5495701e9b,66fce21cf30a818a71481d4f,2024-10-01_23h05.44.786,mdp,2024.2.1,Win32,20.00080003,66fa4ebf79326e780c390304,,,,,,,,,,,,,,,,,,,,,1452.38,1452.38,1452.381,1453.417,1,1,right,0.45,,1453.419,1453.421,1,1,,1453.422,1453.424,1,1,,0,1453.424,1453.424,1453.425,1454.932,0,43,43,43,1,0.6,0.4,0.2,0.8,1,0,,,,,,,,,,,,,,,,,,,,,,,,,,,,,,,,,,,,
,,66c086c91cd54d5495701e9b,66fce21cf30a818a71481d4f,2024-10-01_23h05.44.786,mdp,2024.2.1,Win32,20.00080003,66fa4ebf79326e780c390304,,,,,,,,,,,,,,,,,,,,,1454.933,1454.933,1454.935,1482.89,1,1,right,27.388,,1482.912,1482.914,1,1,,1482.915,1482.916,1,1,,0,1482.916,1482.916,1482.918,1484.377,0,44,44,44,1,0.6,0.4,0.2,0.8,1,0,,,,,,,,,,,,,,,,,,,,,,,,,,,,,,,,,,,,
,,66c086c91cd54d5495701e9b,66fce21cf30a818a71481d4f,2024-10-01_23h05.44.786,mdp,2024.2.1,Win32,20.00080003,66fa4ebf79326e780c390304,,,,,,,,,,,,,,,,,,,,,1484.378,1484.378,1484.38,1485.024,1,0,right,0.059,,1485.026,1485.027,1,0,,1485.029,1485.03,1,0,,1,1485.031,1485.031,1485.032,1486.506,0,45,45,45,1,0.2,0.8,0.8,0.2,1,0,,,,,,,,,,,,,,,,,,,,,,,,,,,,,,,,,,,,
,,66c086c91cd54d5495701e9b,66fce21cf30a818a71481d4f,2024-10-01_23h05.44.786,mdp,2024.2.1,Win32,20.00080003,66fa4ebf79326e780c390304,,,,,,,,,,,,,,,,,,,,,1486.507,1486.507,1486.508,1490.313,0,0,left,3.239,,1490.334,1490.336,1,0,,1490.337,1490.338,1,1,,1,1490.338,1490.338,1490.34,1491.832,0,46,46,46,1,0.2,0.8,0.8,0.2,1,0,,,,,,,,,,,,,,,,,,,,,,,,,,,,,,,,,,,,
,,66c086c91cd54d5495701e9b,66fce21cf30a818a71481d4f,2024-10-01_23h05.44.786,mdp,2024.2.1,Win32,20.00080003,66fa4ebf79326e780c390304,,,,,,,,,,,,,,,,,,,,,1491.833,1491.833,1491.835,1492.415,0,1,left,0.001,,1492.417,1492.418,1,1,,1492.42,1492.422,1,0,,0,1492.422,1492.422,1492.423,1493.924,0,47,47,47,1,0.2,0.8,0.8,0.2,1,0,,,,,,,,,,,,,,,,,,,,,,,,,,,,,,,,,,,,
,,66c086c91cd54d5495701e9b,66fce21cf30a818a71481d4f,2024-10-01_23h05.44.786,mdp,2024.2.1,Win32,20.00080003,66fa4ebf79326e780c390304,,,,,,,,,,,,,,,,,,,,,1493.925,1493.925,1493.927,1494.55,1,0,right,0.057,,1494.553,1494.555,1,0,,1494.556,1494.558,1,0,,1,1494.558,1494.558,1494.56,1496.064,0,48,48,48,1,0.2,0.8,0.8,0.2,1,0,,,,,,,,,,,,,,,,,,,,,,,,,,,,,,,,,,,,
,,66c086c91cd54d5495701e9b,66fce21cf30a818a71481d4f,2024-10-01_23h05.44.786,mdp,2024.2.1,Win32,20.00080003,66fa4ebf79326e780c390304,,,,,,,,,,,,,,,,,,,,,1496.065,1496.065,1496.067,1497.246,0,1,left,0.62,,1497.247,1497.249,1,1,,1497.25,1497.252,1,1,,0,1497.252,1497.252,1497.254,1498.739,0,49,49,49,1,0.2,0.8,0.8,0.2,1,0,,,,,,,,,,,,,,,,,,,,,,,,,,,,,,,,,,,,
