init_exp.started,init_exp.stopped,participant,session,date,expName,psychopyVersion,OS,frameRate,study_id,disp_instruction.started,disp_instruction.stopped,instruction.thisRepN,instruction.thisTrialN,instruction.thisN,instruction.thisIndex,instruction.ran,instimg_path,consent.started,consent.stopped,key_resp_3.keys,key_resp_3.rt,key_resp_3.duration,n_steps,sequence_path,init_block.started,init_block.stopped,key_resp.keys,key_resp.rt,key_resp.duration,init_trials.started,init_trials.stopped,step0.started,step0.stopped,act0,s1,res0.keys,res0.rt,res0.duration,step1.started,step1.stopped,act1,s2,res1.keys,step2.started,step2.stopped,act2,s3,res2.keys,rew,reward_comp.started,reward_comp.stopped,reward_disp.started,reward_disp.stopped,trials.thisRepN,trials.thisTrialN,trials.thisN,trials.thisIndex,trials.ran,s00a0s10,s00a0s11,s00a1s10,s00a1s11,rew10,rew11,break_block.started,break_block.stopped,block.thisRepN,block.thisTrialN,block.thisN,block.thisIndex,block.ran,s00path,s10path,s11path,s20path,s21path,res1.rt,res1.duration,s10a0s20,s10a0s21,s10a1s20,s10a1s21,s11a0s20,s11a0s21,s11a1s20,s11a1s21,rew20,rew21,res2.rt,res2.duration,s20a0s30,s20a0s31,s20a1s30,s20a1s31,s21a0s30,s21a0s31,s21a1s30,s21a1s31,rew30,rew31
9.99999E-05,0.0009,66c34db91daa2cac0b579ee5,66fc98794744beadf84be40f,2024-10-02_01h49.51.150,mdp,2024.2.1,Win32,60.97560976,66fa4ebf79326e780c390304,,,,,,,,,,,,,,,,,,,,,,,,,,,,,,,,,,,,,,,,,,,,,,,,,,,,,,,,,,,,,,,,,,,,,,,,,,,,,,,,,,,,,,,,,,,
,,66c34db91daa2cac0b579ee5,66fc98794744beadf84be40f,2024-10-02_01h49.51.150,mdp,2024.2.1,Win32,60.97560976,66fa4ebf79326e780c390304,0.0037,33.6165,0,0,0,0,1,rlnn_exp/rlnn_exp.001.png,,,,,,,,,,,,,,,,,,,,,,,,,,,,,,,,,,,,,,,,,,,,,,,,,,,,,,,,,,,,,,,,,,,,,,,,,,,,,,,,,,,
,,66c34db91daa2cac0b579ee5,66fc98794744beadf84be40f,2024-10-02_01h49.51.150,mdp,2024.2.1,Win32,60.97560976,66fa4ebf79326e780c390304,33.6181,51.2972,0,1,1,1,1,rlnn_exp/rlnn_exp.002.png,,,,,,,,,,,,,,,,,,,,,,,,,,,,,,,,,,,,,,,,,,,,,,,,,,,,,,,,,,,,,,,,,,,,,,,,,,,,,,,,,,,
,,66c34db91daa2cac0b579ee5,66fc98794744beadf84be40f,2024-10-02_01h49.51.150,mdp,2024.2.1,Win32,60.97560976,66fa4ebf79326e780c390304,51.298,69.8965,0,2,2,2,1,rlnn_exp/rlnn_exp.003.png,,,,,,,,,,,,,,,,,,,,,,,,,,,,,,,,,,,,,,,,,,,,,,,,,,,,,,,,,,,,,,,,,,,,,,,,,,,,,,,,,,,
,,66c34db91daa2cac0b579ee5,66fc98794744beadf84be40f,2024-10-02_01h49.51.150,mdp,2024.2.1,Win32,60.97560976,66fa4ebf79326e780c390304,69.8973,84.9793,0,3,3,3,1,rlnn_exp/rlnn_exp.004.png,,,,,,,,,,,,,,,,,,,,,,,,,,,,,,,,,,,,,,,,,,,,,,,,,,,,,,,,,,,,,,,,,,,,,,,,,,,,,,,,,,,
,,66c34db91daa2cac0b579ee5,66fc98794744beadf84be40f,2024-10-02_01h49.51.150,mdp,2024.2.1,Win32,60.97560976,66fa4ebf79326e780c390304,,,,,,,,,84.9802,97.8783,y,2.8614,,,,,,,,,,,,,,,,,,,,,,,,,,,,,,,,,,,,,,,,,,,,,,,,,,,,,,,,,,,,,,,,,,,,,,,,,,,,,,,
,,66c34db91daa2cac0b579ee5,66fc98794744beadf84be40f,2024-10-02_01h49.51.150,mdp,2024.2.1,Win32,60.97560976,66fa4ebf79326e780c390304,,,,,,,,,,,,,,1,seqs/st1seq11.csv,97.8818,100.3957,space,1.9842,,100.4044,100.4048,100.4057,111.2121,0,0,left,10.2885,,111.2132,111.2169,,0,,111.2179,111.2207,,0,,1,111.2209,111.2211,111.2216,112.7116,0,0,0,0,1,0.8,0.2,0.4,0.6,1,0,,,,,,,,,,,,,,,,,,,,,,,,,,,,,,,,,,,,
,,66c34db91daa2cac0b579ee5,66fc98794744beadf84be40f,2024-10-02_01h49.51.150,mdp,2024.2.1,Win32,60.97560976,66fa4ebf79326e780c390304,,,,,,,,,,,,,,,,,,,,,112.7125,112.7125,112.7143,114.7279,0,1,left,1.4867,,114.7303,114.7318,,1,,114.7331,114.7343,,1,,0,114.7344,114.7344,114.7355,116.2279,0,1,1,1,1,0.6,0.4,0.8,0.2,1,0,,,,,,,,,,,,,,,,,,,,,,,,,,,,,,,,,,,,
,,66c34db91daa2cac0b579ee5,66fc98794744beadf84be40f,2024-10-02_01h49.51.150,mdp,2024.2.1,Win32,60.97560976,66fa4ebf79326e780c390304,,,,,,,,,,,,,,,,,,,,,116.2286,116.2287,116.2313,117.8615,0,1,left,1.1009,,117.8633,117.8647,,1,,117.8661,117.8673,,1,,0,117.8674,117.8674,117.8686,119.3612,0,2,2,2,1,0.2,0.8,0.6,0.4,1,0,,,,,,,,,,,,,,,,,,,,,,,,,,,,,,,,,,,,
,,66c34db91daa2cac0b579ee5,66fc98794744beadf84be40f,2024-10-02_01h49.51.150,mdp,2024.2.1,Win32,60.97560976,66fa4ebf79326e780c390304,,,,,,,,,,,,,,,,,,,,,119.3619,119.3619,119.3649,120.3774,1,1,right,0.4838,,120.3783,120.3789,,0,,120.3796,120.38,,1,,0,120.3802,120.3802,120.3806,121.8775,0,3,3,3,1,0.2,0.8,0.6,0.4,1,0,,,,,,,,,,,,,,,,,,,,,,,,,,,,,,,,,,,,
,,66c34db91daa2cac0b579ee5,66fc98794744beadf84be40f,2024-10-02_01h49.51.150,mdp,2024.2.1,Win32,60.97560976,66fa4ebf79326e780c390304,,,,,,,,,,,,,,,,,,,,,121.8782,121.8782,121.8801,122.8275,0,1,left,0.4174,,122.8292,122.8304,,1,,122.8317,122.8328,,1,,0,122.8329,122.8329,122.8339,124.3273,0,4,4,4,1,0.2,0.8,0.6,0.4,1,0,,,,,,,,,,,,,,,,,,,,,,,,,,,,,,,,,,,,
,,66c34db91daa2cac0b579ee5,66fc98794744beadf84be40f,2024-10-02_01h49.51.150,mdp,2024.2.1,Win32,60.97560976,66fa4ebf79326e780c390304,,,,,,,,,,,,,,,,,,,,,124.3279,124.328,124.331,124.8773,0,0,left,0.0175,,124.8791,124.8804,,0,,124.8818,124.8829,,1,,1,124.8831,124.8831,124.8842,126.3772,0,5,5,5,1,0.2,0.8,0.6,0.4,1,0,,,,,,,,,,,,,,,,,,,,,,,,,,,,,,,,,,,,
,,66c34db91daa2cac0b579ee5,66fc98794744beadf84be40f,2024-10-02_01h49.51.150,mdp,2024.2.1,Win32,60.97560976,66fa4ebf79326e780c390304,,,,,,,,,,,,,,,,,,,,,126.3781,126.3781,126.3808,127.6608,0,1,left,0.7524,,127.6625,127.6637,,1,,127.6651,127.6661,,1,,0,127.6661,127.6662,127.6672,129.1608,0,6,6,6,1,0.2,0.8,0.6,0.4,1,0,,,,,,,,,,,,,,,,,,,,,,,,,,,,,,,,,,,,
,,66c34db91daa2cac0b579ee5,66fc98794744beadf84be40f,2024-10-02_01h49.51.150,mdp,2024.2.1,Win32,60.97560976,66fa4ebf79326e780c390304,,,,,,,,,,,,,,,,,,,,,129.1615,129.1615,129.1647,130.5768,0,1,left,0.8936,,130.5783,130.5794,,1,,130.5805,130.5813,,0,,0,130.5814,130.5815,130.5823,132.0767,0,7,7,7,1,0.2,0.8,0.6,0.4,1,0,,,,,,,,,,,,,,,,,,,,,,,,,,,,,,,,,,,,
,,66c34db91daa2cac0b579ee5,66fc98794744beadf84be40f,2024-10-02_01h49.51.150,mdp,2024.2.1,Win32,60.97560976,66fa4ebf79326e780c390304,,,,,,,,,,,,,,,,,,,,,132.0771,132.0772,132.0783,132.9439,1,0,right,0.3338,,132.9459,132.9473,,0,,132.9491,132.9503,,1,,1,132.9503,132.9503,132.9515,134.4437,0,8,8,8,1,0.2,0.8,0.6,0.4,1,0,,,,,,,,,,,,,,,,,,,,,,,,,,,,,,,,,,,,
,,66c34db91daa2cac0b579ee5,66fc98794744beadf84be40f,2024-10-02_01h49.51.150,mdp,2024.2.1,Win32,60.97560976,66fa4ebf79326e780c390304,,,,,,,,,,,,,,,,,,,,,134.4442,134.4443,134.446,135.2096,1,1,right,0.2417,,135.2106,135.2112,,1,,135.2117,135.2124,,1,,0,135.2124,135.2124,135.2129,136.71,0,9,9,9,1,0.6,0.4,0.2,0.8,1,0,,,,,,,,,,,,,,,,,,,,,,,,,,,,,,,,,,,,
,,66c34db91daa2cac0b579ee5,66fc98794744beadf84be40f,2024-10-02_01h49.51.150,mdp,2024.2.1,Win32,60.97560976,66fa4ebf79326e780c390304,,,,,,,,,,,,,,,,,,,,,136.7108,136.7108,136.7127,138.1102,0,0,left,0.8745,,138.1121,138.1134,,1,,138.1148,138.1161,,0,,1,138.1162,138.1162,138.1173,139.61,0,10,10,10,1,0.6,0.4,0.2,0.8,1,0,,,,,,,,,,,,,,,,,,,,,,,,,,,,,,,,,,,,
,,66c34db91daa2cac0b579ee5,66fc98794744beadf84be40f,2024-10-02_01h49.51.150,mdp,2024.2.1,Win32,60.97560976,66fa4ebf79326e780c390304,,,,,,,,,,,,,,,,,,,,,139.6106,139.6107,139.612,140.3601,0,1,left,0.2205,,140.3619,140.3632,,0,,140.3644,140.3655,,0,,0,140.3656,140.3656,140.3667,141.8601,0,11,11,11,1,0.8,0.2,0.8,0.2,1,0,,,,,,,,,,,,,,,,,,,,,,,,,,,,,,,,,,,,
,,66c34db91daa2cac0b579ee5,66fc98794744beadf84be40f,2024-10-02_01h49.51.150,mdp,2024.2.1,Win32,60.97560976,66fa4ebf79326e780c390304,,,,,,,,,,,,,,,,,,,,,141.8608,141.8608,141.8624,142.5263,0,1,left,0.1386,,142.5283,142.5294,,0,,142.5308,142.532,,0,,0,142.5321,142.5322,142.5333,144.0263,0,12,12,12,1,0.8,0.2,0.8,0.2,1,0,,,,,,,,,,,,,,,,,,,,,,,,,,,,,,,,,,,,
,,66c34db91daa2cac0b579ee5,66fc98794744beadf84be40f,2024-10-02_01h49.51.150,mdp,2024.2.1,Win32,60.97560976,66fa4ebf79326e780c390304,,,,,,,,,,,,,,,,,,,,,144.0271,144.0271,144.0288,144.5599,1,1,right,0.0008,,144.5618,144.563,,1,,144.5645,144.5656,,0,,0,144.5656,144.5656,144.5668,146.06,0,13,13,13,1,0.2,0.8,0.6,0.4,1,0,,,,,,,,,,,,,,,,,,,,,,,,,,,,,,,,,,,,
,,66c34db91daa2cac0b579ee5,66fc98794744beadf84be40f,2024-10-02_01h49.51.150,mdp,2024.2.1,Win32,60.97560976,66fa4ebf79326e780c390304,,,,,,,,,,,,,,,,,,,,,146.0605,146.0605,146.0623,147.1764,1,1,right,0.5969,,147.1782,147.1795,,0,,147.1808,147.1818,,1,,0,147.1819,147.1819,147.183,148.6764,0,14,14,14,1,0.2,0.8,0.6,0.4,1,0,,,,,,,,,,,,,,,,,,,,,,,,,,,,,,,,,,,,
,,66c34db91daa2cac0b579ee5,66fc98794744beadf84be40f,2024-10-02_01h49.51.150,mdp,2024.2.1,Win32,60.97560976,66fa4ebf79326e780c390304,,,,,,,,,,,,,,,,,,,,,148.677,148.677,148.6791,149.6261,0,1,left,0.417,,149.6277,149.6289,,1,,149.6301,149.6311,,0,,0,149.6311,149.6311,149.632,151.1255,0,15,15,15,1,0.2,0.8,0.6,0.4,1,0,,,,,,,,,,,,,,,,,,,,,,,,,,,,,,,,,,,,
,,66c34db91daa2cac0b579ee5,66fc98794744beadf84be40f,2024-10-02_01h49.51.150,mdp,2024.2.1,Win32,60.97560976,66fa4ebf79326e780c390304,,,,,,,,,,,,,,,,,,,,,151.1257,151.1257,151.1264,151.6922,0,1,left,0.0406,,151.693,151.6936,,1,,151.6943,151.6946,,0,,0,151.6947,151.6947,151.6949,153.193,0,16,16,16,1,0.2,0.8,0.6,0.4,1,0,,,,,,,,,,,,,,,,,,,,,,,,,,,,,,,,,,,,
,,66c34db91daa2cac0b579ee5,66fc98794744beadf84be40f,2024-10-02_01h49.51.150,mdp,2024.2.1,Win32,60.97560976,66fa4ebf79326e780c390304,,,,,,,,,,,,,,,,,,,,,153.1938,153.1939,153.1957,154.0929,1,0,right,0.3698,,154.0949,154.0962,,0,,154.0975,154.0989,,0,,1,154.099,154.099,154.1002,155.592,0,17,17,17,1,0.2,0.8,0.6,0.4,1,0,,,,,,,,,,,,,,,,,,,,,,,,,,,,,,,,,,,,
,,66c34db91daa2cac0b579ee5,66fc98794744beadf84be40f,2024-10-02_01h49.51.150,mdp,2024.2.1,Win32,60.97560976,66fa4ebf79326e780c390304,,,,,,,,,,,,,,,,,,,,,155.5924,155.5924,155.5929,156.3586,0,1,left,0.2602,,156.3596,156.3601,,1,,156.3607,156.3612,,1,,0,156.3612,156.3612,156.3621,157.8593,0,18,18,18,1,0.2,0.8,0.6,0.4,1,0,,,,,,,,,,,,,,,,,,,,,,,,,,,,,,,,,,,,
,,66c34db91daa2cac0b579ee5,66fc98794744beadf84be40f,2024-10-02_01h49.51.150,mdp,2024.2.1,Win32,60.97560976,66fa4ebf79326e780c390304,,,,,,,,,,,,,,,,,,,,,157.8599,157.86,157.8615,158.6259,0,1,left,0.2358,,158.6281,158.6295,,0,,158.6309,158.6319,,1,,0,158.632,158.632,158.633,160.126,0,19,19,19,1,0.2,0.8,0.6,0.4,1,0,,,,,,,,,,,,,,,,,,,,,,,,,,,,,,,,,,,,
,,66c34db91daa2cac0b579ee5,66fc98794744beadf84be40f,2024-10-02_01h49.51.150,mdp,2024.2.1,Win32,60.97560976,66fa4ebf79326e780c390304,,,,,,,,,,,,,,,,,,,,,160.1267,160.1267,160.1283,161.4424,0,0,left,0.7835,,161.4439,161.445,,1,,161.4461,161.4471,,1,,1,161.4472,161.4472,161.448,162.9424,0,20,20,20,1,0.4,0.6,0.8,0.2,1,0,,,,,,,,,,,,,,,,,,,,,,,,,,,,,,,,,,,,
,,66c34db91daa2cac0b579ee5,66fc98794744beadf84be40f,2024-10-02_01h49.51.150,mdp,2024.2.1,Win32,60.97560976,66fa4ebf79326e780c390304,,,,,,,,,,,,,,,,,,,,,162.9431,162.9431,162.9447,163.7425,0,1,left,0.2736,,163.7447,163.7458,,0,,163.7471,163.7484,,0,,0,163.7485,163.7485,163.7497,165.2423,0,21,21,21,1,0.6,0.4,0.6,0.4,1,0,,,,,,,,,,,,,,,,,,,,,,,,,,,,,,,,,,,,
,,66c34db91daa2cac0b579ee5,66fc98794744beadf84be40f,2024-10-02_01h49.51.150,mdp,2024.2.1,Win32,60.97560976,66fa4ebf79326e780c390304,,,,,,,,,,,,,,,,,,,,,165.243,165.243,165.2447,166.4582,0,0,left,0.6827,,166.4591,166.4598,,1,,166.4604,166.461,,0,,1,166.4611,166.4611,166.4616,167.9586,0,22,22,22,1,0.6,0.4,0.6,0.4,1,0,,,,,,,,,,,,,,,,,,,,,,,,,,,,,,,,,,,,
,,66c34db91daa2cac0b579ee5,66fc98794744beadf84be40f,2024-10-02_01h49.51.150,mdp,2024.2.1,Win32,60.97560976,66fa4ebf79326e780c390304,,,,,,,,,,,,,,,,,,,,,167.9593,167.9593,167.9609,168.7756,0,0,left,0.2851,,168.7774,168.7786,,0,,168.78,168.781,,0,,1,168.781,168.781,168.7821,170.2754,0,23,23,23,1,0.6,0.4,0.6,0.4,1,0,,,,,,,,,,,,,,,,,,,,,,,,,,,,,,,,,,,,
,,66c34db91daa2cac0b579ee5,66fc98794744beadf84be40f,2024-10-02_01h49.51.150,mdp,2024.2.1,Win32,60.97560976,66fa4ebf79326e780c390304,,,,,,,,,,,,,,,,,,,,,170.276,170.276,170.2778,171.0584,1,0,right,0.2593,,171.0603,171.0615,,1,,171.0628,171.0638,,0,,1,171.0639,171.064,171.0649,172.5581,0,24,24,24,1,0.6,0.4,0.6,0.4,1,0,,,,,,,,,,,,,,,,,,,,,,,,,,,,,,,,,,,,
,,66c34db91daa2cac0b579ee5,66fc98794744beadf84be40f,2024-10-02_01h49.51.150,mdp,2024.2.1,Win32,60.97560976,66fa4ebf79326e780c390304,,,,,,,,,,,,,,,,,,,,,172.5584,172.5584,172.5593,173.458,1,1,right,0.3674,,173.4593,173.46,,0,,173.461,173.4617,,0,,0,173.4618,173.4618,173.4623,174.9583,0,25,25,25,1,0.6,0.4,0.6,0.4,1,0,,,,,,,,,,,,,,,,,,,,,,,,,,,,,,,,,,,,
,,66c34db91daa2cac0b579ee5,66fc98794744beadf84be40f,2024-10-02_01h49.51.150,mdp,2024.2.1,Win32,60.97560976,66fa4ebf79326e780c390304,,,,,,,,,,,,,,,,,,,,,174.959,174.959,174.9606,176.0583,0,1,left,0.5679,,176.0598,176.0612,,0,,176.0624,176.0637,,0,,0,176.0637,176.0637,176.0647,177.5584,0,26,26,26,1,0.6,0.4,0.6,0.4,1,0,,,,,,,,,,,,,,,,,,,,,,,,,,,,,,,,,,,,
,,66c34db91daa2cac0b579ee5,66fc98794744beadf84be40f,2024-10-02_01h49.51.150,mdp,2024.2.1,Win32,60.97560976,66fa4ebf79326e780c390304,,,,,,,,,,,,,,,,,,,,,177.559,177.5591,177.5608,178.6918,1,0,right,0.6073,,178.6937,178.6948,,0,,178.696,178.6972,,1,,1,178.6972,178.6972,178.6982,180.1918,0,27,27,27,1,0.6,0.4,0.6,0.4,1,0,,,,,,,,,,,,,,,,,,,,,,,,,,,,,,,,,,,,
,,66c34db91daa2cac0b579ee5,66fc98794744beadf84be40f,2024-10-02_01h49.51.150,mdp,2024.2.1,Win32,60.97560976,66fa4ebf79326e780c390304,,,,,,,,,,,,,,,,,,,,,180.1924,180.1924,180.194,183.9746,1,1,right,3.25,,183.9762,183.9773,,0,,183.9787,183.9794,,0,,0,183.9796,183.9796,183.9805,185.4747,0,28,28,28,1,0.6,0.4,0.6,0.4,1,0,,,,,,,,,,,,,,,,,,,,,,,,,,,,,,,,,,,,
,,66c34db91daa2cac0b579ee5,66fc98794744beadf84be40f,2024-10-02_01h49.51.150,mdp,2024.2.1,Win32,60.97560976,66fa4ebf79326e780c390304,,,,,,,,,,,,,,,,,,,,,185.4754,185.4754,185.4773,186.6914,1,0,right,0.6844,,186.6933,186.6945,,0,,186.6962,186.6973,,0,,1,186.6973,186.6973,186.6984,188.1915,0,29,29,29,1,0.6,0.4,0.6,0.4,1,0,,,,,,,,,,,,,,,,,,,,,,,,,,,,,,,,,,,,
,,66c34db91daa2cac0b579ee5,66fc98794744beadf84be40f,2024-10-02_01h49.51.150,mdp,2024.2.1,Win32,60.97560976,66fa4ebf79326e780c390304,,,,,,,,,,,,,,,,,,,,,188.1921,188.1921,188.1939,189.1249,0,0,left,0.4075,,189.1269,189.1281,,0,,189.1293,189.1303,,0,,1,189.1303,189.1303,189.1314,190.6242,0,30,30,30,1,0.6,0.4,0.6,0.4,1,0,,,,,,,,,,,,,,,,,,,,,,,,,,,,,,,,,,,,
,,66c34db91daa2cac0b579ee5,66fc98794744beadf84be40f,2024-10-02_01h49.51.150,mdp,2024.2.1,Win32,60.97560976,66fa4ebf79326e780c390304,,,,,,,,,,,,,,,,,,,,,190.6248,190.6248,190.6266,191.4245,0,0,left,0.267,,191.4267,191.428,,1,,191.4292,191.4302,,0,,1,191.4302,191.4304,191.4314,192.9244,0,31,31,31,1,0.6,0.4,0.6,0.4,1,0,,,,,,,,,,,,,,,,,,,,,,,,,,,,,,,,,,,,
,,66c34db91daa2cac0b579ee5,66fc98794744beadf84be40f,2024-10-02_01h49.51.150,mdp,2024.2.1,Win32,60.97560976,66fa4ebf79326e780c390304,,,,,,,,,,,,,,,,,,,,,192.9251,192.9251,192.9269,194.0409,0,1,left,0.5854,,194.0427,194.0439,,0,,194.0453,194.0462,,1,,0,194.0462,194.0462,194.0473,195.5411,0,32,32,32,1,0.6,0.4,0.6,0.4,1,0,,,,,,,,,,,,,,,,,,,,,,,,,,,,,,,,,,,,
,,66c34db91daa2cac0b579ee5,66fc98794744beadf84be40f,2024-10-02_01h49.51.150,mdp,2024.2.1,Win32,60.97560976,66fa4ebf79326e780c390304,,,,,,,,,,,,,,,,,,,,,195.5419,195.5419,195.5438,197.2073,1,1,right,1.1374,,197.2091,197.2103,,0,,197.2114,197.2123,,1,,0,197.2124,197.2124,197.2135,198.7069,0,33,33,33,1,0.6,0.4,0.6,0.4,1,0,,,,,,,,,,,,,,,,,,,,,,,,,,,,,,,,,,,,
,,66c34db91daa2cac0b579ee5,66fc98794744beadf84be40f,2024-10-02_01h49.51.150,mdp,2024.2.1,Win32,60.97560976,66fa4ebf79326e780c390304,,,,,,,,,,,,,,,,,,,,,198.7072,198.7072,198.7081,199.5072,1,0,right,0.2675,,199.5088,199.51,,0,,199.5113,199.5123,,1,,1,199.5124,199.5124,199.5134,201.0072,0,34,34,34,1,0.6,0.4,0.6,0.4,1,0,,,,,,,,,,,,,,,,,,,,,,,,,,,,,,,,,,,,
,,66c34db91daa2cac0b579ee5,66fc98794744beadf84be40f,2024-10-02_01h49.51.150,mdp,2024.2.1,Win32,60.97560976,66fa4ebf79326e780c390304,,,,,,,,,,,,,,,,,,,,,201.0079,201.0079,201.0103,201.8905,1,0,right,0.3506,,201.8923,201.8935,,0,,201.8947,201.8956,,0,,1,201.8957,201.8957,201.8967,203.3906,0,35,35,35,1,0.6,0.4,0.6,0.4,1,0,,,,,,,,,,,,,,,,,,,,,,,,,,,,,,,,,,,,
,,66c34db91daa2cac0b579ee5,66fc98794744beadf84be40f,2024-10-02_01h49.51.150,mdp,2024.2.1,Win32,60.97560976,66fa4ebf79326e780c390304,,,,,,,,,,,,,,,,,,,,,203.3914,203.3914,203.393,204.3738,0,0,left,0.4493,,204.3749,204.3755,,0,,204.3765,204.3771,,1,,1,204.3772,204.3772,204.3778,205.8736,0,36,36,36,1,0.6,0.4,0.6,0.4,1,0,,,,,,,,,,,,,,,,,,,,,,,,,,,,,,,,,,,,
,,66c34db91daa2cac0b579ee5,66fc98794744beadf84be40f,2024-10-02_01h49.51.150,mdp,2024.2.1,Win32,60.97560976,66fa4ebf79326e780c390304,,,,,,,,,,,,,,,,,,,,,205.8743,205.8743,205.8759,206.6567,1,1,right,0.2526,,206.6584,206.6594,,1,,206.6606,206.6614,,0,,0,206.6615,206.6615,206.6624,208.1567,0,37,37,37,1,0.8,0.2,0.2,0.8,1,0,,,,,,,,,,,,,,,,,,,,,,,,,,,,,,,,,,,,
,,66c34db91daa2cac0b579ee5,66fc98794744beadf84be40f,2024-10-02_01h49.51.150,mdp,2024.2.1,Win32,60.97560976,66fa4ebf79326e780c390304,,,,,,,,,,,,,,,,,,,,,208.1573,208.1573,208.1589,208.7068,1,1,right,0.0264,,208.7085,208.7097,,1,,208.7111,208.712,,1,,0,208.7121,208.7121,208.7131,210.2066,0,38,38,38,1,0.8,0.2,0.2,0.8,1,0,,,,,,,,,,,,,,,,,,,,,,,,,,,,,,,,,,,,
,,66c34db91daa2cac0b579ee5,66fc98794744beadf84be40f,2024-10-02_01h49.51.150,mdp,2024.2.1,Win32,60.97560976,66fa4ebf79326e780c390304,,,,,,,,,,,,,,,,,,,,,210.2071,210.2071,210.2092,211.1402,1,0,right,0.4007,,211.1419,211.1431,,1,,211.1448,211.1458,,1,,1,211.1458,211.1458,211.1469,212.6401,0,39,39,39,1,0.8,0.2,0.2,0.8,1,0,,,,,,,,,,,,,,,,,,,,,,,,,,,,,,,,,,,,
,,66c34db91daa2cac0b579ee5,66fc98794744beadf84be40f,2024-10-02_01h49.51.150,mdp,2024.2.1,Win32,60.97560976,66fa4ebf79326e780c390304,,,,,,,,,,,,,,,,,,,,,212.6407,212.6408,212.6457,213.2401,0,0,left,0.0672,,213.242,213.2431,,0,,213.2445,213.2454,,0,,1,213.2455,213.2455,213.2465,214.7399,0,40,40,40,1,0.8,0.2,0.2,0.8,1,0,,,,,,,,,,,,,,,,,,,,,,,,,,,,,,,,,,,,
,,66c34db91daa2cac0b579ee5,66fc98794744beadf84be40f,2024-10-02_01h49.51.150,mdp,2024.2.1,Win32,60.97560976,66fa4ebf79326e780c390304,,,,,,,,,,,,,,,,,,,,,214.7405,214.7405,214.7419,215.2897,1,1,right,0.0264,,215.2913,215.2924,,0,,215.2936,215.2945,,0,,0,215.2946,215.2946,215.2957,216.7898,0,41,41,41,1,0.2,0.8,0.6,0.4,1,0,,,,,,,,,,,,,,,,,,,,,,,,,,,,,,,,,,,,
,,66c34db91daa2cac0b579ee5,66fc98794744beadf84be40f,2024-10-02_01h49.51.150,mdp,2024.2.1,Win32,60.97560976,66fa4ebf79326e780c390304,,,,,,,,,,,,,,,,,,,,,216.7905,216.7905,216.792,217.6564,0,0,left,0.3451,,217.6581,217.6592,,1,,217.6604,217.6614,,0,,1,217.6614,217.6615,217.6625,219.1562,0,42,42,42,1,0.6,0.4,0.8,0.2,1,0,,,,,,,,,,,,,,,,,,,,,,,,,,,,,,,,,,,,
,,66c34db91daa2cac0b579ee5,66fc98794744beadf84be40f,2024-10-02_01h49.51.150,mdp,2024.2.1,Win32,60.97560976,66fa4ebf79326e780c390304,,,,,,,,,,,,,,,,,,,,,219.1568,219.1568,219.1589,220.1896,0,1,left,0.5002,,220.1914,220.1925,,1,,220.1937,220.1947,,1,,0,220.1948,220.1948,220.1958,221.6895,0,43,43,43,1,0.6,0.4,0.8,0.2,1,0,,,,,,,,,,,,,,,,,,,,,,,,,,,,,,,,,,,,
,,66c34db91daa2cac0b579ee5,66fc98794744beadf84be40f,2024-10-02_01h49.51.150,mdp,2024.2.1,Win32,60.97560976,66fa4ebf79326e780c390304,,,,,,,,,,,,,,,,,,,,,221.69,221.6901,221.6917,222.7062,0,1,left,0.493,,222.708,222.7094,,1,,222.7109,222.7122,,1,,0,222.7123,222.7123,222.7133,224.2061,0,44,44,44,1,0.6,0.4,0.8,0.2,1,0,,,,,,,,,,,,,,,,,,,,,,,,,,,,,,,,,,,,
,,66c34db91daa2cac0b579ee5,66fc98794744beadf84be40f,2024-10-02_01h49.51.150,mdp,2024.2.1,Win32,60.97560976,66fa4ebf79326e780c390304,,,,,,,,,,,,,,,,,,,,,224.2067,224.2067,224.2085,225.0728,0,1,left,0.3348,,225.0742,225.0749,,1,,225.0759,225.0766,,0,,0,225.0767,225.0767,225.0775,226.5726,0,45,45,45,1,0.6,0.4,0.8,0.2,1,0,,,,,,,,,,,,,,,,,,,,,,,,,,,,,,,,,,,,
,,66c34db91daa2cac0b579ee5,66fc98794744beadf84be40f,2024-10-02_01h49.51.150,mdp,2024.2.1,Win32,60.97560976,66fa4ebf79326e780c390304,,,,,,,,,,,,,,,,,,,,,226.5734,226.5735,226.5753,227.3729,0,0,left,0.2675,,227.3748,227.3759,,1,,227.3771,227.378,,0,,1,227.3781,227.3781,227.3791,228.8727,0,46,46,46,1,0.6,0.4,0.8,0.2,1,0,,,,,,,,,,,,,,,,,,,,,,,,,,,,,,,,,,,,
,,66c34db91daa2cac0b579ee5,66fc98794744beadf84be40f,2024-10-02_01h49.51.150,mdp,2024.2.1,Win32,60.97560976,66fa4ebf79326e780c390304,,,,,,,,,,,,,,,,,,,,,228.8735,228.8735,228.8752,229.7227,0,0,left,0.3173,,229.7242,229.7253,,0,,229.7264,229.7273,,0,,1,229.7273,229.7273,229.7281,231.2227,0,47,47,47,1,0.6,0.4,0.8,0.2,1,0,,,,,,,,,,,,,,,,,,,,,,,,,,,,,,,,,,,,
,,66c34db91daa2cac0b579ee5,66fc98794744beadf84be40f,2024-10-02_01h49.51.150,mdp,2024.2.1,Win32,60.97560976,66fa4ebf79326e780c390304,,,,,,,,,,,,,,,,,,,,,231.2235,231.2236,231.2256,232.0053,1,0,right,0.2487,,232.0062,232.0067,,1,,232.0075,232.008,,1,,1,232.008,232.008,232.0085,233.5057,0,48,48,48,1,0.6,0.4,0.8,0.2,1,0,,,,,,,,,,,,,,,,,,,,,,,,,,,,,,,,,,,,
,,66c34db91daa2cac0b579ee5,66fc98794744beadf84be40f,2024-10-02_01h49.51.150,mdp,2024.2.1,Win32,60.97560976,66fa4ebf79326e780c390304,,,,,,,,,,,,,,,,,,,,,233.5064,233.5064,233.5083,234.4058,0,1,left,0.3692,,234.4076,234.4086,,0,,234.4097,234.4107,,0,,0,234.4108,234.4108,234.4118,235.9053,0,49,49,49,1,0.8,0.2,0.6,0.4,1,0,,,,,,,,,,,,,,,,,,,,,,,,,,,,,,,,,,,,
,,66c34db91daa2cac0b579ee5,66fc98794744beadf84be40f,2024-10-02_01h49.51.150,mdp,2024.2.1,Win32,60.97560976,66fa4ebf79326e780c390304,,,,,,,,,,,,,,,,,,,,,,,,,,,,,,,,,,,,,,,,,,,,,,,,,,,,,,,,235.9062,294.4199,0,0,0,7,1,imgs/goat.png,imgs/pig.png,imgs/squirrel.png,imgs/dog.png,imgs/cat.png,,,,,,,,,,,,,,,,,,,,,,,,
,,66c34db91daa2cac0b579ee5,66fc98794744beadf84be40f,2024-10-02_01h49.51.150,mdp,2024.2.1,Win32,60.97560976,66fa4ebf79326e780c390304,,,,,,,,,,,,,,2,seqs/st2seq25.csv,294.4222,297.5522,space,2.6099,,297.5575,297.5575,297.558,298.9525,0,0,left,0.7987,,298.9531,300.3359,1,0,right,300.3365,300.337,,0,,1,300.337,300.337,300.3375,301.8356,0,0,0,0,1,0.6,0.4,0.4,0.6,,,,,,,,,,,,,,,0.8452,,0.2,0.8,0.8,0.2,0.4,0.6,0.8,0.2,1,0,,,,,,,,,,,,
,,66c34db91daa2cac0b579ee5,66fc98794744beadf84be40f,2024-10-02_01h49.51.150,mdp,2024.2.1,Win32,60.97560976,66fa4ebf79326e780c390304,,,,,,,,,,,,,,,,,,,,,301.8358,301.8358,301.8363,303.1017,1,1,right,0.7477,,303.1023,303.8855,0,1,left,303.8866,303.8875,,0,,0,303.8875,303.8875,303.8884,305.3852,0,1,1,1,1,0.6,0.4,0.4,0.6,,,,,,,,,,,,,,,0.2624,,0.2,0.8,0.8,0.2,0.4,0.6,0.8,0.2,1,0,,,,,,,,,,,,
,,66c34db91daa2cac0b579ee5,66fc98794744beadf84be40f,2024-10-02_01h49.51.150,mdp,2024.2.1,Win32,60.97560976,66fa4ebf79326e780c390304,,,,,,,,,,,,,,,,,,,,,305.3856,305.3856,305.3865,306.3023,0,0,left,0.3876,,306.3028,307.2851,1,0,right,307.2858,307.2863,,0,,1,307.2863,307.2863,307.2867,308.7853,0,2,2,2,1,0.8,0.2,0.8,0.2,,,,,,,,,,,,,,,0.4479,,0.2,0.8,0.8,0.2,0.4,0.6,0.8,0.2,1,0,,,,,,,,,,,,
,,66c34db91daa2cac0b579ee5,66fc98794744beadf84be40f,2024-10-02_01h49.51.150,mdp,2024.2.1,Win32,60.97560976,66fa4ebf79326e780c390304,,,,,,,,,,,,,,,,,,,,,308.7855,308.7856,308.7862,309.7018,0,1,left,0.3838,,309.7026,310.519,0,0,left,310.5209,310.5225,,0,,1,310.5227,310.5227,310.5243,312.018,0,3,3,3,1,0.8,0.2,0.8,0.2,,,,,,,,,,,,,,,0.2799,,0.2,0.8,0.8,0.2,0.4,0.6,0.8,0.2,1,0,,,,,,,,,,,,
,,66c34db91daa2cac0b579ee5,66fc98794744beadf84be40f,2024-10-02_01h49.51.150,mdp,2024.2.1,Win32,60.97560976,66fa4ebf79326e780c390304,,,,,,,,,,,,,,,,,,,,,312.0182,312.0183,312.0189,312.852,0,1,left,0.3177,,312.8539,313.9682,0,1,left,313.9689,313.9695,,1,,0,313.9695,313.9695,313.9701,315.4684,0,4,4,4,1,0.8,0.2,0.8,0.2,,,,,,,,,,,,,,,0.5936,,0.2,0.8,0.8,0.2,0.4,0.6,0.8,0.2,1,0,,,,,,,,,,,,
,,66c34db91daa2cac0b579ee5,66fc98794744beadf84be40f,2024-10-02_01h49.51.150,mdp,2024.2.1,Win32,60.97560976,66fa4ebf79326e780c390304,,,,,,,,,,,,,,,,,,,,,315.4689,315.4689,315.4703,316.3686,0,0,left,0.3677,,316.3703,318.0513,1,0,right,318.0519,318.0524,,1,,1,318.0524,318.0524,318.0531,319.5519,0,5,5,5,1,0.8,0.2,0.8,0.2,,,,,,,,,,,,,,,1.1519,,0.2,0.8,0.8,0.2,0.4,0.6,0.8,0.2,1,0,,,,,,,,,,,,
,,66c34db91daa2cac0b579ee5,66fc98794744beadf84be40f,2024-10-02_01h49.51.150,mdp,2024.2.1,Win32,60.97560976,66fa4ebf79326e780c390304,,,,,,,,,,,,,,,,,,,,,319.5526,319.5526,319.5543,320.8844,0,0,left,0.8057,,320.8849,322.2854,1,0,right,322.2874,322.2886,,0,,1,322.2887,322.2887,322.2899,323.7848,0,6,6,6,1,0.8,0.2,0.8,0.2,,,,,,,,,,,,,,,0.8696,,0.2,0.8,0.8,0.2,0.4,0.6,0.8,0.2,1,0,,,,,,,,,,,,
,,66c34db91daa2cac0b579ee5,66fc98794744beadf84be40f,2024-10-02_01h49.51.150,mdp,2024.2.1,Win32,60.97560976,66fa4ebf79326e780c390304,,,,,,,,,,,,,,,,,,,,,323.7852,323.7852,323.7861,324.8015,0,0,left,0.4849,,324.8035,326.1179,1,0,right,326.1191,326.1198,,0,,1,326.1199,326.1199,326.1208,327.6178,0,7,7,7,1,0.8,0.2,0.8,0.2,,,,,,,,,,,,,,,0.7896,,0.2,0.8,0.8,0.2,0.4,0.6,0.8,0.2,1,0,,,,,,,,,,,,
,,66c34db91daa2cac0b579ee5,66fc98794744beadf84be40f,2024-10-02_01h49.51.150,mdp,2024.2.1,Win32,60.97560976,66fa4ebf79326e780c390304,,,,,,,,,,,,,,,,,,,,,327.6185,327.6186,327.6201,328.5339,0,0,left,0.3884,,328.5346,329.601,1,0,right,329.6015,329.6017,,0,,1,329.6018,329.6018,329.6022,331.1004,0,8,8,8,1,0.8,0.2,0.8,0.2,,,,,,,,,,,,,,,0.5581,,0.2,0.8,0.8,0.2,0.4,0.6,0.8,0.2,1,0,,,,,,,,,,,,
,,66c34db91daa2cac0b579ee5,66fc98794744beadf84be40f,2024-10-02_01h49.51.150,mdp,2024.2.1,Win32,60.97560976,66fa4ebf79326e780c390304,,,,,,,,,,,,,,,,,,,,,331.1006,331.1006,331.1013,332.0505,0,1,left,0.4179,,332.0512,333.301,0,0,left,333.3019,333.3025,,0,,1,333.3025,333.3025,333.3031,334.8012,0,9,9,9,1,0.8,0.2,0.8,0.2,,,,,,,,,,,,,,,0.7148,,0.2,0.8,0.8,0.2,0.4,0.6,0.8,0.2,1,0,,,,,,,,,,,,
,,66c34db91daa2cac0b579ee5,66fc98794744beadf84be40f,2024-10-02_01h49.51.150,mdp,2024.2.1,Win32,60.97560976,66fa4ebf79326e780c390304,,,,,,,,,,,,,,,,,,,,,334.802,334.802,334.8037,335.6679,0,0,left,0.3416,,335.6698,336.7337,1,0,right,336.7342,336.7347,,1,,1,336.7347,336.7348,336.7352,338.234,0,10,10,10,1,0.8,0.2,0.8,0.2,,,,,,,,,,,,,,,0.5365,,0.2,0.8,0.8,0.2,0.4,0.6,0.8,0.2,1,0,,,,,,,,,,,,
,,66c34db91daa2cac0b579ee5,66fc98794744beadf84be40f,2024-10-02_01h49.51.150,mdp,2024.2.1,Win32,60.97560976,66fa4ebf79326e780c390304,,,,,,,,,,,,,,,,,,,,,338.2343,338.2343,338.2355,339.1008,0,1,left,0.3327,,339.1015,340.2502,0,0,left,340.2511,340.2515,,0,,1,340.2516,340.2516,340.2522,341.7505,0,11,11,11,1,0.8,0.2,0.8,0.2,,,,,,,,,,,,,,,0.6179,,0.2,0.8,0.8,0.2,0.4,0.6,0.8,0.2,1,0,,,,,,,,,,,,
,,66c34db91daa2cac0b579ee5,66fc98794744beadf84be40f,2024-10-02_01h49.51.150,mdp,2024.2.1,Win32,60.97560976,66fa4ebf79326e780c390304,,,,,,,,,,,,,,,,,,,,,341.751,341.7511,341.7524,342.6331,0,1,left,0.3491,,342.6337,343.7837,0,1,left,343.7851,343.786,,0,,0,343.786,343.786,343.787,345.2841,0,12,12,12,1,0.2,0.8,0.6,0.4,,,,,,,,,,,,,,,0.633,,0.2,0.8,0.8,0.2,0.4,0.6,0.8,0.2,1,0,,,,,,,,,,,,
,,66c34db91daa2cac0b579ee5,66fc98794744beadf84be40f,2024-10-02_01h49.51.150,mdp,2024.2.1,Win32,60.97560976,66fa4ebf79326e780c390304,,,,,,,,,,,,,,,,,,,,,345.2847,345.2848,345.2864,346.1507,0,1,left,0.3339,,346.1527,347.7338,0,0,left,347.7344,347.7348,,1,,1,347.7348,347.7348,347.7353,349.234,0,13,13,13,1,0.2,0.8,0.6,0.4,,,,,,,,,,,,,,,1.0561,,0.2,0.8,0.8,0.2,0.4,0.6,0.8,0.2,1,0,,,,,,,,,,,,
,,66c34db91daa2cac0b579ee5,66fc98794744beadf84be40f,2024-10-02_01h49.51.150,mdp,2024.2.1,Win32,60.97560976,66fa4ebf79326e780c390304,,,,,,,,,,,,,,,,,,,,,349.2347,349.2347,349.2366,350.0164,0,0,left,0.2621,,350.0174,351.1163,1,0,right,351.1168,351.1172,,0,,1,351.1172,351.1172,351.1177,352.6169,0,14,14,14,1,0.2,0.8,0.6,0.4,,,,,,,,,,,,,,,0.5647,,0.2,0.8,0.8,0.2,0.4,0.6,0.8,0.2,1,0,,,,,,,,,,,,
,,66c34db91daa2cac0b579ee5,66fc98794744beadf84be40f,2024-10-02_01h49.51.150,mdp,2024.2.1,Win32,60.97560976,66fa4ebf79326e780c390304,,,,,,,,,,,,,,,,,,,,,352.6178,352.6178,352.6196,353.4167,0,1,left,0.2684,,353.4181,354.6337,0,1,left,354.6353,354.6362,,1,,0,354.6364,354.6364,354.6375,356.1336,0,15,15,15,1,0.2,0.8,0.6,0.4,,,,,,,,,,,,,,,0.6792,,0.2,0.8,0.8,0.2,0.4,0.6,0.8,0.2,1,0,,,,,,,,,,,,
,,66c34db91daa2cac0b579ee5,66fc98794744beadf84be40f,2024-10-02_01h49.51.150,mdp,2024.2.1,Win32,60.97560976,66fa4ebf79326e780c390304,,,,,,,,,,,,,,,,,,,,,356.1343,356.1343,356.1362,357.0497,0,1,left,0.3921,,357.0509,358.1837,0,1,left,358.1854,358.1866,,0,,0,358.1867,358.1867,358.188,359.6834,0,16,16,16,1,0.2,0.8,0.6,0.4,,,,,,,,,,,,,,,0.6161,,0.2,0.8,0.8,0.2,0.4,0.6,0.8,0.2,1,0,,,,,,,,,,,,
,,66c34db91daa2cac0b579ee5,66fc98794744beadf84be40f,2024-10-02_01h49.51.150,mdp,2024.2.1,Win32,60.97560976,66fa4ebf79326e780c390304,,,,,,,,,,,,,,,,,,,,,359.6841,359.6841,359.6858,360.4999,0,1,left,0.2919,,360.5017,362.3162,0,1,left,362.3176,362.3185,,1,,0,362.3185,362.3185,362.3197,363.8164,0,17,17,17,1,0.2,0.8,0.6,0.4,,,,,,,,,,,,,,,1.2918,,0.2,0.8,0.8,0.2,0.4,0.6,0.8,0.2,1,0,,,,,,,,,,,,
,,66c34db91daa2cac0b579ee5,66fc98794744beadf84be40f,2024-10-02_01h49.51.150,mdp,2024.2.1,Win32,60.97560976,66fa4ebf79326e780c390304,,,,,,,,,,,,,,,,,,,,,363.8171,363.8171,363.8187,364.5662,0,1,left,0.2243,,364.5684,365.4996,1,0,right,365.5013,365.5022,,1,,1,365.5024,365.5024,365.5034,366.9996,0,18,18,18,1,0.2,0.8,0.6,0.4,,,,,,,,,,,,,,,0.4098,,0.2,0.8,0.8,0.2,0.4,0.6,0.8,0.2,1,0,,,,,,,,,,,,
,,66c34db91daa2cac0b579ee5,66fc98794744beadf84be40f,2024-10-02_01h49.51.150,mdp,2024.2.1,Win32,60.97560976,66fa4ebf79326e780c390304,,,,,,,,,,,,,,,,,,,,,367.0003,367.0003,367.0018,367.7494,0,1,left,0.2178,,367.7509,368.6832,1,0,right,368.6849,368.6862,,0,,1,368.6863,368.6863,368.6875,370.1826,0,19,19,19,1,0.2,0.8,0.6,0.4,,,,,,,,,,,,,,,0.4007,,0.2,0.8,0.8,0.2,0.4,0.6,0.8,0.2,1,0,,,,,,,,,,,,
,,66c34db91daa2cac0b579ee5,66fc98794744beadf84be40f,2024-10-02_01h49.51.150,mdp,2024.2.1,Win32,60.97560976,66fa4ebf79326e780c390304,,,,,,,,,,,,,,,,,,,,,370.1831,370.1831,370.184,370.9493,0,1,left,0.2343,,370.9508,371.8993,1,0,right,371.9013,371.9023,,0,,1,371.9025,371.9025,371.9036,373.3991,0,20,20,20,1,0.2,0.8,0.6,0.4,,,,,,,,,,,,,,,0.4201,,0.2,0.8,0.8,0.2,0.4,0.6,0.8,0.2,1,0,,,,,,,,,,,,
,,66c34db91daa2cac0b579ee5,66fc98794744beadf84be40f,2024-10-02_01h49.51.150,mdp,2024.2.1,Win32,60.97560976,66fa4ebf79326e780c390304,,,,,,,,,,,,,,,,,,,,,373.3996,373.3997,373.401,374.1823,0,1,left,0.2489,,374.1832,375.0992,1,0,right,375.101,375.1024,,0,,1,375.1025,375.1026,375.104,376.5988,0,21,21,21,1,0.2,0.8,0.6,0.4,,,,,,,,,,,,,,,0.4015,,0.2,0.8,0.8,0.2,0.4,0.6,0.8,0.2,1,0,,,,,,,,,,,,
,,66c34db91daa2cac0b579ee5,66fc98794744beadf84be40f,2024-10-02_01h49.51.150,mdp,2024.2.1,Win32,60.97560976,66fa4ebf79326e780c390304,,,,,,,,,,,,,,,,,,,,,376.5993,376.5993,376.6003,377.1985,0,0,left,0.0653,,377.1994,379.3981,1,1,right,379.3987,379.3991,,1,,0,379.3991,379.3991,379.3995,380.8987,0,22,22,22,1,0.2,0.8,0.6,0.4,,,,,,,,,,,,,,,1.6876,,0.4,0.6,0.2,0.8,0.4,0.6,0.8,0.2,1,0,,,,,,,,,,,,
,,66c34db91daa2cac0b579ee5,66fc98794744beadf84be40f,2024-10-02_01h49.51.150,mdp,2024.2.1,Win32,60.97560976,66fa4ebf79326e780c390304,,,,,,,,,,,,,,,,,,,,,380.8994,380.8994,380.901,381.7318,0,1,left,0.3016,,381.733,383.3654,1,0,right,383.3665,383.3671,,0,,1,383.3671,383.3671,383.3679,384.8656,0,23,23,23,1,0.2,0.8,0.6,0.4,,,,,,,,,,,,,,,1.1041,,0.4,0.6,0.2,0.8,0.4,0.6,0.8,0.2,1,0,,,,,,,,,,,,
,,66c34db91daa2cac0b579ee5,66fc98794744beadf84be40f,2024-10-02_01h49.51.150,mdp,2024.2.1,Win32,60.97560976,66fa4ebf79326e780c390304,,,,,,,,,,,,,,,,,,,,,384.8662,384.8662,384.868,385.6987,0,1,left,0.3097,,385.7005,386.8323,1,0,right,386.8341,386.8351,,1,,1,386.8352,386.8353,386.8363,388.3321,0,24,24,24,1,0.2,0.8,0.6,0.4,,,,,,,,,,,,,,,0.6028,,0.4,0.6,0.2,0.8,0.4,0.6,0.8,0.2,1,0,,,,,,,,,,,,
,,66c34db91daa2cac0b579ee5,66fc98794744beadf84be40f,2024-10-02_01h49.51.150,mdp,2024.2.1,Win32,60.97560976,66fa4ebf79326e780c390304,,,,,,,,,,,,,,,,,,,,,388.3327,388.3327,388.3344,389.0986,0,1,left,0.2431,,389.1004,390.3147,1,1,right,390.316,390.3169,,0,,0,390.317,390.317,390.3178,391.8149,0,25,25,25,1,0.2,0.8,0.6,0.4,,,,,,,,,,,,,,,0.6825,,0.4,0.6,0.2,0.8,0.4,0.6,0.8,0.2,1,0,,,,,,,,,,,,
,,66c34db91daa2cac0b579ee5,66fc98794744beadf84be40f,2024-10-02_01h49.51.150,mdp,2024.2.1,Win32,60.97560976,66fa4ebf79326e780c390304,,,,,,,,,,,,,,,,,,,,,391.8157,391.8157,391.8173,392.4811,0,1,left,0.1433,,392.4819,393.982,1,1,right,393.9838,393.9848,,0,,0,393.9848,393.9848,393.986,395.4815,0,26,26,26,1,0.2,0.8,0.6,0.4,,,,,,,,,,,,,,,0.9899,,0.4,0.6,0.2,0.8,0.4,0.6,0.8,0.2,1,0,,,,,,,,,,,,
,,66c34db91daa2cac0b579ee5,66fc98794744beadf84be40f,2024-10-02_01h49.51.150,mdp,2024.2.1,Win32,60.97560976,66fa4ebf79326e780c390304,,,,,,,,,,,,,,,,,,,,,395.4821,395.4821,395.4833,396.2648,0,1,left,0.2612,,396.2667,397.2482,0,1,left,397.25,397.2511,,1,,0,397.2512,397.2512,397.2524,398.7476,0,27,27,27,1,0.2,0.8,0.6,0.4,,,,,,,,,,,,,,,0.4617,,0.4,0.6,0.2,0.8,0.4,0.6,0.8,0.2,1,0,,,,,,,,,,,,
,,66c34db91daa2cac0b579ee5,66fc98794744beadf84be40f,2024-10-02_01h49.51.150,mdp,2024.2.1,Win32,60.97560976,66fa4ebf79326e780c390304,,,,,,,,,,,,,,,,,,,,,398.7481,398.7481,398.749,399.5148,0,0,left,0.2428,,399.5168,400.7317,1,1,right,400.7336,400.7348,,1,,0,400.7349,400.7349,400.7361,402.2315,0,28,28,28,1,0.2,0.8,0.6,0.4,,,,,,,,,,,,,,,0.6762,,0.4,0.6,0.2,0.8,0.4,0.6,0.8,0.2,1,0,,,,,,,,,,,,
,,66c34db91daa2cac0b579ee5,66fc98794744beadf84be40f,2024-10-02_01h49.51.150,mdp,2024.2.1,Win32,60.97560976,66fa4ebf79326e780c390304,,,,,,,,,,,,,,,,,,,,,402.2321,402.2322,402.2339,403.0644,0,0,left,0.312,,403.0661,404.2808,1,0,right,404.2819,404.2825,,1,,1,404.2826,404.2826,404.2834,405.7813,0,29,29,29,1,0.2,0.8,0.6,0.4,,,,,,,,,,,,,,,0.7005,,0.4,0.6,0.2,0.8,0.4,0.6,0.8,0.2,1,0,,,,,,,,,,,,
,,66c34db91daa2cac0b579ee5,66fc98794744beadf84be40f,2024-10-02_01h49.51.150,mdp,2024.2.1,Win32,60.97560976,66fa4ebf79326e780c390304,,,,,,,,,,,,,,,,,,,,,405.7819,405.7819,405.7837,406.5476,0,1,left,0.233,,406.5489,407.9978,1,0,right,407.9997,408.0006,,0,,1,408.0007,408.0007,408.0021,409.4974,0,30,30,30,1,0.2,0.8,0.6,0.4,,,,,,,,,,,,,,,0.9132,,0.4,0.6,0.2,0.8,0.4,0.6,0.8,0.2,1,0,,,,,,,,,,,,
,,66c34db91daa2cac0b579ee5,66fc98794744beadf84be40f,2024-10-02_01h49.51.150,mdp,2024.2.1,Win32,60.97560976,66fa4ebf79326e780c390304,,,,,,,,,,,,,,,,,,,,,409.4981,409.4981,409.4998,410.131,0,1,left,0.1089,,410.1328,411.1476,0,1,left,411.1493,411.1504,,1,,0,411.1505,411.1505,411.1517,412.6473,0,31,31,31,1,0.2,0.8,0.6,0.4,,,,,,,,,,,,,,,0.492,,0.4,0.6,0.2,0.8,0.4,0.6,0.8,0.2,1,0,,,,,,,,,,,,
,,66c34db91daa2cac0b579ee5,66fc98794744beadf84be40f,2024-10-02_01h49.51.150,mdp,2024.2.1,Win32,60.97560976,66fa4ebf79326e780c390304,,,,,,,,,,,,,,,,,,,,,412.6483,412.6484,412.6502,413.5472,0,1,left,0.3662,,413.5487,414.6807,1,0,right,414.6824,414.6834,,0,,1,414.6835,414.6835,414.6846,416.1807,0,32,32,32,1,0.6,0.4,0.4,0.6,,,,,,,,,,,,,,,0.6112,,0.4,0.6,0.2,0.8,0.4,0.6,0.8,0.2,1,0,,,,,,,,,,,,
,,66c34db91daa2cac0b579ee5,66fc98794744beadf84be40f,2024-10-02_01h49.51.150,mdp,2024.2.1,Win32,60.97560976,66fa4ebf79326e780c390304,,,,,,,,,,,,,,,,,,,,,416.1813,416.1813,416.1829,416.9798,0,0,left,0.2644,,416.9804,418.2636,1,1,right,418.2643,418.2648,,0,,0,418.2648,418.2648,418.2652,419.7641,0,33,33,33,1,0.6,0.4,0.4,0.6,,,,,,,,,,,,,,,0.7615,,0.8,0.2,0.6,0.4,0.4,0.6,0.8,0.2,1,0,,,,,,,,,,,,
,,66c34db91daa2cac0b579ee5,66fc98794744beadf84be40f,2024-10-02_01h49.51.150,mdp,2024.2.1,Win32,60.97560976,66fa4ebf79326e780c390304,,,,,,,,,,,,,,,,,,,,,419.7647,419.7647,419.7663,420.4304,0,0,left,0.1385,,420.432,421.4805,0,0,left,421.4821,421.483,,1,,1,421.4831,421.4831,421.4841,422.98,0,34,34,34,1,0.6,0.4,0.4,0.6,,,,,,,,,,,,,,,0.5194,,0.8,0.2,0.6,0.4,0.4,0.6,0.8,0.2,1,0,,,,,,,,,,,,
,,66c34db91daa2cac0b579ee5,66fc98794744beadf84be40f,2024-10-02_01h49.51.150,mdp,2024.2.1,Win32,60.97560976,66fa4ebf79326e780c390304,,,,,,,,,,,,,,,,,,,,,422.9804,422.9804,422.9813,423.8639,0,1,left,0.3507,,423.8656,424.8968,1,0,right,424.8984,424.8993,,0,,1,424.8994,424.8994,424.9004,426.3965,0,35,35,35,1,0.6,0.4,0.4,0.6,,,,,,,,,,,,,,,0.4949,,0.8,0.2,0.6,0.4,0.4,0.6,0.8,0.2,1,0,,,,,,,,,,,,
,,66c34db91daa2cac0b579ee5,66fc98794744beadf84be40f,2024-10-02_01h49.51.150,mdp,2024.2.1,Win32,60.97560976,66fa4ebf79326e780c390304,,,,,,,,,,,,,,,,,,,,,426.3972,426.3972,426.3989,427.5134,0,1,left,0.594,,427.5149,428.3966,0,1,left,428.3981,428.3991,,1,,0,428.3991,428.3991,428.4002,429.8966,0,36,36,36,1,0.6,0.4,0.4,0.6,,,,,,,,,,,,,,,0.3504,,0.8,0.2,0.6,0.4,0.4,0.6,0.8,0.2,1,0,,,,,,,,,,,,
,,66c34db91daa2cac0b579ee5,66fc98794744beadf84be40f,2024-10-02_01h49.51.150,mdp,2024.2.1,Win32,60.97560976,66fa4ebf79326e780c390304,,,,,,,,,,,,,,,,,,,,,429.8971,429.8972,429.8989,430.6461,0,0,left,0.2209,,430.6467,431.6297,1,0,right,431.6308,431.6314,,1,,1,431.6314,431.6314,431.6322,433.1297,0,37,37,37,1,0.6,0.4,0.4,0.6,,,,,,,,,,,,,,,0.4584,,0.8,0.2,0.6,0.4,0.4,0.6,0.8,0.2,1,0,,,,,,,,,,,,
,,66c34db91daa2cac0b579ee5,66fc98794744beadf84be40f,2024-10-02_01h49.51.150,mdp,2024.2.1,Win32,60.97560976,66fa4ebf79326e780c390304,,,,,,,,,,,,,,,,,,,,,433.1303,433.1304,433.1322,434.08,0,0,left,0.4194,,434.0818,434.8797,1,0,right,434.8819,434.8837,,0,,1,434.8838,434.8838,434.8857,436.3796,0,38,38,38,1,0.6,0.4,0.4,0.6,,,,,,,,,,,,,,,0.2669,,0.8,0.2,0.6,0.4,0.4,0.6,0.8,0.2,1,0,,,,,,,,,,,,
,,66c34db91daa2cac0b579ee5,66fc98794744beadf84be40f,2024-10-02_01h49.51.150,mdp,2024.2.1,Win32,60.97560976,66fa4ebf79326e780c390304,,,,,,,,,,,,,,,,,,,,,436.3803,436.3803,436.3818,437.1464,0,0,left,0.2367,,437.1482,438.0131,0,0,left,438.0144,438.0153,,0,,1,438.0154,438.0154,438.0163,439.513,0,39,39,39,1,0.6,0.4,0.4,0.6,,,,,,,,,,,,,,,0.3345,,0.8,0.2,0.6,0.4,0.4,0.6,0.8,0.2,1,0,,,,,,,,,,,,
,,66c34db91daa2cac0b579ee5,66fc98794744beadf84be40f,2024-10-02_01h49.51.150,mdp,2024.2.1,Win32,60.97560976,66fa4ebf79326e780c390304,,,,,,,,,,,,,,,,,,,,,439.5137,439.5137,439.5154,440.0629,0,1,left,0.0171,,440.0645,440.9293,1,0,right,440.9306,440.9316,,1,,1,440.9317,440.9317,440.9326,442.4295,0,40,40,40,1,0.6,0.4,0.4,0.6,,,,,,,,,,,,,,,0.3291,,0.8,0.2,0.6,0.4,0.4,0.6,0.8,0.2,1,0,,,,,,,,,,,,
,,66c34db91daa2cac0b579ee5,66fc98794744beadf84be40f,2024-10-02_01h49.51.150,mdp,2024.2.1,Win32,60.97560976,66fa4ebf79326e780c390304,,,,,,,,,,,,,,,,,,,,,442.4302,442.4302,442.4318,443.4792,0,1,left,0.5179,,443.4805,444.3624,1,0,right,444.3638,444.3646,,0,,1,444.3647,444.3647,444.3657,445.8628,0,41,41,41,1,0.8,0.2,0.6,0.4,,,,,,,,,,,,,,,0.3501,,0.8,0.2,0.6,0.4,0.4,0.6,0.8,0.2,1,0,,,,,,,,,,,,
,,66c34db91daa2cac0b579ee5,66fc98794744beadf84be40f,2024-10-02_01h49.51.150,mdp,2024.2.1,Win32,60.97560976,66fa4ebf79326e780c390304,,,,,,,,,,,,,,,,,,,,,445.8634,445.8634,445.8654,446.6791,0,0,left,0.2898,,446.6809,447.6791,0,0,left,447.6806,447.6815,,0,,1,447.6816,447.6817,447.6827,449.1783,0,42,42,42,1,0.8,0.2,0.6,0.4,,,,,,,,,,,,,,,0.4623,,0.8,0.2,0.6,0.4,0.4,0.6,0.8,0.2,1,0,,,,,,,,,,,,
,,66c34db91daa2cac0b579ee5,66fc98794744beadf84be40f,2024-10-02_01h49.51.150,mdp,2024.2.1,Win32,60.97560976,66fa4ebf79326e780c390304,,,,,,,,,,,,,,,,,,,,,449.1786,449.1786,449.1791,449.9782,0,0,left,0.2816,,449.9788,450.9127,0,0,left,450.9144,450.9156,,1,,1,450.9156,450.9156,450.9168,452.4114,0,43,43,43,1,0.8,0.2,0.6,0.4,,,,,,,,,,,,,,,0.4191,,0.8,0.2,0.6,0.4,0.4,0.6,0.8,0.2,1,0,,,,,,,,,,,,
,,66c34db91daa2cac0b579ee5,66fc98794744beadf84be40f,2024-10-02_01h49.51.150,mdp,2024.2.1,Win32,60.97560976,66fa4ebf79326e780c390304,,,,,,,,,,,,,,,,,,,,,452.4116,452.4116,452.4123,453.2448,0,0,left,0.3214,,453.2454,454.2455,0,0,left,454.2463,454.247,,1,,1,454.247,454.247,454.2475,455.7457,0,44,44,44,1,0.8,0.2,0.6,0.4,,,,,,,,,,,,,,,0.4824,,0.8,0.2,0.6,0.4,0.4,0.6,0.8,0.2,1,0,,,,,,,,,,,,
,,66c34db91daa2cac0b579ee5,66fc98794744beadf84be40f,2024-10-02_01h49.51.150,mdp,2024.2.1,Win32,60.97560976,66fa4ebf79326e780c390304,,,,,,,,,,,,,,,,,,,,,455.7464,455.7464,455.7478,456.5283,0,1,left,0.2514,,456.5292,457.5286,1,0,right,457.5302,457.5312,,0,,1,457.5313,457.5313,457.5324,459.0278,0,45,45,45,1,0.8,0.2,0.6,0.4,,,,,,,,,,,,,,,0.4769,,0.4,0.6,0.8,0.2,0.4,0.6,0.8,0.2,1,0,,,,,,,,,,,,
,,66c34db91daa2cac0b579ee5,66fc98794744beadf84be40f,2024-10-02_01h49.51.150,mdp,2024.2.1,Win32,60.97560976,66fa4ebf79326e780c390304,,,,,,,,,,,,,,,,,,,,,459.0281,459.0281,459.0287,459.8281,0,1,left,0.284,,459.8289,460.7286,1,0,right,460.7306,460.7319,,0,,1,460.732,460.732,460.7332,462.2284,0,46,46,46,1,0.8,0.2,0.6,0.4,,,,,,,,,,,,,,,0.3845,,0.4,0.6,0.8,0.2,0.4,0.6,0.8,0.2,1,0,,,,,,,,,,,,
,,66c34db91daa2cac0b579ee5,66fc98794744beadf84be40f,2024-10-02_01h49.51.150,mdp,2024.2.1,Win32,60.97560976,66fa4ebf79326e780c390304,,,,,,,,,,,,,,,,,,,,,462.229,462.229,462.2306,463.0278,0,1,left,0.2654,,463.0286,463.9611,1,0,right,463.9616,463.9619,,0,,1,463.9619,463.9619,463.9622,465.4616,0,47,47,47,1,0.8,0.2,0.6,0.4,,,,,,,,,,,,,,,0.4177,,0.4,0.6,0.8,0.2,0.4,0.6,0.8,0.2,1,0,,,,,,,,,,,,
,,66c34db91daa2cac0b579ee5,66fc98794744beadf84be40f,2024-10-02_01h49.51.150,mdp,2024.2.1,Win32,60.97560976,66fa4ebf79326e780c390304,,,,,,,,,,,,,,,,,,,,,465.4623,465.4623,465.4641,466.2619,0,1,left,0.2675,,466.2636,467.2618,1,0,right,467.2637,467.265,,0,,1,467.2652,467.2652,467.2669,468.7615,0,48,48,48,1,0.8,0.2,0.6,0.4,,,,,,,,,,,,,,,0.4729,,0.4,0.6,0.8,0.2,0.4,0.6,0.8,0.2,1,0,,,,,,,,,,,,
,,66c34db91daa2cac0b579ee5,66fc98794744beadf84be40f,2024-10-02_01h49.51.150,mdp,2024.2.1,Win32,60.97560976,66fa4ebf79326e780c390304,,,,,,,,,,,,,,,,,,,,,468.762,468.762,468.7634,469.5615,0,0,left,0.2765,,469.5633,470.5279,0,0,left,470.5294,470.5303,,0,,1,470.5303,470.5303,470.5314,472.0281,0,49,49,49,1,0.8,0.2,0.6,0.4,,,,,,,,,,,,,,,0.4243,,0.4,0.6,0.8,0.2,0.4,0.6,0.8,0.2,1,0,,,,,,,,,,,,
,,66c34db91daa2cac0b579ee5,66fc98794744beadf84be40f,2024-10-02_01h49.51.150,mdp,2024.2.1,Win32,60.97560976,66fa4ebf79326e780c390304,,,,,,,,,,,,,,,,,,,,,,,,,,,,,,,,,,,,,,,,,,,,,,,,,,,,,,,,472.0283,507.7861,0,1,1,3,1,imgs/elephant.png,imgs/dog.png,imgs/goat.png,imgs/lion.png,imgs/pig.png,,,,,,,,,,,,,,,,,,,,,,,,
,,66c34db91daa2cac0b579ee5,66fc98794744beadf84be40f,2024-10-02_01h49.51.150,mdp,2024.2.1,Win32,60.97560976,66fa4ebf79326e780c390304,,,,,,,,,,,,,,3,seqs/st3seq8.csv,507.796,510.693,space,2.3707,,510.708,510.7081,510.7101,512.243,0,1,left,1.0043,,512.2449,513.3594,1,0,right,513.3614,514.9093,1,0,right,1,514.9095,514.9095,514.9113,516.409,0,0,0,0,1,0.2,0.8,0.6,0.4,,,,,,,,,,,,,,,0.5879,,0.6,0.4,0.2,0.8,0.6,0.4,0.8,0.2,,,1.0082,,0.6,0.4,0.8,0.2,0.8,0.2,0.8,0.2,1,0
,,66c34db91daa2cac0b579ee5,66fc98794744beadf84be40f,2024-10-02_01h49.51.150,mdp,2024.2.1,Win32,60.97560976,66fa4ebf79326e780c390304,,,,,,,,,,,,,,,,,,,,,516.4099,516.4099,516.4112,517.3594,0,1,left,0.417,,517.3617,518.3426,1,0,right,518.3444,519.3262,1,0,right,1,519.3263,519.3263,519.3281,520.8256,0,1,1,1,1,0.2,0.8,0.6,0.4,,,,,,,,,,,,,,,0.451,,0.6,0.4,0.2,0.8,0.6,0.4,0.8,0.2,,,0.4526,,0.6,0.4,0.8,0.2,0.8,0.2,0.8,0.2,1,0
,,66c34db91daa2cac0b579ee5,66fc98794744beadf84be40f,2024-10-02_01h49.51.150,mdp,2024.2.1,Win32,60.97560976,66fa4ebf79326e780c390304,,,,,,,,,,,,,,,,,,,,,520.8265,520.8266,520.8282,521.7426,0,1,left,0.3832,,521.7442,522.709,1,0,right,522.7116,523.7257,1,0,right,1,523.7259,523.7259,523.7275,525.2255,0,2,2,2,1,0.2,0.8,0.6,0.4,,,,,,,,,,,,,,,0.435,,0.6,0.4,0.2,0.8,0.6,0.4,0.8,0.2,,,0.4853,,0.6,0.4,0.8,0.2,0.8,0.2,0.8,0.2,1,0
,,66c34db91daa2cac0b579ee5,66fc98794744beadf84be40f,2024-10-02_01h49.51.150,mdp,2024.2.1,Win32,60.97560976,66fa4ebf79326e780c390304,,,,,,,,,,,,,,,,,,,,,525.2261,525.2261,525.2271,526.0758,0,1,left,0.3248,,526.0777,527.4588,1,1,right,527.4611,528.7924,0,0,left,1,528.7925,528.7925,528.7942,530.2918,0,3,3,3,1,0.2,0.8,0.6,0.4,,,,,,,,,,,,,,,0.8609,,0.6,0.4,0.2,0.8,0.6,0.4,0.8,0.2,,,0.7862,,0.6,0.4,0.8,0.2,0.4,0.6,0.6,0.4,1,0
,,66c34db91daa2cac0b579ee5,66fc98794744beadf84be40f,2024-10-02_01h49.51.150,mdp,2024.2.1,Win32,60.97560976,66fa4ebf79326e780c390304,,,,,,,,,,,,,,,,,,,,,530.2921,530.2921,530.293,531.1086,0,1,left,0.2905,,531.1104,532.1922,1,1,right,532.1941,533.1917,0,0,left,1,533.1918,533.1919,533.1937,534.6919,0,4,4,4,1,0.2,0.8,0.6,0.4,,,,,,,,,,,,,,,0.5537,,0.6,0.4,0.2,0.8,0.6,0.4,0.8,0.2,,,0.4675,,0.6,0.4,0.8,0.2,0.6,0.4,0.8,0.2,1,0
,,66c34db91daa2cac0b579ee5,66fc98794744beadf84be40f,2024-10-02_01h49.51.150,mdp,2024.2.1,Win32,60.97560976,66fa4ebf79326e780c390304,,,,,,,,,,,,,,,,,,,,,534.6928,534.6928,534.6944,535.5415,0,0,left,0.3151,,535.5424,537.692,0,0,left,537.6939,538.7577,1,0,right,1,538.7578,538.7578,538.759,540.2581,0,5,5,5,1,0.2,0.8,0.6,0.4,,,,,,,,,,,,,,,1.6188,,0.8,0.2,0.4,0.6,0.6,0.4,0.8,0.2,,,0.5232,,0.6,0.4,0.8,0.2,0.6,0.4,0.8,0.2,1,0
,,66c34db91daa2cac0b579ee5,66fc98794744beadf84be40f,2024-10-02_01h49.51.150,mdp,2024.2.1,Win32,60.97560976,66fa4ebf79326e780c390304,,,,,,,,,,,,,,,,,,,,,540.2588,540.2588,540.2604,541.0917,0,1,left,0.3007,,541.0934,542.4917,1,1,right,542.4936,543.4749,0,1,left,0,543.4751,543.4751,543.4768,544.9748,0,6,6,6,1,0.2,0.8,0.6,0.4,,,,,,,,,,,,,,,0.853,,0.8,0.2,0.4,0.6,0.6,0.4,0.8,0.2,,,0.4443,,0.6,0.4,0.8,0.2,0.6,0.4,0.8,0.2,1,0
,,66c34db91daa2cac0b579ee5,66fc98794744beadf84be40f,2024-10-02_01h49.51.150,mdp,2024.2.1,Win32,60.97560976,66fa4ebf79326e780c390304,,,,,,,,,,,,,,,,,,,,,544.9756,544.9756,544.9772,545.7915,0,1,left,0.2844,,545.7933,546.7748,1,0,right,546.7768,547.8413,1,0,right,1,547.8415,547.8415,547.8432,549.3436,0,7,7,7,1,0.2,0.8,0.6,0.4,,,,,,,,,,,,,,,0.4572,,0.8,0.2,0.4,0.6,0.6,0.4,0.8,0.2,,,0.5195,,0.6,0.4,0.8,0.2,0.6,0.4,0.8,0.2,1,0
,,66c34db91daa2cac0b579ee5,66fc98794744beadf84be40f,2024-10-02_01h49.51.150,mdp,2024.2.1,Win32,60.97560976,66fa4ebf79326e780c390304,,,,,,,,,,,,,,,,,,,,,549.3442,549.3442,549.3454,550.1412,0,1,left,0.2677,,550.1434,551.0408,1,0,right,551.0428,551.9576,0,0,left,1,551.9578,551.9578,551.9598,553.4577,0,8,8,8,1,0.2,0.8,0.6,0.4,,,,,,,,,,,,,,,0.3769,,0.8,0.2,0.4,0.6,0.6,0.4,0.8,0.2,,,0.3892,,0.6,0.4,0.8,0.2,0.6,0.4,0.8,0.2,1,0
,,66c34db91daa2cac0b579ee5,66fc98794744beadf84be40f,2024-10-02_01h49.51.150,mdp,2024.2.1,Win32,60.97560976,66fa4ebf79326e780c390304,,,,,,,,,,,,,,,,,,,,,553.4585,553.4585,553.4603,554.2246,1,1,right,0.2365,,554.2265,555.1407,1,0,right,555.1416,555.9404,0,1,left,0,555.9406,555.9406,555.9413,557.4401,0,9,9,9,1,0.2,0.8,0.6,0.4,,,,,,,,,,,,,,,0.3848,,0.8,0.2,0.4,0.6,0.6,0.4,0.8,0.2,,,0.2903,,0.2,0.8,0.2,0.8,0.6,0.4,0.8,0.2,1,0
,,66c34db91daa2cac0b579ee5,66fc98794744beadf84be40f,2024-10-02_01h49.51.150,mdp,2024.2.1,Win32,60.97560976,66fa4ebf79326e780c390304,,,,,,,,,,,,,,,,,,,,,557.4407,557.4407,557.4414,558.2571,0,0,left,0.2947,,558.2589,559.1409,0,0,left,559.1428,559.9232,1,1,right,0,559.9233,559.9233,559.9242,561.4237,0,10,10,10,1,0.2,0.8,0.6,0.4,,,,,,,,,,,,,,,0.3359,,0.8,0.2,0.4,0.6,0.6,0.4,0.8,0.2,,,0.2487,,0.2,0.8,0.2,0.8,0.6,0.4,0.8,0.2,1,0
,,66c34db91daa2cac0b579ee5,66fc98794744beadf84be40f,2024-10-02_01h49.51.150,mdp,2024.2.1,Win32,60.97560976,66fa4ebf79326e780c390304,,,,,,,,,,,,,,,,,,,,,561.4241,561.4241,561.4249,562.2572,0,1,left,0.3015,,562.2591,563.0739,1,0,right,563.0758,563.9073,0,1,left,0,563.9075,563.9075,563.9093,565.4067,0,11,11,11,1,0.2,0.8,0.6,0.4,,,,,,,,,,,,,,,0.2796,,0.8,0.2,0.4,0.6,0.6,0.4,0.8,0.2,,,0.3014,,0.2,0.8,0.2,0.8,0.6,0.4,0.8,0.2,1,0
,,66c34db91daa2cac0b579ee5,66fc98794744beadf84be40f,2024-10-02_01h49.51.150,mdp,2024.2.1,Win32,60.97560976,66fa4ebf79326e780c390304,,,,,,,,,,,,,,,,,,,,,565.4076,565.4077,565.4095,566.2736,0,1,left,0.3434,,566.2756,567.5067,0,1,left,567.5083,568.357,1,1,right,0,568.3572,568.3572,568.3596,569.8567,0,12,12,12,1,0.2,0.8,0.6,0.4,,,,,,,,,,,,,,,0.7087,,0.8,0.2,0.4,0.6,0.6,0.4,0.8,0.2,,,0.3034,,0.2,0.8,0.2,0.8,0.6,0.4,0.8,0.2,1,0
,,66c34db91daa2cac0b579ee5,66fc98794744beadf84be40f,2024-10-02_01h49.51.150,mdp,2024.2.1,Win32,60.97560976,66fa4ebf79326e780c390304,,,,,,,,,,,,,,,,,,,,,569.8576,569.8576,569.8593,570.6902,0,0,left,0.3096,,570.692,572.0239,1,1,right,572.0261,573.2566,0,0,left,1,573.2568,573.2568,573.259,574.7564,0,13,13,13,1,0.2,0.8,0.6,0.4,,,,,,,,,,,,,,,0.7855,,0.8,0.2,0.4,0.6,0.6,0.4,0.8,0.2,,,0.7013,,0.2,0.8,0.2,0.8,0.6,0.4,0.8,0.2,1,0
,,66c34db91daa2cac0b579ee5,66fc98794744beadf84be40f,2024-10-02_01h49.51.150,mdp,2024.2.1,Win32,60.97560976,66fa4ebf79326e780c390304,,,,,,,,,,,,,,,,,,,,,574.7571,574.7572,574.7589,575.7067,0,1,left,0.4168,,575.7082,576.9232,0,0,left,576.925,577.7398,1,1,right,0,577.7399,577.7399,577.7417,579.2397,0,14,14,14,1,0.2,0.8,0.6,0.4,,,,,,,,,,,,,,,0.6684,,0.2,0.8,0.2,0.8,0.6,0.4,0.8,0.2,,,0.2767,,0.2,0.8,0.2,0.8,0.6,0.4,0.8,0.2,1,0
,,66c34db91daa2cac0b579ee5,66fc98794744beadf84be40f,2024-10-02_01h49.51.150,mdp,2024.2.1,Win32,60.97560976,66fa4ebf79326e780c390304,,,,,,,,,,,,,,,,,,,,,579.2406,579.2406,579.2422,580.0223,1,0,right,0.261,,580.0232,580.8897,0,1,left,580.8914,581.8895,0,0,left,1,581.8897,581.8897,581.8915,583.3895,0,15,15,15,1,0.2,0.8,0.6,0.4,,,,,,,,,,,,,,,0.3365,,0.2,0.8,0.2,0.8,0.6,0.4,0.8,0.2,,,0.4617,,0.4,0.6,0.6,0.4,0.6,0.4,0.8,0.2,1,0
,,66c34db91daa2cac0b579ee5,66fc98794744beadf84be40f,2024-10-02_01h49.51.150,mdp,2024.2.1,Win32,60.97560976,66fa4ebf79326e780c390304,,,,,,,,,,,,,,,,,,,,,583.3904,583.3904,583.3921,584.3559,1,1,right,0.4402,,584.3575,585.5727,0,0,left,585.574,586.9393,1,0,right,1,586.9395,586.9395,586.9416,588.4391,0,16,16,16,1,0.2,0.8,0.6,0.4,,,,,,,,,,,,,,,0.6674,,0.2,0.8,0.2,0.8,0.6,0.4,0.8,0.2,,,0.836,,0.4,0.6,0.6,0.4,0.6,0.4,0.8,0.2,1,0
,,66c34db91daa2cac0b579ee5,66fc98794744beadf84be40f,2024-10-02_01h49.51.150,mdp,2024.2.1,Win32,60.97560976,66fa4ebf79326e780c390304,,,,,,,,,,,,,,,,,,,,,588.4398,588.4399,588.4417,589.2726,1,1,right,0.3113,,589.2744,590.2229,0,0,left,590.2246,591.1059,1,0,right,1,591.1059,591.106,591.1078,592.6056,0,17,17,17,1,0.2,0.8,0.6,0.4,,,,,,,,,,,,,,,0.4172,,0.2,0.8,0.2,0.8,0.6,0.4,0.8,0.2,,,0.3513,,0.4,0.6,0.6,0.4,0.6,0.4,0.8,0.2,1,0
,,66c34db91daa2cac0b579ee5,66fc98794744beadf84be40f,2024-10-02_01h49.51.150,mdp,2024.2.1,Win32,60.97560976,66fa4ebf79326e780c390304,,,,,,,,,,,,,,,,,,,,,592.6062,592.6062,592.6072,593.4725,0,1,left,0.3355,,593.4743,594.9225,1,0,right,594.9246,595.9725,1,1,right,0,595.9725,595.9725,595.974,597.4724,0,18,18,18,1,0.2,0.8,0.6,0.4,,,,,,,,,,,,,,,0.9178,,0.2,0.8,0.2,0.8,0.6,0.4,0.8,0.2,,,0.5171,,0.4,0.6,0.6,0.4,0.6,0.4,0.8,0.2,1,0
,,66c34db91daa2cac0b579ee5,66fc98794744beadf84be40f,2024-10-02_01h49.51.150,mdp,2024.2.1,Win32,60.97560976,66fa4ebf79326e780c390304,,,,,,,,,,,,,,,,,,,,,597.4732,597.4732,597.4749,598.1388,1,0,right,0.1427,,598.1404,599.0224,0,1,left,599.0243,600.2724,0,0,left,1,600.2724,600.2724,600.2733,601.7722,0,19,19,19,1,0.2,0.8,0.6,0.4,,,,,,,,,,,,,,,0.3356,,0.2,0.8,0.2,0.8,0.6,0.4,0.8,0.2,,,0.7035,,0.4,0.6,0.6,0.4,0.6,0.4,0.8,0.2,1,0
,,66c34db91daa2cac0b579ee5,66fc98794744beadf84be40f,2024-10-02_01h49.51.150,mdp,2024.2.1,Win32,60.97560976,66fa4ebf79326e780c390304,,,,,,,,,,,,,,,,,,,,,601.773,601.7731,601.7747,602.3385,0,1,left,0.0376,,602.3405,603.2721,1,1,right,603.2742,604.1718,1,1,right,0,604.1719,604.1719,604.1735,605.6716,0,20,20,20,1,0.2,0.8,0.6,0.4,,,,,,,,,,,,,,,0.3969,,0.2,0.8,0.2,0.8,0.2,0.8,0.6,0.4,,,0.3669,,0.4,0.6,0.6,0.4,0.6,0.4,0.8,0.2,1,0
,,66c34db91daa2cac0b579ee5,66fc98794744beadf84be40f,2024-10-02_01h49.51.150,mdp,2024.2.1,Win32,60.97560976,66fa4ebf79326e780c390304,,,,,,,,,,,,,,,,,,,,,605.672,605.672,605.6727,606.2721,1,0,right,0.0709,,606.2739,607.222,0,0,left,607.2237,608.2053,0,0,left,1,608.2053,608.2054,608.2073,609.7049,0,21,21,21,1,0.2,0.8,0.6,0.4,,,,,,,,,,,,,,,0.4022,,0.2,0.8,0.2,0.8,0.2,0.8,0.6,0.4,,,0.4359,,0.4,0.6,0.6,0.4,0.6,0.4,0.8,0.2,1,0
,,66c34db91daa2cac0b579ee5,66fc98794744beadf84be40f,2024-10-02_01h49.51.150,mdp,2024.2.1,Win32,60.97560976,66fa4ebf79326e780c390304,,,,,,,,,,,,,,,,,,,,,609.7054,609.7054,609.7065,610.5052,0,1,left,0.269,,610.5071,611.4549,0,0,left,611.4568,612.1718,1,0,right,1,612.1721,612.1721,612.1741,613.6717,0,22,22,22,1,0.2,0.8,0.6,0.4,,,,,,,,,,,,,,,0.4072,,0.2,0.8,0.2,0.8,0.2,0.8,0.6,0.4,,,0.1841,,0.4,0.6,0.6,0.4,0.6,0.4,0.8,0.2,1,0
,,66c34db91daa2cac0b579ee5,66fc98794744beadf84be40f,2024-10-02_01h49.51.150,mdp,2024.2.1,Win32,60.97560976,66fa4ebf79326e780c390304,,,,,,,,,,,,,,,,,,,,,613.6725,613.6725,613.6743,614.6052,0,1,left,0.4066,,614.6075,615.6214,0,1,left,615.6233,616.4381,1,0,right,1,616.4381,616.4382,616.4395,617.938,0,23,23,23,1,0.2,0.8,0.6,0.4,,,,,,,,,,,,,,,0.484,,0.2,0.8,0.2,0.8,0.2,0.8,0.6,0.4,,,0.2681,,0.4,0.6,0.6,0.4,0.6,0.4,0.8,0.2,1,0
,,66c34db91daa2cac0b579ee5,66fc98794744beadf84be40f,2024-10-02_01h49.51.150,mdp,2024.2.1,Win32,60.97560976,66fa4ebf79326e780c390304,,,,,,,,,,,,,,,,,,,,,617.9387,617.9388,617.9403,618.8715,0,1,left,0.4034,,618.8731,619.7047,1,0,right,619.707,620.5709,0,1,left,0,620.5711,620.5711,620.5727,622.0713,0,24,24,24,1,0.2,0.8,0.6,0.4,,,,,,,,,,,,,,,0.3027,,0.2,0.8,0.2,0.8,0.2,0.8,0.6,0.4,,,0.3194,,0.4,0.6,0.6,0.4,0.6,0.4,0.8,0.2,1,0
,,66c34db91daa2cac0b579ee5,66fc98794744beadf84be40f,2024-10-02_01h49.51.150,mdp,2024.2.1,Win32,60.97560976,66fa4ebf79326e780c390304,,,,,,,,,,,,,,,,,,,,,622.0722,622.0722,622.0739,622.8543,1,1,right,0.2493,,622.8555,623.837,1,0,right,623.8378,624.6548,0,1,left,0,624.6549,624.6549,624.6569,626.1543,0,25,25,25,1,0.2,0.8,0.6,0.4,,,,,,,,,,,,,,,0.4643,,0.2,0.8,0.2,0.8,0.2,0.8,0.6,0.4,,,0.3051,,0.4,0.6,0.6,0.4,0.4,0.6,0.6,0.4,1,0
,,66c34db91daa2cac0b579ee5,66fc98794744beadf84be40f,2024-10-02_01h49.51.150,mdp,2024.2.1,Win32,60.97560976,66fa4ebf79326e780c390304,,,,,,,,,,,,,,,,,,,,,626.1552,626.1552,626.1568,626.7206,0,0,left,0.0436,,626.7226,627.9373,1,1,right,627.9392,628.821,1,0,right,1,628.8212,628.8212,628.8232,630.3209,0,26,26,26,1,0.2,0.8,0.6,0.4,,,,,,,,,,,,,,,0.6793,,0.2,0.8,0.2,0.8,0.2,0.8,0.6,0.4,,,0.3421,,0.4,0.6,0.6,0.4,0.4,0.6,0.6,0.4,1,0
,,66c34db91daa2cac0b579ee5,66fc98794744beadf84be40f,2024-10-02_01h49.51.150,mdp,2024.2.1,Win32,60.97560976,66fa4ebf79326e780c390304,,,,,,,,,,,,,,,,,,,,,630.3217,630.3217,630.3234,631.1707,0,1,left,0.3279,,631.1728,632.1706,0,1,left,632.1723,633.0042,1,0,right,1,633.0043,633.0044,633.0061,634.5037,0,27,27,27,1,0.2,0.8,0.6,0.4,,,,,,,,,,,,,,,0.4605,,0.2,0.8,0.2,0.8,0.2,0.8,0.6,0.4,,,0.3088,,0.4,0.6,0.6,0.4,0.4,0.6,0.6,0.4,1,0
,,66c34db91daa2cac0b579ee5,66fc98794744beadf84be40f,2024-10-02_01h49.51.150,mdp,2024.2.1,Win32,60.97560976,66fa4ebf79326e780c390304,,,,,,,,,,,,,,,,,,,,,634.5046,634.5046,634.5062,635.3032,0,1,left,0.277,,635.3043,636.254,0,1,left,636.2558,637.1044,1,0,right,1,637.1045,637.1045,637.1062,638.6038,0,28,28,28,1,0.2,0.8,0.6,0.4,,,,,,,,,,,,,,,0.436,,0.2,0.8,0.2,0.8,0.2,0.8,0.6,0.4,,,0.3309,,0.4,0.6,0.6,0.4,0.4,0.6,0.6,0.4,1,0
,,66c34db91daa2cac0b579ee5,66fc98794744beadf84be40f,2024-10-02_01h49.51.150,mdp,2024.2.1,Win32,60.97560976,66fa4ebf79326e780c390304,,,,,,,,,,,,,,,,,,,,,638.6048,638.6048,638.6067,639.4539,0,1,left,0.3196,,639.4559,640.32,0,1,left,640.3216,641.1533,1,0,right,1,641.1535,641.1535,641.1553,642.6527,0,29,29,29,1,0.2,0.8,0.6,0.4,,,,,,,,,,,,,,,0.3447,,0.2,0.8,0.2,0.8,0.2,0.8,0.6,0.4,,,0.3108,,0.4,0.6,0.6,0.4,0.2,0.8,0.8,0.2,1,0
,,66c34db91daa2cac0b579ee5,66fc98794744beadf84be40f,2024-10-02_01h49.51.150,mdp,2024.2.1,Win32,60.97560976,66fa4ebf79326e780c390304,,,,,,,,,,,,,,,,,,,,,642.6533,642.6533,642.6538,643.4868,0,0,left,0.3172,,643.4888,644.6036,1,1,right,644.6053,645.4529,1,0,right,1,645.453,645.453,645.4541,646.9532,0,30,30,30,1,0.2,0.8,0.6,0.4,,,,,,,,,,,,,,,0.5693,,0.2,0.8,0.2,0.8,0.2,0.8,0.6,0.4,,,0.3157,,0.4,0.6,0.6,0.4,0.2,0.8,0.8,0.2,1,0
,,66c34db91daa2cac0b579ee5,66fc98794744beadf84be40f,2024-10-02_01h49.51.150,mdp,2024.2.1,Win32,60.97560976,66fa4ebf79326e780c390304,,,,,,,,,,,,,,,,,,,,,646.9539,646.9539,646.9549,647.8034,0,1,left,0.3251,,647.8051,648.9036,0,0,left,648.9057,649.7363,1,1,right,0,649.7364,649.7364,649.7381,651.2362,0,31,31,31,1,0.2,0.8,0.6,0.4,,,,,,,,,,,,,,,0.5558,,0.2,0.8,0.2,0.8,0.2,0.8,0.6,0.4,,,0.2882,,0.4,0.6,0.6,0.4,0.2,0.8,0.8,0.2,1,0
,,66c34db91daa2cac0b579ee5,66fc98794744beadf84be40f,2024-10-02_01h49.51.150,mdp,2024.2.1,Win32,60.97560976,66fa4ebf79326e780c390304,,,,,,,,,,,,,,,,,,,,,651.2372,651.2372,651.2389,652.053,0,1,left,0.2891,,652.0542,652.9698,1,0,right,652.9713,654.1698,1,0,right,1,654.1699,654.1699,654.1716,655.6695,0,32,32,32,1,0.2,0.8,0.6,0.4,,,,,,,,,,,,,,,0.3848,,0.2,0.8,0.2,0.8,0.2,0.8,0.6,0.4,,,0.6687,,0.4,0.6,0.6,0.4,0.2,0.8,0.8,0.2,1,0
,,66c34db91daa2cac0b579ee5,66fc98794744beadf84be40f,2024-10-02_01h49.51.150,mdp,2024.2.1,Win32,60.97560976,66fa4ebf79326e780c390304,,,,,,,,,,,,,,,,,,,,,655.6705,655.6705,655.6722,656.4697,0,0,left,0.2731,,656.4718,657.9526,0,0,left,657.9549,658.7357,1,0,right,1,658.7358,658.7359,658.7371,660.2359,0,33,33,33,1,0.2,0.8,0.6,0.4,,,,,,,,,,,,,,,0.9468,,0.2,0.8,0.2,0.8,0.2,0.8,0.6,0.4,,,0.2673,,0.4,0.6,0.6,0.4,0.2,0.8,0.8,0.2,1,0
,,66c34db91daa2cac0b579ee5,66fc98794744beadf84be40f,2024-10-02_01h49.51.150,mdp,2024.2.1,Win32,60.97560976,66fa4ebf79326e780c390304,,,,,,,,,,,,,,,,,,,,,660.2367,660.2367,660.2384,661.0522,0,0,left,0.2888,,661.0531,662.2028,0,0,left,662.2047,663.0692,1,0,right,1,663.0692,663.0692,663.071,664.5691,0,34,34,34,1,0.2,0.8,0.6,0.4,,,,,,,,,,,,,,,0.6052,,0.2,0.8,0.2,0.8,0.2,0.8,0.6,0.4,,,0.3402,,0.4,0.6,0.6,0.4,0.2,0.8,0.8,0.2,1,0
,,66c34db91daa2cac0b579ee5,66fc98794744beadf84be40f,2024-10-02_01h49.51.150,mdp,2024.2.1,Win32,60.97560976,66fa4ebf79326e780c390304,,,,,,,,,,,,,,,,,,,,,664.57,664.57,664.5718,665.3361,0,0,left,0.2376,,665.3379,666.569,0,1,left,666.5709,668.4024,0,0,left,1,668.4028,668.4028,668.4047,669.9024,0,35,35,35,1,0.2,0.8,0.6,0.4,,,,,,,,,,,,,,,0.7028,,0.2,0.8,0.2,0.8,0.2,0.8,0.6,0.4,,,1.2945,,0.4,0.6,0.6,0.4,0.2,0.8,0.8,0.2,1,0
,,66c34db91daa2cac0b579ee5,66fc98794744beadf84be40f,2024-10-02_01h49.51.150,mdp,2024.2.1,Win32,60.97560976,66fa4ebf79326e780c390304,,,,,,,,,,,,,,,,,,,,,669.9031,669.9031,669.9051,670.7021,0,0,left,0.2783,,670.7028,671.8859,0,1,left,671.8881,672.8352,0,1,left,0,672.8353,672.8353,672.8372,674.3356,0,36,36,36,1,0.2,0.8,0.6,0.4,,,,,,,,,,,,,,,0.6665,,0.2,0.8,0.2,0.8,0.2,0.8,0.6,0.4,,,0.417,,0.4,0.6,0.6,0.4,0.2,0.8,0.8,0.2,1,0
,,66c34db91daa2cac0b579ee5,66fc98794744beadf84be40f,2024-10-02_01h49.51.150,mdp,2024.2.1,Win32,60.97560976,66fa4ebf79326e780c390304,,,,,,,,,,,,,,,,,,,,,674.3363,674.3363,674.3382,674.9356,0,1,left,0.0704,,674.9374,675.9521,1,0,right,675.954,677.0684,0,0,left,1,677.0685,677.0685,677.0703,678.5683,0,37,37,37,1,0.2,0.8,0.6,0.4,,,,,,,,,,,,,,,0.472,,0.2,0.8,0.2,0.8,0.2,0.8,0.6,0.4,,,0.5763,,0.4,0.6,0.6,0.4,0.2,0.8,0.8,0.2,1,0
,,66c34db91daa2cac0b579ee5,66fc98794744beadf84be40f,2024-10-02_01h49.51.150,mdp,2024.2.1,Win32,60.97560976,66fa4ebf79326e780c390304,,,,,,,,,,,,,,,,,,,,,678.569,678.569,678.5707,679.6678,0,1,left,0.565,,679.6687,680.6177,1,0,right,680.6187,682.052,1,0,right,1,682.0521,682.0521,682.0539,683.5512,0,38,38,38,1,0.2,0.8,0.6,0.4,,,,,,,,,,,,,,,0.4174,,0.2,0.8,0.2,0.8,0.2,0.8,0.6,0.4,,,0.9256,,0.4,0.6,0.6,0.4,0.2,0.8,0.8,0.2,1,0
,,66c34db91daa2cac0b579ee5,66fc98794744beadf84be40f,2024-10-02_01h49.51.150,mdp,2024.2.1,Win32,60.97560976,66fa4ebf79326e780c390304,,,,,,,,,,,,,,,,,,,,,683.5515,683.5515,683.5522,684.1679,0,1,left,0.0871,,684.1691,685.1518,1,1,right,685.1536,686.2181,0,1,left,0,686.2182,686.2182,686.2196,687.7181,0,39,39,39,1,0.2,0.8,0.6,0.4,,,,,,,,,,,,,,,0.4671,,0.2,0.8,0.2,0.8,0.2,0.8,0.6,0.4,,,0.5185,,0.4,0.6,0.6,0.4,0.2,0.8,0.8,0.2,1,0
,,66c34db91daa2cac0b579ee5,66fc98794744beadf84be40f,2024-10-02_01h49.51.150,mdp,2024.2.1,Win32,60.97560976,66fa4ebf79326e780c390304,,,,,,,,,,,,,,,,,,,,,687.7194,687.7194,687.721,688.4015,0,1,left,0.1522,,688.4031,689.3848,0,1,left,689.3862,690.1702,1,1,right,0,690.1704,690.1704,690.172,691.6677,0,40,40,40,1,0.2,0.8,0.6,0.4,,,,,,,,,,,,,,,0.4519,,0.6,0.4,0.8,0.2,0.2,0.8,0.6,0.4,,,0.2805,,0.4,0.6,0.6,0.4,0.2,0.8,0.8,0.2,1,0
,,66c34db91daa2cac0b579ee5,66fc98794744beadf84be40f,2024-10-02_01h49.51.150,mdp,2024.2.1,Win32,60.97560976,66fa4ebf79326e780c390304,,,,,,,,,,,,,,,,,,,,,691.6684,691.6684,691.67,692.4844,0,1,left,0.2903,,692.4863,693.2514,1,0,right,693.2533,694.5011,0,1,left,0,694.5013,694.5013,694.5035,696.0003,0,41,41,41,1,0.2,0.8,0.6,0.4,,,,,,,,,,,,,,,0.2319,,0.6,0.4,0.8,0.2,0.2,0.8,0.6,0.4,,,0.7082,,0.4,0.6,0.6,0.4,0.2,0.8,0.8,0.2,1,0
,,66c34db91daa2cac0b579ee5,66fc98794744beadf84be40f,2024-10-02_01h49.51.150,mdp,2024.2.1,Win32,60.97560976,66fa4ebf79326e780c390304,,,,,,,,,,,,,,,,,,,,,696.0011,696.0011,696.0021,696.668,0,1,left,0.1411,,696.6698,697.5841,1,0,right,697.586,698.5841,1,1,right,0,698.5841,698.5842,698.5859,700.0844,0,42,42,42,1,0.2,0.8,0.6,0.4,,,,,,,,,,,,,,,0.3947,,0.6,0.4,0.8,0.2,0.2,0.8,0.6,0.4,,,0.4861,,0.4,0.6,0.6,0.4,0.2,0.8,0.8,0.2,1,0
,,66c34db91daa2cac0b579ee5,66fc98794744beadf84be40f,2024-10-02_01h49.51.150,mdp,2024.2.1,Win32,60.97560976,66fa4ebf79326e780c390304,,,,,,,,,,,,,,,,,,,,,700.0851,700.0851,700.0865,700.651,0,1,left,0.0421,,700.6527,701.4674,0,1,left,701.4691,702.1344,1,1,right,0,702.1345,702.1345,702.1364,703.6342,0,43,43,43,1,0.2,0.8,0.6,0.4,,,,,,,,,,,,,,,0.2914,,0.6,0.4,0.8,0.2,0.2,0.8,0.6,0.4,,,0.1242,,0.4,0.6,0.6,0.4,0.4,0.6,0.4,0.6,1,0
,,66c34db91daa2cac0b579ee5,66fc98794744beadf84be40f,2024-10-02_01h49.51.150,mdp,2024.2.1,Win32,60.97560976,66fa4ebf79326e780c390304,,,,,,,,,,,,,,,,,,,,,703.635,703.635,703.6368,704.2501,0,1,left,0.0683,,704.2508,705.1675,1,1,right,705.1693,706.0172,0,0,left,1,706.0174,706.0174,706.0193,707.517,0,44,44,44,1,0.2,0.8,0.6,0.4,,,,,,,,,,,,,,,0.4008,,0.6,0.4,0.8,0.2,0.2,0.8,0.6,0.4,,,0.3184,,0.4,0.6,0.6,0.4,0.4,0.6,0.4,0.6,1,0
,,66c34db91daa2cac0b579ee5,66fc98794744beadf84be40f,2024-10-02_01h49.51.150,mdp,2024.2.1,Win32,60.97560976,66fa4ebf79326e780c390304,,,,,,,,,,,,,,,,,,,,,707.5178,707.5178,707.5197,708.2672,0,1,left,0.2251,,708.2689,709.1006,1,0,right,709.1023,710.2836,1,1,right,0,710.2838,710.2838,710.2855,711.7832,0,45,45,45,1,0.2,0.8,0.6,0.4,,,,,,,,,,,,,,,0.3029,,0.6,0.4,0.8,0.2,0.2,0.8,0.6,0.4,,,0.6437,,0.4,0.6,0.6,0.4,0.6,0.4,0.8,0.2,1,0
,,66c34db91daa2cac0b579ee5,66fc98794744beadf84be40f,2024-10-02_01h49.51.150,mdp,2024.2.1,Win32,60.97560976,66fa4ebf79326e780c390304,,,,,,,,,,,,,,,,,,,,,711.7835,711.7835,711.7842,712.3835,0,1,left,0.0868,,712.3854,713.2337,1,0,right,713.2355,714.0169,0,1,left,0,714.0171,714.0171,714.0189,715.5165,0,46,46,46,1,0.2,0.8,0.6,0.4,,,,,,,,,,,,,,,0.3271,,0.6,0.4,0.8,0.2,0.2,0.8,0.6,0.4,,,0.2522,,0.4,0.6,0.6,0.4,0.6,0.4,0.8,0.2,1,0
,,66c34db91daa2cac0b579ee5,66fc98794744beadf84be40f,2024-10-02_01h49.51.150,mdp,2024.2.1,Win32,60.97560976,66fa4ebf79326e780c390304,,,,,,,,,,,,,,,,,,,,,715.5173,715.5174,715.5191,716.2837,0,0,left,0.2335,,716.2855,716.9001,1,0,right,716.9022,717.6836,1,1,right,0,717.6838,717.6838,717.6855,719.1829,0,47,47,47,1,0.2,0.8,0.6,0.4,,,,,,,,,,,,,,,0.0766,,0.6,0.4,0.8,0.2,0.2,0.8,0.6,0.4,,,0.2607,,0.4,0.6,0.6,0.4,0.6,0.4,0.8,0.2,1,0
,,66c34db91daa2cac0b579ee5,66fc98794744beadf84be40f,2024-10-02_01h49.51.150,mdp,2024.2.1,Win32,60.97560976,66fa4ebf79326e780c390304,,,,,,,,,,,,,,,,,,,,,719.1836,719.1836,719.1852,720.2004,0,1,left,0.4951,,720.2022,721.1503,1,1,right,721.1523,722,0,0,left,1,722.0002,722.0002,722.0022,723.4995,0,48,48,48,1,0.2,0.8,0.6,0.4,,,,,,,,,,,,,,,0.4031,,0.4,0.6,0.4,0.6,0.2,0.8,0.6,0.4,,,0.3055,,0.4,0.6,0.6,0.4,0.6,0.4,0.8,0.2,1,0
,,66c34db91daa2cac0b579ee5,66fc98794744beadf84be40f,2024-10-02_01h49.51.150,mdp,2024.2.1,Win32,60.97560976,66fa4ebf79326e780c390304,,,,,,,,,,,,,,,,,,,,,723.5003,723.5003,723.5019,724.3335,0,1,left,0.3069,,724.336,725.2333,1,0,right,725.2352,726.0832,0,0,left,1,726.0834,726.0834,726.085,727.583,0,49,49,49,1,0.2,0.8,0.6,0.4,,,,,,,,,,,,,,,0.3685,,0.4,0.6,0.4,0.6,0.2,0.8,0.6,0.4,,,0.303,,0.4,0.6,0.6,0.4,0.6,0.4,0.8,0.2,1,0
,,66c34db91daa2cac0b579ee5,66fc98794744beadf84be40f,2024-10-02_01h49.51.150,mdp,2024.2.1,Win32,60.97560976,66fa4ebf79326e780c390304,,,,,,,,,,,,,,,,,,,,,,,,,,,,,,,,,,,,,,,,,,,,,,,,,,,,,,,,727.5832,786.0969,0,2,2,4,1,imgs/giraffe.png,imgs/rabbit.png,imgs/dog.png,imgs/squirrel.png,imgs/pig.png,,,,,,,,,,,,,,,,,,,,,,,,
,,66c34db91daa2cac0b579ee5,66fc98794744beadf84be40f,2024-10-02_01h49.51.150,mdp,2024.2.1,Win32,60.97560976,66fa4ebf79326e780c390304,,,,,,,,,,,,,,3,seqs/st3seq39.csv,786.1177,788.1968,space,1.551,,788.2103,788.2103,788.2116,789.6637,0,0,left,0.9362,,789.666,790.8637,1,1,right,790.8657,791.7959,1,0,right,1,791.796,791.796,791.797,793.2966,0,0,0,0,1,0.2,0.8,0.6,0.4,,,,,,,,,,,,,,,0.6663,,0.2,0.8,0.4,0.6,0.2,0.8,0.6,0.4,,,0.3932,,0.2,0.8,0.4,0.6,0.4,0.6,0.6,0.4,1,0
,,66c34db91daa2cac0b579ee5,66fc98794744beadf84be40f,2024-10-02_01h49.51.150,mdp,2024.2.1,Win32,60.97560976,66fa4ebf79326e780c390304,,,,,,,,,,,,,,,,,,,,,793.2974,793.2976,793.299,794.2468,0,1,left,0.4216,,794.2485,795.6302,0,1,left,795.6325,796.4466,1,0,right,1,796.4467,796.4467,796.4484,797.946,0,1,1,1,1,0.2,0.8,0.6,0.4,,,,,,,,,,,,,,,0.8477,,0.2,0.8,0.4,0.6,0.2,0.8,0.6,0.4,,,0.2847,,0.2,0.8,0.4,0.6,0.4,0.6,0.6,0.4,1,0
,,66c34db91daa2cac0b579ee5,66fc98794744beadf84be40f,2024-10-02_01h49.51.150,mdp,2024.2.1,Win32,60.97560976,66fa4ebf79326e780c390304,,,,,,,,,,,,,,,,,,,,,797.9464,797.9464,797.947,798.5628,0,0,left,0.0916,,798.5645,799.4299,0,1,left,799.4318,800.2133,1,1,right,0,800.2134,800.2134,800.215,801.7131,0,2,2,2,1,0.2,0.8,0.6,0.4,,,,,,,,,,,,,,,0.3482,,0.2,0.8,0.4,0.6,0.2,0.8,0.6,0.4,,,0.2519,,0.2,0.8,0.4,0.6,0.4,0.6,0.6,0.4,1,0
,,66c34db91daa2cac0b579ee5,66fc98794744beadf84be40f,2024-10-02_01h49.51.150,mdp,2024.2.1,Win32,60.97560976,66fa4ebf79326e780c390304,,,,,,,,,,,,,,,,,,,,,801.714,801.714,801.7159,802.5461,1,1,right,0.3007,,802.5481,803.3792,0,1,left,803.38,804.0465,1,0,right,1,804.0467,804.0467,804.0482,805.5458,0,3,3,3,1,0.2,0.8,0.6,0.4,,,,,,,,,,,,,,,0.3192,,0.2,0.8,0.4,0.6,0.2,0.8,0.6,0.4,,,0.1517,,0.2,0.8,0.4,0.6,0.4,0.6,0.6,0.4,1,0
,,66c34db91daa2cac0b579ee5,66fc98794744beadf84be40f,2024-10-02_01h49.51.150,mdp,2024.2.1,Win32,60.97560976,66fa4ebf79326e780c390304,,,,,,,,,,,,,,,,,,,,,805.5468,805.5468,805.5484,806.4129,0,1,left,0.3366,,806.4152,807.6795,1,1,right,807.6818,808.5458,0,1,left,0,808.5459,808.5459,808.5475,810.0456,0,4,4,4,1,0.2,0.8,0.6,0.4,,,,,,,,,,,,,,,0.7341,,0.2,0.8,0.4,0.6,0.2,0.8,0.6,0.4,,,0.3423,,0.2,0.8,0.4,0.6,0.4,0.6,0.6,0.4,1,0
,,66c34db91daa2cac0b579ee5,66fc98794744beadf84be40f,2024-10-02_01h49.51.150,mdp,2024.2.1,Win32,60.97560976,66fa4ebf79326e780c390304,,,,,,,,,,,,,,,,,,,,,810.0462,810.0462,810.0472,811.2289,0,0,left,0.6549,,811.2301,812.5624,1,1,right,812.5642,813.6961,1,0,right,1,813.6962,813.6962,813.6978,815.1959,0,5,5,5,1,0.2,0.8,0.6,0.4,,,,,,,,,,,,,,,0.8101,,0.2,0.8,0.4,0.6,0.2,0.8,0.6,0.4,,,0.6027,,0.2,0.8,0.4,0.6,0.4,0.6,0.6,0.4,1,0
,,66c34db91daa2cac0b579ee5,66fc98794744beadf84be40f,2024-10-02_01h49.51.150,mdp,2024.2.1,Win32,60.97560976,66fa4ebf79326e780c390304,,,,,,,,,,,,,,,,,,,,,815.197,815.197,815.1986,815.8116,0,1,left,0.0883,,815.8131,817.1119,0,1,left,817.1129,817.8786,1,0,right,1,817.8786,817.8786,817.8793,819.3783,0,6,6,6,1,0.2,0.8,0.6,0.4,,,,,,,,,,,,,,,0.7774,,0.2,0.8,0.4,0.6,0.2,0.8,0.6,0.4,,,0.2331,,0.2,0.8,0.4,0.6,0.4,0.6,0.6,0.4,1,0
,,66c34db91daa2cac0b579ee5,66fc98794744beadf84be40f,2024-10-02_01h49.51.150,mdp,2024.2.1,Win32,60.97560976,66fa4ebf79326e780c390304,,,,,,,,,,,,,,,,,,,,,819.3785,819.3785,819.379,820.1784,0,0,left,0.29,,820.1802,821.4286,1,0,right,821.4309,822.6287,1,0,right,1,822.6289,822.6289,822.6306,824.1286,0,7,7,7,1,0.2,0.8,0.6,0.4,,,,,,,,,,,,,,,0.7159,,0.2,0.8,0.4,0.6,0.2,0.8,0.6,0.4,,,0.6619,,0.2,0.8,0.4,0.6,0.4,0.6,0.6,0.4,1,0
,,66c34db91daa2cac0b579ee5,66fc98794744beadf84be40f,2024-10-02_01h49.51.150,mdp,2024.2.1,Win32,60.97560976,66fa4ebf79326e780c390304,,,,,,,,,,,,,,,,,,,,,824.1294,824.1294,824.1311,824.9452,0,1,left,0.2832,,824.9469,826.1282,0,1,left,826.13,826.9282,1,0,right,1,826.9284,826.9284,826.93,828.4284,0,8,8,8,1,0.2,0.8,0.6,0.4,,,,,,,,,,,,,,,0.6698,,0.2,0.8,0.4,0.6,0.2,0.8,0.6,0.4,,,0.2708,,0.2,0.8,0.4,0.6,0.4,0.6,0.6,0.4,1,0
,,66c34db91daa2cac0b579ee5,66fc98794744beadf84be40f,2024-10-02_01h49.51.150,mdp,2024.2.1,Win32,60.97560976,66fa4ebf79326e780c390304,,,,,,,,,,,,,,,,,,,,,828.4294,828.4294,828.4311,829.2619,0,1,left,0.3007,,829.2642,830.3284,1,1,right,830.3301,831.1283,0,1,left,0,831.1284,831.1284,831.1305,832.6282,0,9,9,9,1,0.2,0.8,0.6,0.4,,,,,,,,,,,,,,,0.5447,,0.6,0.4,0.2,0.8,0.2,0.8,0.6,0.4,,,0.278,,0.2,0.8,0.4,0.6,0.4,0.6,0.6,0.4,1,0
,,66c34db91daa2cac0b579ee5,66fc98794744beadf84be40f,2024-10-02_01h49.51.150,mdp,2024.2.1,Win32,60.97560976,66fa4ebf79326e780c390304,,,,,,,,,,,,,,,,,,,,,832.629,832.629,832.6308,833.5283,0,1,left,0.3716,,833.5305,834.6281,0,1,left,834.63,835.5947,1,0,right,1,835.5948,835.5948,835.597,837.095,0,10,10,10,1,0.2,0.8,0.6,0.4,,,,,,,,,,,,,,,0.568,,0.6,0.4,0.2,0.8,0.2,0.8,0.6,0.4,,,0.4338,,0.2,0.8,0.4,0.6,0.4,0.6,0.6,0.4,1,0
,,66c34db91daa2cac0b579ee5,66fc98794744beadf84be40f,2024-10-02_01h49.51.150,mdp,2024.2.1,Win32,60.97560976,66fa4ebf79326e780c390304,,,,,,,,,,,,,,,,,,,,,837.0963,837.0963,837.0981,837.928,0,0,left,0.3006,,837.9302,839.4777,1,1,right,839.48,840.3275,1,0,right,1,840.3276,840.3277,840.3293,841.8278,0,11,11,11,1,0.4,0.6,0.8,0.2,,,,,,,,,,,,,,,1.0147,,0.6,0.4,0.2,0.8,0.2,0.8,0.6,0.4,,,0.3168,,0.2,0.8,0.4,0.6,0.4,0.6,0.6,0.4,1,0
,,66c34db91daa2cac0b579ee5,66fc98794744beadf84be40f,2024-10-02_01h49.51.150,mdp,2024.2.1,Win32,60.97560976,66fa4ebf79326e780c390304,,,,,,,,,,,,,,,,,,,,,841.8289,841.8289,841.8307,842.7274,0,1,left,0.3676,,842.7292,843.7945,0,1,left,843.7963,844.611,1,0,right,1,844.6112,844.6112,844.6129,846.1112,0,12,12,12,1,0.4,0.6,0.8,0.2,,,,,,,,,,,,,,,0.5271,,0.6,0.4,0.2,0.8,0.2,0.8,0.6,0.4,,,0.2921,,0.2,0.8,0.4,0.6,0.4,0.6,0.6,0.4,1,0
,,66c34db91daa2cac0b579ee5,66fc98794744beadf84be40f,2024-10-02_01h49.51.150,mdp,2024.2.1,Win32,60.97560976,66fa4ebf79326e780c390304,,,,,,,,,,,,,,,,,,,,,846.1122,846.1122,846.1141,846.944,1,1,right,0.3045,,846.9451,847.7438,0,1,left,847.7444,848.4267,0,1,left,0,848.4267,848.4267,848.4279,849.9273,0,13,13,13,1,0.4,0.6,0.8,0.2,,,,,,,,,,,,,,,0.2771,,0.6,0.4,0.2,0.8,0.2,0.8,0.6,0.4,,,0.1503,,0.2,0.8,0.4,0.6,0.4,0.6,0.6,0.4,1,0
,,66c34db91daa2cac0b579ee5,66fc98794744beadf84be40f,2024-10-02_01h49.51.150,mdp,2024.2.1,Win32,60.97560976,66fa4ebf79326e780c390304,,,,,,,,,,,,,,,,,,,,,849.9281,849.9281,849.9298,850.7274,0,0,left,0.2669,,850.7291,852.3771,1,1,right,852.3792,853.1771,0,1,left,0,853.1772,853.1772,853.1788,854.6768,0,14,14,14,1,0.4,0.6,0.8,0.2,,,,,,,,,,,,,,,1.1108,,0.6,0.4,0.2,0.8,0.2,0.8,0.6,0.4,,,0.2768,,0.2,0.8,0.4,0.6,0.4,0.6,0.6,0.4,1,0
,,66c34db91daa2cac0b579ee5,66fc98794744beadf84be40f,2024-10-02_01h49.51.150,mdp,2024.2.1,Win32,60.97560976,66fa4ebf79326e780c390304,,,,,,,,,,,,,,,,,,,,,854.6774,854.6774,854.6786,855.277,0,1,left,0.0735,,855.2791,856.4103,1,0,right,856.412,857.3767,0,0,left,1,857.3767,857.3767,857.3784,858.8766,0,15,15,15,1,0.4,0.6,0.8,0.2,,,,,,,,,,,,,,,0.6019,,0.6,0.4,0.2,0.8,0.2,0.8,0.6,0.4,,,0.4361,,0.2,0.8,0.4,0.6,0.4,0.6,0.6,0.4,1,0
,,66c34db91daa2cac0b579ee5,66fc98794744beadf84be40f,2024-10-02_01h49.51.150,mdp,2024.2.1,Win32,60.97560976,66fa4ebf79326e780c390304,,,,,,,,,,,,,,,,,,,,,858.8774,858.8775,858.8792,859.727,0,1,left,0.3214,,859.7287,860.7769,1,1,right,860.7786,861.5605,1,0,right,1,861.5606,861.5606,861.5627,863.0602,0,16,16,16,1,0.4,0.6,0.8,0.2,,,,,,,,,,,,,,,0.5272,,0.6,0.4,0.2,0.8,0.2,0.8,0.6,0.4,,,0.2452,,0.2,0.8,0.4,0.6,0.4,0.6,0.6,0.4,1,0
,,66c34db91daa2cac0b579ee5,66fc98794744beadf84be40f,2024-10-02_01h49.51.150,mdp,2024.2.1,Win32,60.97560976,66fa4ebf79326e780c390304,,,,,,,,,,,,,,,,,,,,,863.061,863.061,863.0627,864.3265,0,0,left,0.7384,,864.3289,865.2103,0,0,left,865.2125,865.8435,1,1,right,0,865.8436,865.8436,865.8452,867.3431,0,17,17,17,1,0.4,0.6,0.8,0.2,,,,,,,,,,,,,,,0.3514,,0.6,0.4,0.2,0.8,0.2,0.8,0.6,0.4,,,0.094,,0.2,0.8,0.4,0.6,0.4,0.6,0.6,0.4,1,0
,,66c34db91daa2cac0b579ee5,66fc98794744beadf84be40f,2024-10-02_01h49.51.150,mdp,2024.2.1,Win32,60.97560976,66fa4ebf79326e780c390304,,,,,,,,,,,,,,,,,,,,,867.3442,867.3442,867.3459,868.0434,0,1,left,0.1679,,868.0456,871.5098,1,0,right,871.5117,873.3099,0,0,left,1,873.3102,873.3103,873.3124,874.8095,0,18,18,18,1,0.4,0.6,0.8,0.2,,,,,,,,,,,,,,,2.9271,,0.6,0.4,0.2,0.8,0.2,0.8,0.6,0.4,,,1.2722,,0.2,0.8,0.4,0.6,0.4,0.6,0.6,0.4,1,0
,,66c34db91daa2cac0b579ee5,66fc98794744beadf84be40f,2024-10-02_01h49.51.150,mdp,2024.2.1,Win32,60.97560976,66fa4ebf79326e780c390304,,,,,,,,,,,,,,,,,,,,,874.8106,874.8106,874.8124,875.7928,0,1,left,0.4604,,875.7946,877.3758,1,1,right,877.3769,878.776,1,0,right,1,878.7761,878.7762,878.7778,880.2758,0,19,19,19,1,0.4,0.6,0.8,0.2,,,,,,,,,,,,,,,1.0507,,0.6,0.4,0.2,0.8,0.2,0.8,0.6,0.4,,,0.888,,0.2,0.8,0.4,0.6,0.4,0.6,0.6,0.4,1,0
,,66c34db91daa2cac0b579ee5,66fc98794744beadf84be40f,2024-10-02_01h49.51.150,mdp,2024.2.1,Win32,60.97560976,66fa4ebf79326e780c390304,,,,,,,,,,,,,,,,,,,,,880.2766,880.2766,880.2783,881.1263,0,0,left,0.3217,,881.128,882.6256,1,1,right,882.6263,884.1926,1,0,right,1,884.1928,884.1928,884.1949,885.6924,0,20,20,20,1,0.4,0.6,0.8,0.2,,,,,,,,,,,,,,,0.9646,,0.6,0.4,0.2,0.8,0.2,0.8,0.6,0.4,,,1.052,,0.2,0.8,0.4,0.6,0.4,0.6,0.6,0.4,1,0
,,66c34db91daa2cac0b579ee5,66fc98794744beadf84be40f,2024-10-02_01h49.51.150,mdp,2024.2.1,Win32,60.97560976,66fa4ebf79326e780c390304,,,,,,,,,,,,,,,,,,,,,885.6932,885.6932,885.6947,886.8422,0,1,left,0.6259,,886.844,888.6087,1,0,right,888.6105,889.8917,0,1,left,0,889.8917,889.8917,889.8922,891.3923,0,21,21,21,1,0.4,0.6,0.8,0.2,,,,,,,,,,,,,,,1.2369,,0.6,0.4,0.2,0.8,0.2,0.8,0.6,0.4,,,0.7441,,0.2,0.8,0.4,0.6,0.4,0.6,0.6,0.4,1,0
,,66c34db91daa2cac0b579ee5,66fc98794744beadf84be40f,2024-10-02_01h49.51.150,mdp,2024.2.1,Win32,60.97560976,66fa4ebf79326e780c390304,,,,,,,,,,,,,,,,,,,,,891.3934,891.3934,891.3953,892.1745,0,0,left,0.2603,,892.1752,893.6587,1,0,right,893.661,894.6581,1,1,right,0,894.6581,894.6581,894.6588,896.1586,0,22,22,22,1,0.4,0.6,0.8,0.2,,,,,,,,,,,,,,,0.9604,,0.6,0.4,0.2,0.8,0.2,0.8,0.6,0.4,,,0.4652,,0.2,0.8,0.4,0.6,0.2,0.8,0.8,0.2,1,0
,,66c34db91daa2cac0b579ee5,66fc98794744beadf84be40f,2024-10-02_01h49.51.150,mdp,2024.2.1,Win32,60.97560976,66fa4ebf79326e780c390304,,,,,,,,,,,,,,,,,,,,,896.1596,896.1596,896.1615,896.742,0,1,left,0.0508,,896.7443,897.9585,1,1,right,897.9607,899.042,0,0,left,1,899.0421,899.0421,899.0439,900.5408,0,23,23,23,1,0.4,0.6,0.8,0.2,,,,,,,,,,,,,,,0.6809,,0.2,0.8,0.6,0.4,0.2,0.8,0.6,0.4,,,0.5445,,0.2,0.8,0.4,0.6,0.2,0.8,0.8,0.2,1,0
,,66c34db91daa2cac0b579ee5,66fc98794744beadf84be40f,2024-10-02_01h49.51.150,mdp,2024.2.1,Win32,60.97560976,66fa4ebf79326e780c390304,,,,,,,,,,,,,,,,,,,,,900.5411,900.5411,900.5421,901.3243,0,0,left,0.2505,,901.3248,902.4575,1,0,right,902.4581,903.5079,0,1,left,0,903.508,903.508,903.5099,905.0076,0,24,24,24,1,0.4,0.6,0.8,0.2,,,,,,,,,,,,,,,0.6235,,0.2,0.8,0.6,0.4,0.2,0.8,0.6,0.4,,,0.5211,,0.2,0.8,0.4,0.6,0.2,0.8,0.8,0.2,1,0
,,66c34db91daa2cac0b579ee5,66fc98794744beadf84be40f,2024-10-02_01h49.51.150,mdp,2024.2.1,Win32,60.97560976,66fa4ebf79326e780c390304,,,,,,,,,,,,,,,,,,,,,905.0079,905.0079,905.0084,905.5745,0,0,left,0.0366,,905.5761,906.5251,1,1,right,906.5269,907.3249,1,0,right,1,907.325,907.3251,907.3267,908.825,0,25,25,25,1,0.4,0.6,0.8,0.2,,,,,,,,,,,,,,,0.4341,,0.8,0.2,0.2,0.8,0.2,0.8,0.6,0.4,,,0.2663,,0.2,0.8,0.4,0.6,0.2,0.8,0.8,0.2,1,0
,,66c34db91daa2cac0b579ee5,66fc98794744beadf84be40f,2024-10-02_01h49.51.150,mdp,2024.2.1,Win32,60.97560976,66fa4ebf79326e780c390304,,,,,,,,,,,,,,,,,,,,,908.8261,908.8261,908.8284,909.6248,1,1,right,0.2782,,909.6268,910.5409,1,0,right,910.5416,911.2747,0,1,left,0,911.2748,911.2748,911.2771,912.7743,0,26,26,26,1,0.4,0.6,0.8,0.2,,,,,,,,,,,,,,,0.3741,,0.8,0.2,0.2,0.8,0.2,0.8,0.6,0.4,,,0.2178,,0.4,0.6,0.8,0.2,0.2,0.8,0.8,0.2,1,0
,,66c34db91daa2cac0b579ee5,66fc98794744beadf84be40f,2024-10-02_01h49.51.150,mdp,2024.2.1,Win32,60.97560976,66fa4ebf79326e780c390304,,,,,,,,,,,,,,,,,,,,,912.775,912.775,912.7768,913.6073,1,0,right,0.3044,,913.6088,914.891,0,0,left,914.8928,915.6912,0,1,left,0,915.6913,915.6913,915.693,917.191,0,27,27,27,1,0.4,0.6,0.8,0.2,,,,,,,,,,,,,,,0.7687,,0.8,0.2,0.2,0.8,0.6,0.4,0.2,0.8,,,0.2679,,0.4,0.6,0.8,0.2,0.2,0.8,0.8,0.2,1,0
,,66c34db91daa2cac0b579ee5,66fc98794744beadf84be40f,2024-10-02_01h49.51.150,mdp,2024.2.1,Win32,60.97560976,66fa4ebf79326e780c390304,,,,,,,,,,,,,,,,,,,,,917.1921,917.1922,917.1939,918.0245,1,0,right,0.3116,,918.0265,919.2572,0,0,left,919.2591,920.5072,1,1,right,0,920.5073,920.5073,920.509,922.0073,0,28,28,28,1,0.4,0.6,0.8,0.2,,,,,,,,,,,,,,,0.7115,,0.8,0.2,0.2,0.8,0.6,0.4,0.2,0.8,,,0.725,,0.4,0.6,0.8,0.2,0.2,0.8,0.8,0.2,1,0
,,66c34db91daa2cac0b579ee5,66fc98794744beadf84be40f,2024-10-02_01h49.51.150,mdp,2024.2.1,Win32,60.97560976,66fa4ebf79326e780c390304,,,,,,,,,,,,,,,,,,,,,922.0081,922.0081,922.0097,923.241,0,1,left,0.702,,923.2435,924.5571,1,1,right,924.5593,925.4409,1,1,right,0,925.4411,925.4411,925.4432,926.9403,0,29,29,29,1,0.4,0.6,0.8,0.2,,,,,,,,,,,,,,,0.7856,,0.8,0.2,0.2,0.8,0.6,0.4,0.2,0.8,,,0.3515,,0.4,0.6,0.8,0.2,0.2,0.8,0.8,0.2,1,0
,,66c34db91daa2cac0b579ee5,66fc98794744beadf84be40f,2024-10-02_01h49.51.150,mdp,2024.2.1,Win32,60.97560976,66fa4ebf79326e780c390304,,,,,,,,,,,,,,,,,,,,,926.9416,926.9416,926.9436,927.6241,0,0,left,0.1556,,927.6263,928.3741,1,1,right,928.3763,929.5569,1,0,right,1,929.557,929.557,929.5587,931.0566,0,30,30,30,1,0.4,0.6,0.8,0.2,,,,,,,,,,,,,,,0.215,,0.8,0.2,0.2,0.8,0.6,0.4,0.2,0.8,,,0.6578,,0.4,0.6,0.8,0.2,0.6,0.4,0.2,0.8,1,0
,,66c34db91daa2cac0b579ee5,66fc98794744beadf84be40f,2024-10-02_01h49.51.150,mdp,2024.2.1,Win32,60.97560976,66fa4ebf79326e780c390304,,,,,,,,,,,,,,,,,,,,,931.0574,931.0574,931.0592,931.773,0,0,left,0.1877,,931.7737,932.6567,1,1,right,932.6585,933.5905,0,1,left,0,933.5905,933.5906,933.5922,935.0901,0,31,31,31,1,0.4,0.6,0.8,0.2,,,,,,,,,,,,,,,0.3685,,0.8,0.2,0.2,0.8,0.6,0.4,0.2,0.8,,,0.4002,,0.4,0.6,0.8,0.2,0.6,0.4,0.2,0.8,1,0
,,66c34db91daa2cac0b579ee5,66fc98794744beadf84be40f,2024-10-02_01h49.51.150,mdp,2024.2.1,Win32,60.97560976,66fa4ebf79326e780c390304,,,,,,,,,,,,,,,,,,,,,935.0909,935.091,935.0924,935.9559,0,0,left,0.3315,,935.9566,937.1235,1,1,right,937.1254,938.0568,1,1,right,0,938.057,938.057,938.0586,939.5564,0,32,32,32,1,0.4,0.6,0.8,0.2,,,,,,,,,,,,,,,0.6514,,0.8,0.2,0.2,0.8,0.6,0.4,0.2,0.8,,,0.4023,,0.4,0.6,0.8,0.2,0.6,0.4,0.2,0.8,1,0
,,66c34db91daa2cac0b579ee5,66fc98794744beadf84be40f,2024-10-02_01h49.51.150,mdp,2024.2.1,Win32,60.97560976,66fa4ebf79326e780c390304,,,,,,,,,,,,,,,,,,,,,939.5574,939.5574,939.5595,940.3065,0,1,left,0.2258,,940.3082,941.1066,1,1,right,941.1082,941.8566,1,1,right,0,941.8567,941.8567,941.858,943.3563,0,33,33,33,1,0.4,0.6,0.8,0.2,,,,,,,,,,,,,,,0.2682,,0.4,0.6,0.8,0.2,0.6,0.4,0.2,0.8,,,0.2184,,0.4,0.6,0.8,0.2,0.6,0.4,0.2,0.8,1,0
,,66c34db91daa2cac0b579ee5,66fc98794744beadf84be40f,2024-10-02_01h49.51.150,mdp,2024.2.1,Win32,60.97560976,66fa4ebf79326e780c390304,,,,,,,,,,,,,,,,,,,,,943.3574,943.3574,943.3592,944.2068,0,0,left,0.3172,,944.2086,944.7731,1,1,right,944.7749,945.9398,1,1,right,0,945.9399,945.9399,945.9419,947.4393,0,34,34,34,1,0.4,0.6,0.8,0.2,,,,,,,,,,,,,,,0.0269,,0.4,0.6,0.8,0.2,0.6,0.4,0.2,0.8,,,0.641,,0.4,0.6,0.8,0.2,0.6,0.4,0.2,0.8,1,0
,,66c34db91daa2cac0b579ee5,66fc98794744beadf84be40f,2024-10-02_01h49.51.150,mdp,2024.2.1,Win32,60.97560976,66fa4ebf79326e780c390304,,,,,,,,,,,,,,,,,,,,,947.4401,947.4401,947.4416,948.3565,0,0,left,0.3846,,948.3583,949.3565,1,0,right,949.3582,950.1896,0,0,left,1,950.1898,950.1898,950.1916,951.6895,0,35,35,35,1,0.4,0.6,0.8,0.2,,,,,,,,,,,,,,,0.4696,,0.4,0.6,0.8,0.2,0.6,0.4,0.2,0.8,,,0.2987,,0.4,0.6,0.8,0.2,0.6,0.4,0.2,0.8,1,0
,,66c34db91daa2cac0b579ee5,66fc98794744beadf84be40f,2024-10-02_01h49.51.150,mdp,2024.2.1,Win32,60.97560976,66fa4ebf79326e780c390304,,,,,,,,,,,,,,,,,,,,,951.6902,951.6902,951.6917,952.2562,0,0,left,0.0336,,952.258,953.1728,1,1,right,953.1745,954.0228,0,0,left,1,954.0231,954.0231,954.0252,955.5227,0,36,36,36,1,0.4,0.6,0.8,0.2,,,,,,,,,,,,,,,0.3902,,0.8,0.2,0.2,0.8,0.6,0.4,0.2,0.8,,,0.3147,,0.4,0.6,0.8,0.2,0.6,0.4,0.2,0.8,1,0
,,66c34db91daa2cac0b579ee5,66fc98794744beadf84be40f,2024-10-02_01h49.51.150,mdp,2024.2.1,Win32,60.97560976,66fa4ebf79326e780c390304,,,,,,,,,,,,,,,,,,,,,955.5236,955.5236,955.5253,956.206,0,1,left,0.151,,956.2077,957.0052,1,1,right,957.006,957.9555,0,0,left,1,957.9556,957.9556,957.9567,959.4555,0,37,37,37,1,0.4,0.6,0.8,0.2,,,,,,,,,,,,,,,0.2577,,0.8,0.2,0.2,0.8,0.6,0.4,0.2,0.8,,,0.44,,0.4,0.6,0.8,0.2,0.6,0.4,0.2,0.8,1,0
,,66c34db91daa2cac0b579ee5,66fc98794744beadf84be40f,2024-10-02_01h49.51.150,mdp,2024.2.1,Win32,60.97560976,66fa4ebf79326e780c390304,,,,,,,,,,,,,,,,,,,,,959.4562,959.4563,959.4577,960.439,0,0,left,0.4542,,960.4407,961.2887,1,1,right,961.2909,962.4055,0,0,left,1,962.4056,962.4056,962.4072,963.9049,0,38,38,38,1,0.4,0.6,0.8,0.2,,,,,,,,,,,,,,,0.321,,0.8,0.2,0.2,0.8,0.6,0.4,0.2,0.8,,,0.6004,,0.4,0.6,0.8,0.2,0.6,0.4,0.2,0.8,1,0
,,66c34db91daa2cac0b579ee5,66fc98794744beadf84be40f,2024-10-02_01h49.51.150,mdp,2024.2.1,Win32,60.97560976,66fa4ebf79326e780c390304,,,,,,,,,,,,,,,,,,,,,963.9055,963.9056,963.9067,964.9052,0,1,left,0.4771,,964.907,965.8719,1,1,right,965.8741,966.7555,0,1,left,0,966.7556,966.7556,966.7573,968.2553,0,39,39,39,1,0.4,0.6,0.8,0.2,,,,,,,,,,,,,,,0.4268,,0.8,0.2,0.2,0.8,0.6,0.4,0.2,0.8,,,0.3584,,0.4,0.6,0.8,0.2,0.6,0.4,0.2,0.8,1,0
,,66c34db91daa2cac0b579ee5,66fc98794744beadf84be40f,2024-10-02_01h49.51.150,mdp,2024.2.1,Win32,60.97560976,66fa4ebf79326e780c390304,,,,,,,,,,,,,,,,,,,,,968.2561,968.2561,968.2579,969.022,0,1,left,0.239,,969.0239,971.0048,0,1,left,971.006,971.7211,1,1,right,0,971.7211,971.7211,971.7221,973.2214,0,40,40,40,1,0.4,0.6,0.8,0.2,,,,,,,,,,,,,,,1.455,,0.8,0.2,0.2,0.8,0.6,0.4,0.2,0.8,,,0.2006,,0.4,0.6,0.8,0.2,0.6,0.4,0.2,0.8,1,0
,,66c34db91daa2cac0b579ee5,66fc98794744beadf84be40f,2024-10-02_01h49.51.150,mdp,2024.2.1,Win32,60.97560976,66fa4ebf79326e780c390304,,,,,,,,,,,,,,,,,,,,,973.2216,973.2216,973.2222,973.9052,0,1,left,0.1686,,973.9069,975.1883,1,1,right,975.1899,976.1212,1,1,right,0,976.1213,976.1213,976.1231,977.6216,0,41,41,41,1,0.4,0.6,0.8,0.2,,,,,,,,,,,,,,,0.7571,,0.2,0.8,0.6,0.4,0.6,0.4,0.2,0.8,,,0.41,,0.4,0.6,0.8,0.2,0.6,0.4,0.2,0.8,1,0
,,66c34db91daa2cac0b579ee5,66fc98794744beadf84be40f,2024-10-02_01h49.51.150,mdp,2024.2.1,Win32,60.97560976,66fa4ebf79326e780c390304,,,,,,,,,,,,,,,,,,,,,977.6224,977.6225,977.624,978.4549,1,1,right,0.3047,,978.4567,979.3049,0,1,left,979.3066,980.0884,0,0,left,1,980.0887,980.0887,980.0903,981.5878,0,42,42,42,1,0.4,0.6,0.8,0.2,,,,,,,,,,,,,,,0.3171,,0.2,0.8,0.6,0.4,0.6,0.4,0.2,0.8,,,0.2615,,0.4,0.6,0.8,0.2,0.6,0.4,0.2,0.8,1,0
,,66c34db91daa2cac0b579ee5,66fc98794744beadf84be40f,2024-10-02_01h49.51.150,mdp,2024.2.1,Win32,60.97560976,66fa4ebf79326e780c390304,,,,,,,,,,,,,,,,,,,,,981.5885,981.5886,981.5905,982.8379,1,1,right,0.7219,,982.8401,983.7714,0,0,left,983.773,984.5875,0,1,left,0,984.5876,984.5876,984.5894,986.0873,0,43,43,43,1,0.4,0.6,0.8,0.2,,,,,,,,,,,,,,,0.4012,,0.2,0.8,0.6,0.4,0.6,0.4,0.2,0.8,,,0.291,,0.4,0.6,0.8,0.2,0.6,0.4,0.2,0.8,1,0
,,66c34db91daa2cac0b579ee5,66fc98794744beadf84be40f,2024-10-02_01h49.51.150,mdp,2024.2.1,Win32,60.97560976,66fa4ebf79326e780c390304,,,,,,,,,,,,,,,,,,,,,986.0883,986.0883,986.0899,986.7043,0,0,left,0.0944,,986.706,988.2879,0,1,left,988.2907,989.2876,1,1,right,0,989.2876,989.2876,989.2894,990.7876,0,44,44,44,1,0.4,0.6,0.8,0.2,,,,,,,,,,,,,,,1.0602,,0.2,0.8,0.6,0.4,0.6,0.4,0.2,0.8,,,0.463,,0.4,0.6,0.8,0.2,0.6,0.4,0.2,0.8,1,0
,,66c34db91daa2cac0b579ee5,66fc98794744beadf84be40f,2024-10-02_01h49.51.150,mdp,2024.2.1,Win32,60.97560976,66fa4ebf79326e780c390304,,,,,,,,,,,,,,,,,,,,,990.7887,990.7887,990.7905,991.4711,0,0,left,0.1541,,991.4727,992.3045,1,1,right,992.3065,993.0874,0,0,left,1,993.0875,993.0875,993.0891,994.5872,0,45,45,45,1,0.2,0.8,0.6,0.4,,,,,,,,,,,,,,,0.3139,,0.2,0.8,0.6,0.4,0.6,0.4,0.2,0.8,,,0.2531,,0.4,0.6,0.8,0.2,0.6,0.4,0.2,0.8,1,0
,,66c34db91daa2cac0b579ee5,66fc98794744beadf84be40f,2024-10-02_01h49.51.150,mdp,2024.2.1,Win32,60.97560976,66fa4ebf79326e780c390304,,,,,,,,,,,,,,,,,,,,,994.5882,994.5883,994.5901,995.8206,0,0,left,0.7072,,995.8222,997.3535,0,0,left,997.3552,998.137,1,0,right,1,998.1371,998.1371,998.1388,999.637,0,46,46,46,1,0.2,0.8,0.6,0.4,,,,,,,,,,,,,,,1.0101,,0.6,0.4,0.2,0.8,0.6,0.4,0.2,0.8,,,0.2485,,0.4,0.6,0.8,0.2,0.6,0.4,0.2,0.8,1,0
,,66c34db91daa2cac0b579ee5,66fc98794744beadf84be40f,2024-10-02_01h49.51.150,mdp,2024.2.1,Win32,60.97560976,66fa4ebf79326e780c390304,,,,,,,,,,,,,,,,,,,,,999.6381,999.6381,999.64,1000.5039,0,0,left,0.3371,,1000.5057,1001.2869,1,1,right,1001.2886,1002.0868,1,1,right,0,1002.0868,1002.0869,1002.0887,1003.5867,0,47,47,47,1,0.2,0.8,0.6,0.4,,,,,,,,,,,,,,,0.2503,,0.6,0.4,0.2,0.8,0.6,0.4,0.2,0.8,,,0.2694,,0.4,0.6,0.8,0.2,0.6,0.4,0.2,0.8,1,0
,,66c34db91daa2cac0b579ee5,66fc98794744beadf84be40f,2024-10-02_01h49.51.150,mdp,2024.2.1,Win32,60.97560976,66fa4ebf79326e780c390304,,,,,,,,,,,,,,,,,,,,,1003.5876,1003.5876,1003.5891,1004.1532,0,1,left,0.0334,,1004.154,1005.0037,1,1,right,1005.0056,1005.8034,0,1,left,0,1005.8036,1005.8036,1005.8054,1007.3036,0,48,48,48,1,0.2,0.8,0.6,0.4,,,,,,,,,,,,,,,0.3275,,0.6,0.4,0.2,0.8,0.6,0.4,0.2,0.8,,,0.2677,,0.4,0.6,0.8,0.2,0.6,0.4,0.2,0.8,1,0
,,66c34db91daa2cac0b579ee5,66fc98794744beadf84be40f,2024-10-02_01h49.51.150,mdp,2024.2.1,Win32,60.97560976,66fa4ebf79326e780c390304,,,,,,,,,,,,,,,,,,,,,1007.3047,1007.3047,1007.3066,1008.087,0,0,left,0.2546,,1008.0887,1008.9199,1,0,right,1008.9221,1009.7204,0,1,left,0,1009.7205,1009.7205,1009.7227,1011.22,0,49,49,49,1,0.2,0.8,0.6,0.4,,,,,,,,,,,,,,,0.3034,,0.6,0.4,0.2,0.8,0.2,0.8,0.6,0.4,,,0.2768,,0.4,0.6,0.8,0.2,0.6,0.4,0.2,0.8,1,0
,,66c34db91daa2cac0b579ee5,66fc98794744beadf84be40f,2024-10-02_01h49.51.150,mdp,2024.2.1,Win32,60.97560976,66fa4ebf79326e780c390304,,,,,,,,,,,,,,,,,,,,,,,,,,,,,,,,,,,,,,,,,,,,,,,,,,,,,,,,1011.2202,1063.4929,0,3,3,1,1,imgs/giraffe.png,imgs/cat.png,imgs/squirrel.png,imgs/lion.png,imgs/rabbit.png,,,,,,,,,,,,,,,,,,,,,,,,
,,66c34db91daa2cac0b579ee5,66fc98794744beadf84be40f,2024-10-02_01h49.51.150,mdp,2024.2.1,Win32,60.97560976,66fa4ebf79326e780c390304,,,,,,,,,,,,,,1,seqs/st1seq12.csv,1063.5009,1065.1213,space,1.1007,,1065.1272,1065.1272,1065.1287,1066.217,0,0,left,0.5373,,1066.2189,1066.22,1,1,,1066.2212,1066.222,0,0,,1,1066.2221,1066.2221,1066.223,1067.717,0,0,0,0,1,0.8,0.2,0.6,0.4,1,0,,,,,,,,,,,,,,,,,,,,,,,,,,,,,,,,,,,,
,,66c34db91daa2cac0b579ee5,66fc98794744beadf84be40f,2024-10-02_01h49.51.150,mdp,2024.2.1,Win32,60.97560976,66fa4ebf79326e780c390304,,,,,,,,,,,,,,,,,,,,,1067.7177,1067.7177,1067.7197,1068.7671,0,0,left,0.516,,1068.769,1068.7698,1,0,,1068.7707,1068.7713,0,0,,1,1068.7713,1068.7713,1068.7721,1070.2666,0,1,1,1,1,0.8,0.2,0.6,0.4,1,0,,,,,,,,,,,,,,,,,,,,,,,,,,,,,,,,,,,,
,,66c34db91daa2cac0b579ee5,66fc98794744beadf84be40f,2024-10-02_01h49.51.150,mdp,2024.2.1,Win32,60.97560976,66fa4ebf79326e780c390304,,,,,,,,,,,,,,,,,,,,,1070.2668,1070.2668,1070.2675,1071.1839,0,0,left,0.3834,,1071.186,1071.187,1,0,,1071.1881,1071.189,0,0,,1,1071.189,1071.189,1071.19,1072.6836,0,2,2,2,1,0.8,0.2,0.6,0.4,1,0,,,,,,,,,,,,,,,,,,,,,,,,,,,,,,,,,,,,
,,66c34db91daa2cac0b579ee5,66fc98794744beadf84be40f,2024-10-02_01h49.51.150,mdp,2024.2.1,Win32,60.97560976,66fa4ebf79326e780c390304,,,,,,,,,,,,,,,,,,,,,1072.6842,1072.6842,1072.6858,1073.567,0,0,left,0.3617,,1073.5689,1073.57,1,0,,1073.5712,1073.572,0,0,,1,1073.572,1073.572,1073.5729,1075.0666,0,3,3,3,1,0.8,0.2,0.6,0.4,1,0,,,,,,,,,,,,,,,,,,,,,,,,,,,,,,,,,,,,
,,66c34db91daa2cac0b579ee5,66fc98794744beadf84be40f,2024-10-02_01h49.51.150,mdp,2024.2.1,Win32,60.97560976,66fa4ebf79326e780c390304,,,,,,,,,,,,,,,,,,,,,1075.0673,1075.0673,1075.069,1075.9504,0,0,left,0.3528,,1075.9524,1075.9534,1,0,,1075.9546,1075.9553,0,0,,1,1075.9554,1075.9554,1075.9564,1077.4502,0,4,4,4,1,0.8,0.2,0.6,0.4,1,0,,,,,,,,,,,,,,,,,,,,,,,,,,,,,,,,,,,,
,,66c34db91daa2cac0b579ee5,66fc98794744beadf84be40f,2024-10-02_01h49.51.150,mdp,2024.2.1,Win32,60.97560976,66fa4ebf79326e780c390304,,,,,,,,,,,,,,,,,,,,,1077.4509,1077.4509,1077.4527,1078.354,0,0,left,0.3843,,1078.3559,1078.3568,1,0,,1078.3579,1078.359,0,0,,1,1078.359,1078.359,1078.3601,1079.85,0,5,5,5,1,0.8,0.2,0.6,0.4,1,0,,,,,,,,,,,,,,,,,,,,,,,,,,,,,,,,,,,,
,,66c34db91daa2cac0b579ee5,66fc98794744beadf84be40f,2024-10-02_01h49.51.150,mdp,2024.2.1,Win32,60.97560976,66fa4ebf79326e780c390304,,,,,,,,,,,,,,,,,,,,,1079.8506,1079.8506,1079.852,1080.6499,0,0,left,0.2763,,1080.6513,1080.6522,1,1,,1080.653,1080.6534,0,1,,1,1080.6535,1080.6535,1080.6541,1082.15,0,6,6,6,1,0.8,0.2,0.6,0.4,1,0,,,,,,,,,,,,,,,,,,,,,,,,,,,,,,,,,,,,
,,66c34db91daa2cac0b579ee5,66fc98794744beadf84be40f,2024-10-02_01h49.51.150,mdp,2024.2.1,Win32,60.97560976,66fa4ebf79326e780c390304,,,,,,,,,,,,,,,,,,,,,1082.1507,1082.1507,1082.1524,1082.9501,0,0,left,0.2673,,1082.952,1082.9529,1,0,,1082.9541,1082.9549,0,0,,1,1082.9549,1082.9549,1082.9559,1084.4499,0,7,7,7,1,0.8,0.2,0.6,0.4,1,0,,,,,,,,,,,,,,,,,,,,,,,,,,,,,,,,,,,,
,,66c34db91daa2cac0b579ee5,66fc98794744beadf84be40f,2024-10-02_01h49.51.150,mdp,2024.2.1,Win32,60.97560976,66fa4ebf79326e780c390304,,,,,,,,,,,,,,,,,,,,,1084.4506,1084.4506,1084.4522,1085.2329,0,1,left,0.2614,,1085.2347,1085.2357,1,0,,1085.2369,1085.2377,0,0,,0,1085.2378,1085.2378,1085.2388,1086.7331,0,8,8,8,1,0.8,0.2,0.6,0.4,1,0,,,,,,,,,,,,,,,,,,,,,,,,,,,,,,,,,,,,
,,66c34db91daa2cac0b579ee5,66fc98794744beadf84be40f,2024-10-02_01h49.51.150,mdp,2024.2.1,Win32,60.97560976,66fa4ebf79326e780c390304,,,,,,,,,,,,,,,,,,,,,1086.7337,1086.7337,1086.7354,1087.817,1,0,right,0.562,,1087.8187,1087.8197,1,1,,1087.8208,1087.8216,0,0,,1,1087.8217,1087.8217,1087.8225,1089.3163,0,9,9,9,1,0.6,0.4,0.4,0.6,1,0,,,,,,,,,,,,,,,,,,,,,,,,,,,,,,,,,,,,
,,66c34db91daa2cac0b579ee5,66fc98794744beadf84be40f,2024-10-02_01h49.51.150,mdp,2024.2.1,Win32,60.97560976,66fa4ebf79326e780c390304,,,,,,,,,,,,,,,,,,,,,1089.3169,1089.3169,1089.3184,1090.2333,1,0,right,0.3856,,1090.2352,1090.2362,1,0,,1090.2373,1090.2381,0,0,,1,1090.2382,1090.2382,1090.2391,1091.7324,0,10,10,10,1,0.6,0.4,0.4,0.6,1,0,,,,,,,,,,,,,,,,,,,,,,,,,,,,,,,,,,,,
,,66c34db91daa2cac0b579ee5,66fc98794744beadf84be40f,2024-10-02_01h49.51.150,mdp,2024.2.1,Win32,60.97560976,66fa4ebf79326e780c390304,,,,,,,,,,,,,,,,,,,,,1091.7327,1091.7327,1091.7336,1092.7988,1,1,right,0.5504,,1092.8002,1092.8008,1,1,,1092.8015,1092.802,0,0,,0,1092.802,1092.8021,1092.8027,1094.2995,0,11,11,11,1,0.6,0.4,0.4,0.6,1,0,,,,,,,,,,,,,,,,,,,,,,,,,,,,,,,,,,,,
,,66c34db91daa2cac0b579ee5,66fc98794744beadf84be40f,2024-10-02_01h49.51.150,mdp,2024.2.1,Win32,60.97560976,66fa4ebf79326e780c390304,,,,,,,,,,,,,,,,,,,,,1094.3002,1094.3003,1094.3019,1095.1329,0,1,left,0.3007,,1095.1351,1095.1364,1,0,,1095.1375,1095.1383,0,1,,0,1095.1384,1095.1384,1095.1394,1096.6327,0,12,12,12,1,0.6,0.4,0.4,0.6,1,0,,,,,,,,,,,,,,,,,,,,,,,,,,,,,,,,,,,,
,,66c34db91daa2cac0b579ee5,66fc98794744beadf84be40f,2024-10-02_01h49.51.150,mdp,2024.2.1,Win32,60.97560976,66fa4ebf79326e780c390304,,,,,,,,,,,,,,,,,,,,,1096.6333,1096.6334,1096.6351,1097.4492,0,0,left,0.2954,,1097.4511,1097.4522,1,0,,1097.4533,1097.454,0,0,,1,1097.4541,1097.4541,1097.455,1098.9489,0,13,13,13,1,0.6,0.4,0.4,0.6,1,0,,,,,,,,,,,,,,,,,,,,,,,,,,,,,,,,,,,,
,,66c34db91daa2cac0b579ee5,66fc98794744beadf84be40f,2024-10-02_01h49.51.150,mdp,2024.2.1,Win32,60.97560976,66fa4ebf79326e780c390304,,,,,,,,,,,,,,,,,,,,,1098.9497,1098.9497,1098.9515,1100.0159,0,1,left,0.5366,,1100.0179,1100.0189,1,0,,1100.02,1100.0208,0,1,,0,1100.0209,1100.0209,1100.0219,1101.5157,0,14,14,14,1,0.6,0.4,0.4,0.6,1,0,,,,,,,,,,,,,,,,,,,,,,,,,,,,,,,,,,,,
,,66c34db91daa2cac0b579ee5,66fc98794744beadf84be40f,2024-10-02_01h49.51.150,mdp,2024.2.1,Win32,60.97560976,66fa4ebf79326e780c390304,,,,,,,,,,,,,,,,,,,,,1101.5163,1101.5164,1101.5181,1102.3326,1,1,right,0.2913,,1102.3345,1102.3355,1,1,,1102.3369,1102.3376,0,0,,0,1102.3377,1102.3377,1102.3387,1103.8325,0,15,15,15,1,0.6,0.4,0.4,0.6,1,0,,,,,,,,,,,,,,,,,,,,,,,,,,,,,,,,,,,,
,,66c34db91daa2cac0b579ee5,66fc98794744beadf84be40f,2024-10-02_01h49.51.150,mdp,2024.2.1,Win32,60.97560976,66fa4ebf79326e780c390304,,,,,,,,,,,,,,,,,,,,,1103.833,1103.8331,1103.8347,1104.6324,1,0,right,0.2694,,1104.6346,1104.6359,1,0,,1104.6371,1104.6379,0,1,,1,1104.6381,1104.6381,1104.639,1106.1322,0,16,16,16,1,0.8,0.2,0.8,0.2,1,0,,,,,,,,,,,,,,,,,,,,,,,,,,,,,,,,,,,,
,,66c34db91daa2cac0b579ee5,66fc98794744beadf84be40f,2024-10-02_01h49.51.150,mdp,2024.2.1,Win32,60.97560976,66fa4ebf79326e780c390304,,,,,,,,,,,,,,,,,,,,,1106.1329,1106.1329,1106.1347,1106.9488,1,0,right,0.2841,,1106.9507,1106.9518,1,1,,1106.9529,1106.9538,0,1,,1,1106.9539,1106.9539,1106.9548,1108.4486,0,17,17,17,1,0.8,0.2,0.8,0.2,1,0,,,,,,,,,,,,,,,,,,,,,,,,,,,,,,,,,,,,
,,66c34db91daa2cac0b579ee5,66fc98794744beadf84be40f,2024-10-02_01h49.51.150,mdp,2024.2.1,Win32,60.97560976,66fa4ebf79326e780c390304,,,,,,,,,,,,,,,,,,,,,1108.4493,1108.4493,1108.4511,1109.2325,1,0,right,0.2622,,1109.2343,1109.2352,1,0,,1109.2364,1109.2372,0,0,,1,1109.2373,1109.2373,1109.2382,1110.7318,0,18,18,18,1,0.8,0.2,0.8,0.2,1,0,,,,,,,,,,,,,,,,,,,,,,,,,,,,,,,,,,,,
,,66c34db91daa2cac0b579ee5,66fc98794744beadf84be40f,2024-10-02_01h49.51.150,mdp,2024.2.1,Win32,60.97560976,66fa4ebf79326e780c390304,,,,,,,,,,,,,,,,,,,,,1110.7324,1110.7324,1110.7342,1111.5653,1,0,right,0.3014,,1111.5673,1111.5683,1,0,,1111.5695,1111.5702,0,0,,1,1111.5702,1111.5702,1111.5712,1113.0652,0,19,19,19,1,0.8,0.2,0.8,0.2,1,0,,,,,,,,,,,,,,,,,,,,,,,,,,,,,,,,,,,,
,,66c34db91daa2cac0b579ee5,66fc98794744beadf84be40f,2024-10-02_01h49.51.150,mdp,2024.2.1,Win32,60.97560976,66fa4ebf79326e780c390304,,,,,,,,,,,,,,,,,,,,,1113.066,1113.066,1113.0675,1113.8983,1,0,right,0.3106,,1113.8998,1113.9005,1,1,,1113.9015,1113.902,0,1,,1,1113.9021,1113.9021,1113.9028,1115.3984,0,20,20,20,1,0.4,0.6,0.6,0.4,1,0,,,,,,,,,,,,,,,,,,,,,,,,,,,,,,,,,,,,
,,66c34db91daa2cac0b579ee5,66fc98794744beadf84be40f,2024-10-02_01h49.51.150,mdp,2024.2.1,Win32,60.97560976,66fa4ebf79326e780c390304,,,,,,,,,,,,,,,,,,,,,1115.399,1115.3991,1115.4011,1116.1151,1,1,right,0.1924,,1116.1172,1116.1183,1,1,,1116.1195,1116.1203,0,1,,0,1116.1203,1116.1203,1116.1213,1117.6141,0,21,21,21,1,0.4,0.6,0.6,0.4,1,0,,,,,,,,,,,,,,,,,,,,,,,,,,,,,,,,,,,,
,,66c34db91daa2cac0b579ee5,66fc98794744beadf84be40f,2024-10-02_01h49.51.150,mdp,2024.2.1,Win32,60.97560976,66fa4ebf79326e780c390304,,,,,,,,,,,,,,,,,,,,,1117.6145,1117.6145,1117.6154,1118.4813,0,1,left,0.3599,,1118.4833,1118.4843,1,0,,1118.4855,1118.4863,0,0,,0,1118.4864,1118.4864,1118.4874,1119.9814,0,22,22,22,1,0.6,0.4,0.4,0.6,1,0,,,,,,,,,,,,,,,,,,,,,,,,,,,,,,,,,,,,
,,66c34db91daa2cac0b579ee5,66fc98794744beadf84be40f,2024-10-02_01h49.51.150,mdp,2024.2.1,Win32,60.97560976,66fa4ebf79326e780c390304,,,,,,,,,,,,,,,,,,,,,1119.9819,1119.9819,1119.9833,1120.7841,0,1,left,0.281,,1120.786,1120.787,1,1,,1120.7881,1120.789,0,1,,0,1120.7891,1120.7891,1120.7901,1122.2811,0,23,23,23,1,0.6,0.4,0.4,0.6,1,0,,,,,,,,,,,,,,,,,,,,,,,,,,,,,,,,,,,,
,,66c34db91daa2cac0b579ee5,66fc98794744beadf84be40f,2024-10-02_01h49.51.150,mdp,2024.2.1,Win32,60.97560976,66fa4ebf79326e780c390304,,,,,,,,,,,,,,,,,,,,,1122.2819,1122.282,1122.2842,1123.0979,1,0,right,0.2847,,1123.0998,1123.1009,1,1,,1123.1021,1123.1028,0,1,,1,1123.1029,1123.1029,1123.1039,1124.5979,0,24,24,24,1,0.6,0.4,0.4,0.6,1,0,,,,,,,,,,,,,,,,,,,,,,,,,,,,,,,,,,,,
,,66c34db91daa2cac0b579ee5,66fc98794744beadf84be40f,2024-10-02_01h49.51.150,mdp,2024.2.1,Win32,60.97560976,66fa4ebf79326e780c390304,,,,,,,,,,,,,,,,,,,,,1124.5985,1124.5985,1124.6003,1125.4314,1,1,right,0.3001,,1125.4331,1125.4341,1,1,,1125.4353,1125.4361,0,0,,0,1125.4362,1125.4362,1125.4371,1126.931,0,25,25,25,1,0.6,0.4,0.4,0.6,1,0,,,,,,,,,,,,,,,,,,,,,,,,,,,,,,,,,,,,
,,66c34db91daa2cac0b579ee5,66fc98794744beadf84be40f,2024-10-02_01h49.51.150,mdp,2024.2.1,Win32,60.97560976,66fa4ebf79326e780c390304,,,,,,,,,,,,,,,,,,,,,1126.9315,1126.9315,1126.9326,1127.7143,0,0,left,0.251,,1127.7167,1127.7179,1,0,,1127.7192,1127.72,0,1,,1,1127.72,1127.72,1127.7209,1129.2145,0,26,26,26,1,0.6,0.4,0.4,0.6,1,0,,,,,,,,,,,,,,,,,,,,,,,,,,,,,,,,,,,,
,,66c34db91daa2cac0b579ee5,66fc98794744beadf84be40f,2024-10-02_01h49.51.150,mdp,2024.2.1,Win32,60.97560976,66fa4ebf79326e780c390304,,,,,,,,,,,,,,,,,,,,,1129.2152,1129.2152,1129.2168,1130.0146,0,1,left,0.2666,,1130.0163,1130.0172,1,0,,1130.0183,1130.0189,0,0,,0,1130.0189,1130.0189,1130.0198,1131.5139,0,27,27,27,1,0.6,0.4,0.4,0.6,1,0,,,,,,,,,,,,,,,,,,,,,,,,,,,,,,,,,,,,
,,66c34db91daa2cac0b579ee5,66fc98794744beadf84be40f,2024-10-02_01h49.51.150,mdp,2024.2.1,Win32,60.97560976,66fa4ebf79326e780c390304,,,,,,,,,,,,,,,,,,,,,1131.5146,1131.5146,1131.5164,1132.3475,0,1,left,0.3086,,1132.3492,1132.3502,1,0,,1132.3513,1132.3522,0,1,,0,1132.3522,1132.3522,1132.353,1133.8472,0,28,28,28,1,0.6,0.4,0.4,0.6,1,0,,,,,,,,,,,,,,,,,,,,,,,,,,,,,,,,,,,,
,,66c34db91daa2cac0b579ee5,66fc98794744beadf84be40f,2024-10-02_01h49.51.150,mdp,2024.2.1,Win32,60.97560976,66fa4ebf79326e780c390304,,,,,,,,,,,,,,,,,,,,,1133.8478,1133.8478,1133.8494,1134.6467,0,0,left,0.2771,,1134.6477,1134.648,1,0,,1134.6483,1134.6485,0,0,,1,1134.6485,1134.6485,1134.6488,1136.1473,0,29,29,29,1,0.8,0.2,0.6,0.4,1,0,,,,,,,,,,,,,,,,,,,,,,,,,,,,,,,,,,,,
,,66c34db91daa2cac0b579ee5,66fc98794744beadf84be40f,2024-10-02_01h49.51.150,mdp,2024.2.1,Win32,60.97560976,66fa4ebf79326e780c390304,,,,,,,,,,,,,,,,,,,,,1136.148,1136.148,1136.15,1136.931,0,1,left,0.2505,,1136.9328,1136.9337,1,0,,1136.935,1136.9358,0,1,,0,1136.9358,1136.9359,1136.9368,1138.4307,0,30,30,30,1,0.8,0.2,0.6,0.4,1,0,,,,,,,,,,,,,,,,,,,,,,,,,,,,,,,,,,,,
,,66c34db91daa2cac0b579ee5,66fc98794744beadf84be40f,2024-10-02_01h49.51.150,mdp,2024.2.1,Win32,60.97560976,66fa4ebf79326e780c390304,,,,,,,,,,,,,,,,,,,,,1138.4314,1138.4315,1138.433,1139.1637,1,1,right,0.2073,,1139.1652,1139.166,1,0,,1139.1669,1139.1675,0,1,,0,1139.1675,1139.1675,1139.1682,1140.664,0,31,31,31,1,0.8,0.2,0.6,0.4,1,0,,,,,,,,,,,,,,,,,,,,,,,,,,,,,,,,,,,,
,,66c34db91daa2cac0b579ee5,66fc98794744beadf84be40f,2024-10-02_01h49.51.150,mdp,2024.2.1,Win32,60.97560976,66fa4ebf79326e780c390304,,,,,,,,,,,,,,,,,,,,,1140.6646,1140.6647,1140.6663,1141.2807,1,0,right,0.0949,,1141.2826,1141.2838,1,0,,1141.285,1141.2859,0,0,,1,1141.286,1141.286,1141.2869,1142.7805,0,32,32,32,1,0.8,0.2,0.6,0.4,1,0,,,,,,,,,,,,,,,,,,,,,,,,,,,,,,,,,,,,
,,66c34db91daa2cac0b579ee5,66fc98794744beadf84be40f,2024-10-02_01h49.51.150,mdp,2024.2.1,Win32,60.97560976,66fa4ebf79326e780c390304,,,,,,,,,,,,,,,,,,,,,1142.7812,1142.7812,1142.7828,1143.5469,0,1,left,0.2344,,1143.5487,1143.5496,1,0,,1143.5508,1143.5516,0,1,,0,1143.5516,1143.5516,1143.5526,1145.0464,0,33,33,33,1,0.6,0.4,0.2,0.8,1,0,,,,,,,,,,,,,,,,,,,,,,,,,,,,,,,,,,,,
,,66c34db91daa2cac0b579ee5,66fc98794744beadf84be40f,2024-10-02_01h49.51.150,mdp,2024.2.1,Win32,60.97560976,66fa4ebf79326e780c390304,,,,,,,,,,,,,,,,,,,,,1145.0469,1145.047,1145.0481,1145.6468,0,1,left,0.0672,,1145.6487,1145.6497,1,0,,1145.6509,1145.6517,0,0,,0,1145.6517,1145.6517,1145.6527,1147.1466,0,34,34,34,1,0.6,0.4,0.2,0.8,1,0,,,,,,,,,,,,,,,,,,,,,,,,,,,,,,,,,,,,
,,66c34db91daa2cac0b579ee5,66fc98794744beadf84be40f,2024-10-02_01h49.51.150,mdp,2024.2.1,Win32,60.97560976,66fa4ebf79326e780c390304,,,,,,,,,,,,,,,,,,,,,1147.1474,1147.1474,1147.1496,1147.9637,1,1,right,0.2921,,1147.9658,1147.967,1,1,,1147.9681,1147.969,0,1,,0,1147.9691,1147.9691,1147.97,1149.4632,0,35,35,35,1,0.6,0.4,0.2,0.8,1,0,,,,,,,,,,,,,,,,,,,,,,,,,,,,,,,,,,,,
,,66c34db91daa2cac0b579ee5,66fc98794744beadf84be40f,2024-10-02_01h49.51.150,mdp,2024.2.1,Win32,60.97560976,66fa4ebf79326e780c390304,,,,,,,,,,,,,,,,,,,,,1149.4635,1149.4635,1149.4643,1150.4136,0,1,left,0.4395,,1150.4153,1150.4162,1,1,,1150.4173,1150.418,0,1,,0,1150.418,1150.418,1150.4189,1151.9134,0,36,36,36,1,0.6,0.4,0.2,0.8,1,0,,,,,,,,,,,,,,,,,,,,,,,,,,,,,,,,,,,,
,,66c34db91daa2cac0b579ee5,66fc98794744beadf84be40f,2024-10-02_01h49.51.150,mdp,2024.2.1,Win32,60.97560976,66fa4ebf79326e780c390304,,,,,,,,,,,,,,,,,,,,,1151.914,1151.914,1151.9155,1152.83,0,0,left,0.3855,,1152.8319,1152.8329,1,1,,1152.8341,1152.8349,0,0,,1,1152.835,1152.835,1152.8359,1154.3299,0,37,37,37,1,0.6,0.4,0.2,0.8,1,0,,,,,,,,,,,,,,,,,,,,,,,,,,,,,,,,,,,,
,,66c34db91daa2cac0b579ee5,66fc98794744beadf84be40f,2024-10-02_01h49.51.150,mdp,2024.2.1,Win32,60.97560976,66fa4ebf79326e780c390304,,,,,,,,,,,,,,,,,,,,,1154.3306,1154.3306,1154.3323,1155.4634,0,0,left,0.6048,,1155.4653,1155.4663,1,0,,1155.4675,1155.4684,0,0,,1,1155.4684,1155.4684,1155.4695,1156.9629,0,38,38,38,1,0.6,0.4,0.2,0.8,1,0,,,,,,,,,,,,,,,,,,,,,,,,,,,,,,,,,,,,
,,66c34db91daa2cac0b579ee5,66fc98794744beadf84be40f,2024-10-02_01h49.51.150,mdp,2024.2.1,Win32,60.97560976,66fa4ebf79326e780c390304,,,,,,,,,,,,,,,,,,,,,1156.9635,1156.9635,1156.9653,1157.6297,0,1,left,0.1393,,1157.6315,1157.6327,1,1,,1157.6337,1157.6345,0,1,,0,1157.6346,1157.6346,1157.6355,1159.1294,0,39,39,39,1,0.6,0.4,0.2,0.8,1,0,,,,,,,,,,,,,,,,,,,,,,,,,,,,,,,,,,,,
,,66c34db91daa2cac0b579ee5,66fc98794744beadf84be40f,2024-10-02_01h49.51.150,mdp,2024.2.1,Win32,60.97560976,66fa4ebf79326e780c390304,,,,,,,,,,,,,,,,,,,,,1159.1299,1159.1299,1159.1309,1160.2131,0,1,left,0.5566,,1160.215,1160.216,1,0,,1160.2172,1160.218,0,1,,0,1160.218,1160.2181,1160.2189,1161.7127,0,40,40,40,1,0.6,0.4,0.2,0.8,1,0,,,,,,,,,,,,,,,,,,,,,,,,,,,,,,,,,,,,
,,66c34db91daa2cac0b579ee5,66fc98794744beadf84be40f,2024-10-02_01h49.51.150,mdp,2024.2.1,Win32,60.97560976,66fa4ebf79326e780c390304,,,,,,,,,,,,,,,,,,,,,1161.7134,1161.7135,1161.7152,1162.4131,1,0,right,0.1672,,1162.4148,1162.416,1,1,,1162.4171,1162.4179,0,1,,1,1162.418,1162.4181,1162.419,1163.9129,0,41,41,41,1,0.6,0.4,0.2,0.8,1,0,,,,,,,,,,,,,,,,,,,,,,,,,,,,,,,,,,,,
