init_exp.started,init_exp.stopped,participant,session,date,expName,psychopyVersion,OS,frameRate,study_id,disp_instruction.started,disp_instruction.stopped,instruction.thisRepN,instruction.thisTrialN,instruction.thisN,instruction.thisIndex,instruction.ran,instimg_path,consent.started,consent.stopped,key_resp_3.keys,key_resp_3.rt,key_resp_3.duration,n_steps,sequence_path,init_block.started,init_block.stopped,key_resp.keys,key_resp.rt,key_resp.duration,init_trials.started,init_trials.stopped,step0.started,step0.stopped,act0,s1,res0.keys,res0.rt,res0.duration,step1.started,step1.stopped,act1,s2,res1.keys,step2.started,step2.stopped,act2,s3,res2.keys,rew,reward_comp.started,reward_comp.stopped,reward_disp.started,reward_disp.stopped,trials.thisRepN,trials.thisTrialN,trials.thisN,trials.thisIndex,trials.ran,s00a0s10,s00a0s11,s00a1s10,s00a1s11,rew10,rew11,break_block.started,break_block.stopped,block.thisRepN,block.thisTrialN,block.thisN,block.thisIndex,block.ran,s00path,s10path,s11path,s20path,s21path,res1.rt,res1.duration,s10a0s20,s10a0s21,s10a1s20,s10a1s21,s11a0s20,s11a0s21,s11a1s20,s11a1s21,rew20,rew21,res2.rt,res2.duration,s20a0s30,s20a0s31,s20a1s30,s20a1s31,s21a0s30,s21a0s31,s21a1s30,s21a1s31,rew30,rew31
0.0005,0.0035,66c8aa0e9285869764f64e0d,66fc9881e3a790fbd7a55324,2024-10-01_17h57.56.750,mdp,2024.2.1,Win32,58.82352941,66fa4ebf79326e780c390304,,,,,,,,,,,,,,,,,,,,,,,,,,,,,,,,,,,,,,,,,,,,,,,,,,,,,,,,,,,,,,,,,,,,,,,,,,,,,,,,,,,,,,,,,,,
,,66c8aa0e9285869764f64e0d,66fc9881e3a790fbd7a55324,2024-10-01_17h57.56.750,mdp,2024.2.1,Win32,58.82352941,66fa4ebf79326e780c390304,0.0146,17.6105,0,0,0,0,1,rlnn_exp/rlnn_exp.001.png,,,,,,,,,,,,,,,,,,,,,,,,,,,,,,,,,,,,,,,,,,,,,,,,,,,,,,,,,,,,,,,,,,,,,,,,,,,,,,,,,,,
,,66c8aa0e9285869764f64e0d,66fc9881e3a790fbd7a55324,2024-10-01_17h57.56.750,mdp,2024.2.1,Win32,58.82352941,66fa4ebf79326e780c390304,17.612,29.4038,0,1,1,1,1,rlnn_exp/rlnn_exp.002.png,,,,,,,,,,,,,,,,,,,,,,,,,,,,,,,,,,,,,,,,,,,,,,,,,,,,,,,,,,,,,,,,,,,,,,,,,,,,,,,,,,,
,,66c8aa0e9285869764f64e0d,66fc9881e3a790fbd7a55324,2024-10-01_17h57.56.750,mdp,2024.2.1,Win32,58.82352941,66fa4ebf79326e780c390304,29.4196,55.3329,0,2,2,2,1,rlnn_exp/rlnn_exp.003.png,,,,,,,,,,,,,,,,,,,,,,,,,,,,,,,,,,,,,,,,,,,,,,,,,,,,,,,,,,,,,,,,,,,,,,,,,,,,,,,,,,,
,,66c8aa0e9285869764f64e0d,66fc9881e3a790fbd7a55324,2024-10-01_17h57.56.750,mdp,2024.2.1,Win32,58.82352941,66fa4ebf79326e780c390304,55.3652,94.11,0,3,3,3,1,rlnn_exp/rlnn_exp.004.png,,,,,,,,,,,,,,,,,,,,,,,,,,,,,,,,,,,,,,,,,,,,,,,,,,,,,,,,,,,,,,,,,,,,,,,,,,,,,,,,,,,
,,66c8aa0e9285869764f64e0d,66fc9881e3a790fbd7a55324,2024-10-01_17h57.56.750,mdp,2024.2.1,Win32,58.82352941,66fa4ebf79326e780c390304,,,,,,,,,94.1417,143.264,y,39.082,,,,,,,,,,,,,,,,,,,,,,,,,,,,,,,,,,,,,,,,,,,,,,,,,,,,,,,,,,,,,,,,,,,,,,,,,,,,,,,
,,66c8aa0e9285869764f64e0d,66fc9881e3a790fbd7a55324,2024-10-01_17h57.56.750,mdp,2024.2.1,Win32,58.82352941,66fa4ebf79326e780c390304,,,,,,,,,,,,,,1,seqs/st1seq28.csv,143.2868,146.1469,space,2.3353,,146.1548,146.1551,146.156,238.1794,1,0,right,91.4921,,238.1938,238.1979,,1,,238.1986,238.2019,,1,,1,238.2021,238.2023,238.203,239.6943,0,0,0,0,1,0.8,0.2,0.8,0.2,1,0,,,,,,,,,,,,,,,,,,,,,,,,,,,,,,,,,,,,
,,66c8aa0e9285869764f64e0d,66fc9881e3a790fbd7a55324,2024-10-01_17h57.56.750,mdp,2024.2.1,Win32,58.82352941,66fa4ebf79326e780c390304,,,,,,,,,,,,,,,,,,,,,239.6954,239.6954,239.6981,244.3101,1,0,right,4.0825,,244.3252,244.3269,,0,,244.3286,244.3303,,0,,1,244.3304,244.3304,244.3317,245.8269,0,1,1,1,1,0.8,0.2,0.8,0.2,1,0,,,,,,,,,,,,,,,,,,,,,,,,,,,,,,,,,,,,
,,66c8aa0e9285869764f64e0d,66fc9881e3a790fbd7a55324,2024-10-01_17h57.56.750,mdp,2024.2.1,Win32,58.82352941,66fa4ebf79326e780c390304,,,,,,,,,,,,,,,,,,,,,245.829,245.8291,245.8329,246.4441,1,1,right,0.0847,,246.4477,246.4502,,0,,246.4526,246.4551,,0,,0,246.4552,246.4553,246.4585,247.9435,0,2,2,2,1,0.8,0.2,0.8,0.2,1,0,,,,,,,,,,,,,,,,,,,,,,,,,,,,,,,,,,,,
,,66c8aa0e9285869764f64e0d,66fc9881e3a790fbd7a55324,2024-10-01_17h57.56.750,mdp,2024.2.1,Win32,58.82352941,66fa4ebf79326e780c390304,,,,,,,,,,,,,,,,,,,,,247.945,247.9451,247.9488,249.1101,1,1,right,0.6345,,249.1136,249.1161,,0,,249.1185,249.1207,,1,,0,249.1208,249.1208,249.123,250.6094,0,3,3,3,1,0.8,0.2,0.8,0.2,1,0,,,,,,,,,,,,,,,,,,,,,,,,,,,,,,,,,,,,
,,66c8aa0e9285869764f64e0d,66fc9881e3a790fbd7a55324,2024-10-01_17h57.56.750,mdp,2024.2.1,Win32,58.82352941,66fa4ebf79326e780c390304,,,,,,,,,,,,,,,,,,,,,250.611,250.6111,250.6141,253.1776,1,0,right,2.0415,,253.181,253.1834,,0,,253.1859,253.1882,,0,,1,253.1884,253.1884,253.1917,254.6921,0,4,4,4,1,0.8,0.2,0.8,0.2,1,0,,,,,,,,,,,,,,,,,,,,,,,,,,,,,,,,,,,,
,,66c8aa0e9285869764f64e0d,66fc9881e3a790fbd7a55324,2024-10-01_17h57.56.750,mdp,2024.2.1,Win32,58.82352941,66fa4ebf79326e780c390304,,,,,,,,,,,,,,,,,,,,,254.6936,254.6937,254.6971,255.8242,1,0,right,0.6012,,255.8263,255.828,,0,,255.8297,255.831,,0,,1,255.8311,255.8311,255.8324,257.3239,0,5,5,5,1,0.8,0.2,0.8,0.2,1,0,,,,,,,,,,,,,,,,,,,,,,,,,,,,,,,,,,,,
,,66c8aa0e9285869764f64e0d,66fc9881e3a790fbd7a55324,2024-10-01_17h57.56.750,mdp,2024.2.1,Win32,58.82352941,66fa4ebf79326e780c390304,,,,,,,,,,,,,,,,,,,,,257.325,257.325,257.3273,258.275,1,1,right,0.4198,,258.2785,258.281,,0,,258.2834,258.2858,,1,,0,258.2859,258.2859,258.2881,259.774,0,6,6,6,1,0.6,0.4,0.2,0.8,1,0,,,,,,,,,,,,,,,,,,,,,,,,,,,,,,,,,,,,
,,66c8aa0e9285869764f64e0d,66fc9881e3a790fbd7a55324,2024-10-01_17h57.56.750,mdp,2024.2.1,Win32,58.82352941,66fa4ebf79326e780c390304,,,,,,,,,,,,,,,,,,,,,259.7761,259.7762,259.7798,260.6077,1,1,right,0.3009,,260.6113,260.6137,,1,,260.6161,260.6184,,0,,0,260.6186,260.6186,260.6206,262.1067,0,7,7,7,1,0.6,0.4,0.2,0.8,1,0,,,,,,,,,,,,,,,,,,,,,,,,,,,,,,,,,,,,
,,66c8aa0e9285869764f64e0d,66fc9881e3a790fbd7a55324,2024-10-01_17h57.56.750,mdp,2024.2.1,Win32,58.82352941,66fa4ebf79326e780c390304,,,,,,,,,,,,,,,,,,,,,262.1089,262.109,262.1121,263.1576,1,0,right,0.5179,,263.1607,263.1631,,1,,263.1657,263.1679,,0,,1,263.168,263.1681,263.1716,264.6562,0,8,8,8,1,0.8,0.2,0.4,0.6,1,0,,,,,,,,,,,,,,,,,,,,,,,,,,,,,,,,,,,,
,,66c8aa0e9285869764f64e0d,66fc9881e3a790fbd7a55324,2024-10-01_17h57.56.750,mdp,2024.2.1,Win32,58.82352941,66fa4ebf79326e780c390304,,,,,,,,,,,,,,,,,,,,,264.6584,264.6584,264.6618,265.3567,1,0,right,0.1678,,265.3604,265.3626,,0,,265.365,265.3675,,1,,1,265.3676,265.3676,265.3718,266.8561,0,9,9,9,1,0.8,0.2,0.4,0.6,1,0,,,,,,,,,,,,,,,,,,,,,,,,,,,,,,,,,,,,
,,66c8aa0e9285869764f64e0d,66fc9881e3a790fbd7a55324,2024-10-01_17h57.56.750,mdp,2024.2.1,Win32,58.82352941,66fa4ebf79326e780c390304,,,,,,,,,,,,,,,,,,,,,266.8578,266.8579,266.8604,267.7722,1,1,right,0.3866,,267.7762,267.7784,,0,,267.7807,267.7829,,0,,0,267.783,267.7831,267.786,269.2716,0,10,10,10,1,0.8,0.2,0.4,0.6,1,0,,,,,,,,,,,,,,,,,,,,,,,,,,,,,,,,,,,,
,,66c8aa0e9285869764f64e0d,66fc9881e3a790fbd7a55324,2024-10-01_17h57.56.750,mdp,2024.2.1,Win32,58.82352941,66fa4ebf79326e780c390304,,,,,,,,,,,,,,,,,,,,,269.2721,269.2721,269.2741,269.8718,1,0,right,0.0671,,269.8738,269.8755,,1,,269.8771,269.8784,,1,,1,269.8785,269.8785,269.8799,271.373,0,11,11,11,1,0.8,0.2,0.4,0.6,1,0,,,,,,,,,,,,,,,,,,,,,,,,,,,,,,,,,,,,
,,66c8aa0e9285869764f64e0d,66fc9881e3a790fbd7a55324,2024-10-01_17h57.56.750,mdp,2024.2.1,Win32,58.82352941,66fa4ebf79326e780c390304,,,,,,,,,,,,,,,,,,,,,271.3737,271.3738,271.3766,272.4583,1,1,right,0.5609,,272.4612,272.4635,,0,,272.4659,272.4681,,1,,0,272.4682,272.4682,272.4732,273.9714,0,12,12,12,1,0.8,0.2,0.4,0.6,1,0,,,,,,,,,,,,,,,,,,,,,,,,,,,,,,,,,,,,
,,66c8aa0e9285869764f64e0d,66fc9881e3a790fbd7a55324,2024-10-01_17h57.56.750,mdp,2024.2.1,Win32,58.82352941,66fa4ebf79326e780c390304,,,,,,,,,,,,,,,,,,,,,273.9731,273.9731,273.9762,274.8213,1,0,right,0.3199,,274.8256,274.8276,,1,,274.8301,274.832,,1,,1,274.8321,274.8321,274.834,276.3209,0,13,13,13,1,0.8,0.2,0.4,0.6,1,0,,,,,,,,,,,,,,,,,,,,,,,,,,,,,,,,,,,,
,,66c8aa0e9285869764f64e0d,66fc9881e3a790fbd7a55324,2024-10-01_17h57.56.750,mdp,2024.2.1,Win32,58.82352941,66fa4ebf79326e780c390304,,,,,,,,,,,,,,,,,,,,,276.3224,276.3225,276.3255,277.2375,1,1,right,0.3847,,277.2406,277.2427,,0,,277.2449,277.2469,,0,,0,277.247,277.247,277.2489,278.7381,0,14,14,14,1,0.8,0.2,0.4,0.6,1,0,,,,,,,,,,,,,,,,,,,,,,,,,,,,,,,,,,,,
,,66c8aa0e9285869764f64e0d,66fc9881e3a790fbd7a55324,2024-10-01_17h57.56.750,mdp,2024.2.1,Win32,58.82352941,66fa4ebf79326e780c390304,,,,,,,,,,,,,,,,,,,,,278.7388,278.7389,278.7418,281.0042,1,1,right,1.7343,,281.0074,281.0094,,0,,281.0117,281.0136,,1,,0,281.0137,281.0137,281.0157,282.5029,0,15,15,15,1,0.8,0.2,0.4,0.6,1,0,,,,,,,,,,,,,,,,,,,,,,,,,,,,,,,,,,,,
,,66c8aa0e9285869764f64e0d,66fc9881e3a790fbd7a55324,2024-10-01_17h57.56.750,mdp,2024.2.1,Win32,58.82352941,66fa4ebf79326e780c390304,,,,,,,,,,,,,,,,,,,,,282.5043,282.5044,282.5069,283.8528,1,0,right,0.8203,,283.8572,283.8594,,1,,283.8615,283.8636,,0,,1,283.8636,283.8637,283.8655,285.3518,0,16,16,16,1,0.8,0.2,0.4,0.6,1,0,,,,,,,,,,,,,,,,,,,,,,,,,,,,,,,,,,,,
,,66c8aa0e9285869764f64e0d,66fc9881e3a790fbd7a55324,2024-10-01_17h57.56.750,mdp,2024.2.1,Win32,58.82352941,66fa4ebf79326e780c390304,,,,,,,,,,,,,,,,,,,,,285.3533,285.3533,285.3563,286.8186,1,1,right,0.9374,,286.8221,286.8241,,1,,286.8264,286.8284,,0,,0,286.8285,286.8286,286.8308,288.3183,0,17,17,17,1,0.8,0.2,0.4,0.6,1,0,,,,,,,,,,,,,,,,,,,,,,,,,,,,,,,,,,,,
,,66c8aa0e9285869764f64e0d,66fc9881e3a790fbd7a55324,2024-10-01_17h57.56.750,mdp,2024.2.1,Win32,58.82352941,66fa4ebf79326e780c390304,,,,,,,,,,,,,,,,,,,,,288.3199,288.32,288.3225,291.5679,1,0,right,2.7173,,291.5966,291.5995,,1,,291.6016,291.6036,,0,,1,291.6037,291.6037,291.6069,293.1009,0,18,18,18,1,0.2,0.8,0.6,0.4,1,0,,,,,,,,,,,,,,,,,,,,,,,,,,,,,,,,,,,,
,,66c8aa0e9285869764f64e0d,66fc9881e3a790fbd7a55324,2024-10-01_17h57.56.750,mdp,2024.2.1,Win32,58.82352941,66fa4ebf79326e780c390304,,,,,,,,,,,,,,,,,,,,,293.1024,293.1025,293.1057,295.2358,1,1,right,1.6088,,295.2392,295.2413,,0,,295.2437,295.2457,,1,,0,295.2459,295.2459,295.2496,296.7501,0,19,19,19,1,0.6,0.4,0.2,0.8,1,0,,,,,,,,,,,,,,,,,,,,,,,,,,,,,,,,,,,,
,,66c8aa0e9285869764f64e0d,66fc9881e3a790fbd7a55324,2024-10-01_17h57.56.750,mdp,2024.2.1,Win32,58.82352941,66fa4ebf79326e780c390304,,,,,,,,,,,,,,,,,,,,,296.7517,296.7518,296.7549,298.6517,1,1,right,1.3748,,298.6554,298.6579,,1,,298.6601,298.6625,,1,,0,298.6626,298.6626,298.6661,300.1651,0,20,20,20,1,0.6,0.4,0.2,0.8,1,0,,,,,,,,,,,,,,,,,,,,,,,,,,,,,,,,,,,,
,,66c8aa0e9285869764f64e0d,66fc9881e3a790fbd7a55324,2024-10-01_17h57.56.750,mdp,2024.2.1,Win32,58.82352941,66fa4ebf79326e780c390304,,,,,,,,,,,,,,,,,,,,,300.1663,300.1663,300.1681,301.1995,1,1,right,0.5021,,301.2028,301.2048,,1,,301.2071,301.2094,,1,,0,301.2094,301.2095,301.2116,302.6989,0,21,21,21,1,0.6,0.4,0.2,0.8,1,0,,,,,,,,,,,,,,,,,,,,,,,,,,,,,,,,,,,,
,,66c8aa0e9285869764f64e0d,66fc9881e3a790fbd7a55324,2024-10-01_17h57.56.750,mdp,2024.2.1,Win32,58.82352941,66fa4ebf79326e780c390304,,,,,,,,,,,,,,,,,,,,,302.7006,302.7006,302.7034,304.2154,1,1,right,0.9841,,304.2188,304.2208,,1,,304.2232,304.2252,,1,,0,304.2254,304.2254,304.2276,305.7142,0,22,22,22,1,0.6,0.4,0.2,0.8,1,0,,,,,,,,,,,,,,,,,,,,,,,,,,,,,,,,,,,,
,,66c8aa0e9285869764f64e0d,66fc9881e3a790fbd7a55324,2024-10-01_17h57.56.750,mdp,2024.2.1,Win32,58.82352941,66fa4ebf79326e780c390304,,,,,,,,,,,,,,,,,,,,,305.7159,305.7159,305.7189,307.0144,1,0,right,0.7714,,307.0185,307.0206,,0,,307.0229,307.0251,,1,,1,307.0252,307.0252,307.0271,308.5144,0,23,23,23,1,0.6,0.4,0.2,0.8,1,0,,,,,,,,,,,,,,,,,,,,,,,,,,,,,,,,,,,,
,,66c8aa0e9285869764f64e0d,66fc9881e3a790fbd7a55324,2024-10-01_17h57.56.750,mdp,2024.2.1,Win32,58.82352941,66fa4ebf79326e780c390304,,,,,,,,,,,,,,,,,,,,,308.516,308.516,308.5192,309.2656,1,1,right,0.2247,,309.269,309.2711,,1,,309.2733,309.2756,,0,,0,309.2757,309.2757,309.2794,310.7646,0,24,24,24,1,0.6,0.4,0.2,0.8,1,0,,,,,,,,,,,,,,,,,,,,,,,,,,,,,,,,,,,,
,,66c8aa0e9285869764f64e0d,66fc9881e3a790fbd7a55324,2024-10-01_17h57.56.750,mdp,2024.2.1,Win32,58.82352941,66fa4ebf79326e780c390304,,,,,,,,,,,,,,,,,,,,,310.7665,310.7665,310.7695,311.8472,1,1,right,0.5687,,311.8506,311.853,,1,,311.8553,311.8574,,1,,0,311.8574,311.8575,311.8595,313.3465,0,25,25,25,1,0.6,0.4,0.2,0.8,1,0,,,,,,,,,,,,,,,,,,,,,,,,,,,,,,,,,,,,
,,66c8aa0e9285869764f64e0d,66fc9881e3a790fbd7a55324,2024-10-01_17h57.56.750,mdp,2024.2.1,Win32,58.82352941,66fa4ebf79326e780c390304,,,,,,,,,,,,,,,,,,,,,313.3484,313.3484,313.3514,318.8458,1,1,right,4.9686,,318.8758,318.8782,,1,,318.8797,318.8814,,1,,0,318.8815,318.8815,318.8829,320.3786,0,26,26,26,1,0.6,0.4,0.2,0.8,1,0,,,,,,,,,,,,,,,,,,,,,,,,,,,,,,,,,,,,
,,66c8aa0e9285869764f64e0d,66fc9881e3a790fbd7a55324,2024-10-01_17h57.56.750,mdp,2024.2.1,Win32,58.82352941,66fa4ebf79326e780c390304,,,,,,,,,,,,,,,,,,,,,320.3802,320.3802,320.3829,322.0116,1,1,right,1.1008,,322.0152,322.0174,,1,,322.0196,322.0216,,1,,0,322.0217,322.0218,322.0238,323.5113,0,27,27,27,1,0.6,0.4,0.2,0.8,1,0,,,,,,,,,,,,,,,,,,,,,,,,,,,,,,,,,,,,
,,66c8aa0e9285869764f64e0d,66fc9881e3a790fbd7a55324,2024-10-01_17h57.56.750,mdp,2024.2.1,Win32,58.82352941,66fa4ebf79326e780c390304,,,,,,,,,,,,,,,,,,,,,323.513,323.513,323.5161,324.7113,1,1,right,0.6676,,324.7146,324.7171,,1,,324.7193,324.7213,,1,,0,324.7214,324.7215,324.7237,326.2275,0,28,28,28,1,0.6,0.4,0.2,0.8,1,0,,,,,,,,,,,,,,,,,,,,,,,,,,,,,,,,,,,,
,,66c8aa0e9285869764f64e0d,66fc9881e3a790fbd7a55324,2024-10-01_17h57.56.750,mdp,2024.2.1,Win32,58.82352941,66fa4ebf79326e780c390304,,,,,,,,,,,,,,,,,,,,,326.2292,326.2292,326.2323,326.7775,1,1,right,0.0194,,326.7808,326.7831,,1,,326.7859,326.7879,,1,,0,326.7881,326.7881,326.79,328.2772,0,29,29,29,1,0.6,0.4,0.2,0.8,1,0,,,,,,,,,,,,,,,,,,,,,,,,,,,,,,,,,,,,
,,66c8aa0e9285869764f64e0d,66fc9881e3a790fbd7a55324,2024-10-01_17h57.56.750,mdp,2024.2.1,Win32,58.82352941,66fa4ebf79326e780c390304,,,,,,,,,,,,,,,,,,,,,328.2786,328.2787,328.2816,330.3644,1,1,right,1.5519,,330.3671,330.3688,,1,,330.3712,330.3752,,1,,0,330.3754,330.3754,330.3781,331.8762,0,30,30,30,1,0.6,0.4,0.2,0.8,1,0,,,,,,,,,,,,,,,,,,,,,,,,,,,,,,,,,,,,
,,66c8aa0e9285869764f64e0d,66fc9881e3a790fbd7a55324,2024-10-01_17h57.56.750,mdp,2024.2.1,Win32,58.82352941,66fa4ebf79326e780c390304,,,,,,,,,,,,,,,,,,,,,331.8777,331.8777,331.8801,333.6927,1,1,right,1.2843,,333.6957,333.6978,,1,,333.6999,333.7018,,1,,0,333.7019,333.702,333.7041,335.193,0,31,31,31,1,0.6,0.4,0.2,0.8,1,0,,,,,,,,,,,,,,,,,,,,,,,,,,,,,,,,,,,,
,,66c8aa0e9285869764f64e0d,66fc9881e3a790fbd7a55324,2024-10-01_17h57.56.750,mdp,2024.2.1,Win32,58.82352941,66fa4ebf79326e780c390304,,,,,,,,,,,,,,,,,,,,,335.1937,335.1937,335.1967,335.8431,1,0,right,0.1181,,335.8456,335.8479,,0,,335.85,335.8519,,0,,1,335.852,335.852,335.854,337.34,0,32,32,32,1,0.4,0.6,0.6,0.4,1,0,,,,,,,,,,,,,,,,,,,,,,,,,,,,,,,,,,,,
,,66c8aa0e9285869764f64e0d,66fc9881e3a790fbd7a55324,2024-10-01_17h57.56.750,mdp,2024.2.1,Win32,58.82352941,66fa4ebf79326e780c390304,,,,,,,,,,,,,,,,,,,,,337.3426,337.3427,337.3455,338.2265,1,0,right,0.3584,,338.2297,338.2317,,0,,338.2339,338.2361,,0,,1,338.2362,338.2362,338.238,339.7412,0,33,33,33,1,0.4,0.6,0.6,0.4,1,0,,,,,,,,,,,,,,,,,,,,,,,,,,,,,,,,,,,,
,,66c8aa0e9285869764f64e0d,66fc9881e3a790fbd7a55324,2024-10-01_17h57.56.750,mdp,2024.2.1,Win32,58.82352941,66fa4ebf79326e780c390304,,,,,,,,,,,,,,,,,,,,,339.7428,339.7428,339.7452,340.8578,1,1,right,0.5845,,340.861,340.8632,,0,,340.8652,340.8671,,0,,0,340.8673,340.8673,340.8692,342.3582,0,34,34,34,1,0.4,0.6,0.6,0.4,1,0,,,,,,,,,,,,,,,,,,,,,,,,,,,,,,,,,,,,
,,66c8aa0e9285869764f64e0d,66fc9881e3a790fbd7a55324,2024-10-01_17h57.56.750,mdp,2024.2.1,Win32,58.82352941,66fa4ebf79326e780c390304,,,,,,,,,,,,,,,,,,,,,342.3591,342.3591,342.362,343.1915,1,0,right,0.3013,,343.1942,343.1963,,1,,343.1983,343.2003,,0,,1,343.2004,343.2004,343.2023,344.6897,0,35,35,35,1,0.4,0.6,0.6,0.4,1,0,,,,,,,,,,,,,,,,,,,,,,,,,,,,,,,,,,,,
,,66c8aa0e9285869764f64e0d,66fc9881e3a790fbd7a55324,2024-10-01_17h57.56.750,mdp,2024.2.1,Win32,58.82352941,66fa4ebf79326e780c390304,,,,,,,,,,,,,,,,,,,,,344.6913,344.6913,344.6941,345.4733,1,1,right,0.2513,,345.477,345.4793,,0,,345.4819,345.4838,,0,,0,345.484,345.484,345.486,346.9745,0,36,36,36,1,0.4,0.6,0.6,0.4,1,0,,,,,,,,,,,,,,,,,,,,,,,,,,,,,,,,,,,,
,,66c8aa0e9285869764f64e0d,66fc9881e3a790fbd7a55324,2024-10-01_17h57.56.750,mdp,2024.2.1,Win32,58.82352941,66fa4ebf79326e780c390304,,,,,,,,,,,,,,,,,,,,,346.9751,346.9751,346.978,347.9242,1,1,right,0.418,,347.9272,347.9293,,1,,347.9319,347.9337,,1,,0,347.9339,347.9339,347.9361,349.4228,0,37,37,37,1,0.4,0.6,0.6,0.4,1,0,,,,,,,,,,,,,,,,,,,,,,,,,,,,,,,,,,,,
,,66c8aa0e9285869764f64e0d,66fc9881e3a790fbd7a55324,2024-10-01_17h57.56.750,mdp,2024.2.1,Win32,58.82352941,66fa4ebf79326e780c390304,,,,,,,,,,,,,,,,,,,,,349.4245,349.4245,349.4277,350.0561,1,1,right,0.1021,,350.0594,350.0616,,1,,350.064,350.066,,0,,0,350.0661,350.0661,350.0679,351.5556,0,38,38,38,1,0.4,0.6,0.6,0.4,1,0,,,,,,,,,,,,,,,,,,,,,,,,,,,,,,,,,,,,
,,66c8aa0e9285869764f64e0d,66fc9881e3a790fbd7a55324,2024-10-01_17h57.56.750,mdp,2024.2.1,Win32,58.82352941,66fa4ebf79326e780c390304,,,,,,,,,,,,,,,,,,,,,351.5573,351.5573,351.5603,352.4725,1,0,right,0.3847,,352.4758,352.4781,,0,,352.4809,352.4827,,1,,1,352.4829,352.4829,352.4848,353.9718,0,39,39,39,1,0.4,0.6,0.6,0.4,1,0,,,,,,,,,,,,,,,,,,,,,,,,,,,,,,,,,,,,
,,66c8aa0e9285869764f64e0d,66fc9881e3a790fbd7a55324,2024-10-01_17h57.56.750,mdp,2024.2.1,Win32,58.82352941,66fa4ebf79326e780c390304,,,,,,,,,,,,,,,,,,,,,353.9734,353.9735,353.9785,354.908,1,0,right,0.4084,,354.9109,354.913,,1,,354.9152,354.9173,,1,,1,354.9173,354.9174,354.9206,356.4212,0,40,40,40,1,0.4,0.6,0.6,0.4,1,0,,,,,,,,,,,,,,,,,,,,,,,,,,,,,,,,,,,,
,,66c8aa0e9285869764f64e0d,66fc9881e3a790fbd7a55324,2024-10-01_17h57.56.750,mdp,2024.2.1,Win32,58.82352941,66fa4ebf79326e780c390304,,,,,,,,,,,,,,,,,,,,,356.4229,356.423,356.4259,357.4724,1,0,right,0.5246,,357.4761,357.478,,0,,357.4802,357.4823,,0,,1,357.4824,357.4824,357.4842,358.9721,0,41,41,41,1,0.4,0.6,0.6,0.4,1,0,,,,,,,,,,,,,,,,,,,,,,,,,,,,,,,,,,,,
,,66c8aa0e9285869764f64e0d,66fc9881e3a790fbd7a55324,2024-10-01_17h57.56.750,mdp,2024.2.1,Win32,58.82352941,66fa4ebf79326e780c390304,,,,,,,,,,,,,,,,,,,,,358.9729,358.973,358.9761,359.8028,1,0,right,0.301,,359.805,359.8063,,0,,359.8078,359.809,,0,,1,359.8091,359.8091,359.8104,361.3027,0,42,42,42,1,0.4,0.6,0.6,0.4,1,0,,,,,,,,,,,,,,,,,,,,,,,,,,,,,,,,,,,,
,,66c8aa0e9285869764f64e0d,66fc9881e3a790fbd7a55324,2024-10-01_17h57.56.750,mdp,2024.2.1,Win32,58.82352941,66fa4ebf79326e780c390304,,,,,,,,,,,,,,,,,,,,,361.3038,361.3038,361.3057,362.3857,1,0,right,0.55,,362.3878,362.3892,,0,,362.3909,362.3923,,0,,1,362.3923,362.3923,362.3936,363.8865,0,43,43,43,1,0.4,0.6,0.6,0.4,1,0,,,,,,,,,,,,,,,,,,,,,,,,,,,,,,,,,,,,
,,66c8aa0e9285869764f64e0d,66fc9881e3a790fbd7a55324,2024-10-01_17h57.56.750,mdp,2024.2.1,Win32,58.82352941,66fa4ebf79326e780c390304,,,,,,,,,,,,,,,,,,,,,363.8881,363.8881,363.891,365.2031,1,0,right,0.7845,,365.2064,365.2084,,0,,365.2106,365.2128,,1,,1,365.2129,365.2129,365.2149,366.7034,0,44,44,44,1,0.4,0.6,0.6,0.4,1,0,,,,,,,,,,,,,,,,,,,,,,,,,,,,,,,,,,,,
,,66c8aa0e9285869764f64e0d,66fc9881e3a790fbd7a55324,2024-10-01_17h57.56.750,mdp,2024.2.1,Win32,58.82352941,66fa4ebf79326e780c390304,,,,,,,,,,,,,,,,,,,,,366.7042,366.7043,366.7071,368.487,1,0,right,1.2664,,368.4897,368.4917,,0,,368.4939,368.4959,,0,,1,368.496,368.4961,368.498,369.9852,0,45,45,45,1,0.4,0.6,0.6,0.4,1,0,,,,,,,,,,,,,,,,,,,,,,,,,,,,,,,,,,,,
,,66c8aa0e9285869764f64e0d,66fc9881e3a790fbd7a55324,2024-10-01_17h57.56.750,mdp,2024.2.1,Win32,58.82352941,66fa4ebf79326e780c390304,,,,,,,,,,,,,,,,,,,,,369.987,369.9871,369.9903,372.0516,1,0,right,1.5344,,372.055,372.057,,0,,372.0592,372.0611,,1,,1,372.0612,372.0612,372.0633,373.5499,0,46,46,46,1,0.4,0.6,0.6,0.4,1,0,,,,,,,,,,,,,,,,,,,,,,,,,,,,,,,,,,,,
,,66c8aa0e9285869764f64e0d,66fc9881e3a790fbd7a55324,2024-10-01_17h57.56.750,mdp,2024.2.1,Win32,58.82352941,66fa4ebf79326e780c390304,,,,,,,,,,,,,,,,,,,,,373.552,373.552,373.555,374.385,1,0,right,0.3084,,374.3883,374.3902,,1,,374.3924,374.3942,,0,,1,374.3943,374.3943,374.3962,375.883,0,47,47,47,1,0.4,0.6,0.6,0.4,1,0,,,,,,,,,,,,,,,,,,,,,,,,,,,,,,,,,,,,
,,66c8aa0e9285869764f64e0d,66fc9881e3a790fbd7a55324,2024-10-01_17h57.56.750,mdp,2024.2.1,Win32,58.82352941,66fa4ebf79326e780c390304,,,,,,,,,,,,,,,,,,,,,375.8842,375.8842,375.886,376.7509,1,1,right,0.3364,,376.7548,376.7571,,0,,376.7597,376.7619,,0,,0,376.762,376.762,376.7661,378.2504,0,48,48,48,1,0.4,0.6,0.6,0.4,1,0,,,,,,,,,,,,,,,,,,,,,,,,,,,,,,,,,,,,
,,66c8aa0e9285869764f64e0d,66fc9881e3a790fbd7a55324,2024-10-01_17h57.56.750,mdp,2024.2.1,Win32,58.82352941,66fa4ebf79326e780c390304,,,,,,,,,,,,,,,,,,,,,378.2521,378.2522,378.2551,379.2337,1,0,right,0.4526,,379.2376,379.24,,1,,379.2423,379.2445,,0,,1,379.2447,379.2447,379.2481,380.7333,0,49,49,49,1,0.4,0.6,0.6,0.4,1,0,,,,,,,,,,,,,,,,,,,,,,,,,,,,,,,,,,,,
,,66c8aa0e9285869764f64e0d,66fc9881e3a790fbd7a55324,2024-10-01_17h57.56.750,mdp,2024.2.1,Win32,58.82352941,66fa4ebf79326e780c390304,,,,,,,,,,,,,,,,,,,,,,,,,,,,,,,,,,,,,,,,,,,,,,,,,,,,,,,,380.7357,439.2562,0,0,0,4,1,imgs/squirrel.png,imgs/cat.png,imgs/rabbit.png,imgs/horse.png,imgs/giraffe.png,,,,,,,,,,,,,,,,,,,,,,,,
,,66c8aa0e9285869764f64e0d,66fc9881e3a790fbd7a55324,2024-10-01_17h57.56.750,mdp,2024.2.1,Win32,58.82352941,66fa4ebf79326e780c390304,,,,,,,,,,,,,,2,seqs/st2seq3.csv,439.2891,441.3206,space,1.5158,,441.3399,441.3399,441.3427,443.1539,1,0,right,1.2703,,443.1572,444.1403,1,1,right,444.1431,444.1451,,1,,0,444.1452,444.1453,444.1478,445.6364,0,0,0,0,1,0.4,0.6,0.8,0.2,,,,,,,,,,,,,,,0.4428,,0.4,0.6,0.4,0.6,0.2,0.8,0.8,0.2,1,0,,,,,,,,,,,,
,,66c8aa0e9285869764f64e0d,66fc9881e3a790fbd7a55324,2024-10-01_17h57.56.750,mdp,2024.2.1,Win32,58.82352941,66fa4ebf79326e780c390304,,,,,,,,,,,,,,,,,,,,,445.6386,445.6387,445.6418,446.4865,1,0,right,0.3182,,446.4899,447.3197,1,0,right,447.3231,447.3251,,1,,1,447.3253,447.3253,447.3276,448.8191,0,1,1,1,1,0.4,0.6,0.8,0.2,,,,,,,,,,,,,,,0.3014,,0.4,0.6,0.4,0.6,0.2,0.8,0.8,0.2,1,0,,,,,,,,,,,,
,,66c8aa0e9285869764f64e0d,66fc9881e3a790fbd7a55324,2024-10-01_17h57.56.750,mdp,2024.2.1,Win32,58.82352941,66fa4ebf79326e780c390304,,,,,,,,,,,,,,,,,,,,,448.8209,448.8209,448.824,450.0846,1,0,right,0.7405,,450.0874,450.8689,1,1,right,450.8723,450.8743,,1,,0,450.8744,450.8745,450.8767,452.3679,0,2,2,2,1,0.4,0.6,0.8,0.2,,,,,,,,,,,,,,,0.2519,,0.4,0.6,0.4,0.6,0.2,0.8,0.8,0.2,1,0,,,,,,,,,,,,
,,66c8aa0e9285869764f64e0d,66fc9881e3a790fbd7a55324,2024-10-01_17h57.56.750,mdp,2024.2.1,Win32,58.82352941,66fa4ebf79326e780c390304,,,,,,,,,,,,,,,,,,,,,452.3693,452.3693,452.3724,453.368,1,0,right,0.4711,,453.3719,454.4016,1,0,right,454.4048,454.4072,,1,,1,454.4073,454.4073,454.4095,455.9011,0,3,3,3,1,0.4,0.6,0.8,0.2,,,,,,,,,,,,,,,0.5023,,0.4,0.6,0.4,0.6,0.2,0.8,0.8,0.2,1,0,,,,,,,,,,,,
,,66c8aa0e9285869764f64e0d,66fc9881e3a790fbd7a55324,2024-10-01_17h57.56.750,mdp,2024.2.1,Win32,58.82352941,66fa4ebf79326e780c390304,,,,,,,,,,,,,,,,,,,,,455.9028,455.9028,455.9057,457.751,1,0,right,1.3194,,457.7544,458.6507,1,0,right,458.6545,458.6566,,0,,1,458.6567,458.6567,458.6589,460.1502,0,4,4,4,1,0.4,0.6,0.8,0.2,,,,,,,,,,,,,,,0.3677,,0.4,0.6,0.4,0.6,0.2,0.8,0.8,0.2,1,0,,,,,,,,,,,,
,,66c8aa0e9285869764f64e0d,66fc9881e3a790fbd7a55324,2024-10-01_17h57.56.750,mdp,2024.2.1,Win32,58.82352941,66fa4ebf79326e780c390304,,,,,,,,,,,,,,,,,,,,,460.1518,460.1519,460.1544,461.0515,1,0,right,0.3747,,461.0549,461.7501,1,1,right,461.7535,461.7555,,1,,0,461.7556,461.7557,461.7579,463.2495,0,5,5,5,1,0.4,0.6,0.8,0.2,,,,,,,,,,,,,,,0.1685,,0.4,0.6,0.4,0.6,0.2,0.8,0.8,0.2,1,0,,,,,,,,,,,,
,,66c8aa0e9285869764f64e0d,66fc9881e3a790fbd7a55324,2024-10-01_17h57.56.750,mdp,2024.2.1,Win32,58.82352941,66fa4ebf79326e780c390304,,,,,,,,,,,,,,,,,,,,,463.2514,463.2514,463.2544,465.4993,1,0,right,1.7185,,465.531,466.6325,1,1,right,466.6358,466.6379,,1,,0,466.6381,466.6381,466.6403,468.1318,0,6,6,6,1,0.4,0.6,0.8,0.2,,,,,,,,,,,,,,,0.6011,,0.4,0.6,0.4,0.6,0.2,0.8,0.8,0.2,1,0,,,,,,,,,,,,
,,66c8aa0e9285869764f64e0d,66fc9881e3a790fbd7a55324,2024-10-01_17h57.56.750,mdp,2024.2.1,Win32,58.82352941,66fa4ebf79326e780c390304,,,,,,,,,,,,,,,,,,,,,468.1334,468.1334,468.136,469.0986,1,0,right,0.4353,,469.102,470.765,1,0,right,470.7683,470.7703,,1,,1,470.7704,470.7704,470.7726,472.2661,0,7,7,7,1,0.4,0.6,0.8,0.2,,,,,,,,,,,,,,,1.1345,,0.4,0.6,0.4,0.6,0.2,0.8,0.8,0.2,1,0,,,,,,,,,,,,
,,66c8aa0e9285869764f64e0d,66fc9881e3a790fbd7a55324,2024-10-01_17h57.56.750,mdp,2024.2.1,Win32,58.82352941,66fa4ebf79326e780c390304,,,,,,,,,,,,,,,,,,,,,472.2676,472.2677,472.2706,473.3635,0,0,left,0.5668,,473.3656,474.3976,1,1,right,474.4011,474.4032,,1,,0,474.4034,474.4034,474.4055,475.8961,0,8,8,8,1,0.4,0.6,0.8,0.2,,,,,,,,,,,,,,,0.5196,,0.4,0.6,0.4,0.6,0.2,0.8,0.8,0.2,1,0,,,,,,,,,,,,
,,66c8aa0e9285869764f64e0d,66fc9881e3a790fbd7a55324,2024-10-01_17h57.56.750,mdp,2024.2.1,Win32,58.82352941,66fa4ebf79326e780c390304,,,,,,,,,,,,,,,,,,,,,475.8972,475.8972,475.899,476.7803,1,0,right,0.3514,,476.7835,477.7457,1,1,right,477.7478,477.7493,,1,,0,477.7494,477.7494,477.7511,479.2463,0,9,9,9,1,0.4,0.6,0.8,0.2,,,,,,,,,,,,,,,0.4338,,0.4,0.6,0.4,0.6,0.2,0.8,0.8,0.2,1,0,,,,,,,,,,,,
,,66c8aa0e9285869764f64e0d,66fc9881e3a790fbd7a55324,2024-10-01_17h57.56.750,mdp,2024.2.1,Win32,58.82352941,66fa4ebf79326e780c390304,,,,,,,,,,,,,,,,,,,,,479.248,479.2481,479.2506,480.1132,1,1,right,0.3404,,480.1179,480.9785,1,0,right,480.9811,480.9824,,1,,1,480.9825,480.9826,480.9841,482.4786,0,10,10,10,1,0.4,0.6,0.8,0.2,,,,,,,,,,,,,,,0.3271,,0.4,0.6,0.4,0.6,0.2,0.8,0.8,0.2,1,0,,,,,,,,,,,,
,,66c8aa0e9285869764f64e0d,66fc9881e3a790fbd7a55324,2024-10-01_17h57.56.750,mdp,2024.2.1,Win32,58.82352941,66fa4ebf79326e780c390304,,,,,,,,,,,,,,,,,,,,,482.4802,482.4802,482.4836,483.4113,1,0,right,0.4007,,483.4133,484.328,1,0,right,484.33,484.3315,,1,,1,484.3316,484.3316,484.3332,485.8283,0,11,11,11,1,0.4,0.6,0.8,0.2,,,,,,,,,,,,,,,0.381,,0.4,0.6,0.4,0.6,0.2,0.8,0.8,0.2,1,0,,,,,,,,,,,,
,,66c8aa0e9285869764f64e0d,66fc9881e3a790fbd7a55324,2024-10-01_17h57.56.750,mdp,2024.2.1,Win32,58.82352941,66fa4ebf79326e780c390304,,,,,,,,,,,,,,,,,,,,,485.83,485.8301,485.8332,486.5957,1,0,right,0.2347,,486.5987,487.1783,1,1,right,487.1821,487.1845,,0,,0,487.1845,487.1845,487.1866,488.6778,0,12,12,12,1,0.4,0.6,0.8,0.2,,,,,,,,,,,,,,,0.0515,,0.4,0.6,0.4,0.6,0.2,0.8,0.8,0.2,1,0,,,,,,,,,,,,
,,66c8aa0e9285869764f64e0d,66fc9881e3a790fbd7a55324,2024-10-01_17h57.56.750,mdp,2024.2.1,Win32,58.82352941,66fa4ebf79326e780c390304,,,,,,,,,,,,,,,,,,,,,488.6794,488.6795,488.6819,489.2444,1,0,right,0.0347,,489.2479,490.1611,1,1,right,490.1644,490.1664,,0,,0,490.1665,490.1666,490.1687,491.6595,0,13,13,13,1,0.4,0.6,0.8,0.2,,,,,,,,,,,,,,,0.3857,,0.4,0.6,0.4,0.6,0.2,0.8,0.8,0.2,1,0,,,,,,,,,,,,
,,66c8aa0e9285869764f64e0d,66fc9881e3a790fbd7a55324,2024-10-01_17h57.56.750,mdp,2024.2.1,Win32,58.82352941,66fa4ebf79326e780c390304,,,,,,,,,,,,,,,,,,,,,491.6606,491.6607,491.6625,492.8438,0,1,left,0.6531,,492.8472,494.1921,0,0,left,494.1947,494.196,,1,,1,494.1961,494.1961,494.1976,495.6919,0,14,14,14,1,0.4,0.6,0.8,0.2,,,,,,,,,,,,,,,0.8147,,0.4,0.6,0.4,0.6,0.2,0.8,0.8,0.2,1,0,,,,,,,,,,,,
,,66c8aa0e9285869764f64e0d,66fc9881e3a790fbd7a55324,2024-10-01_17h57.56.750,mdp,2024.2.1,Win32,58.82352941,66fa4ebf79326e780c390304,,,,,,,,,,,,,,,,,,,,,495.6931,495.6931,495.6949,496.6097,1,0,right,0.3853,,496.6129,497.4595,1,1,right,497.4628,497.465,,0,,0,497.465,497.4651,497.4672,498.9589,0,15,15,15,1,0.4,0.6,0.8,0.2,,,,,,,,,,,,,,,0.3264,,0.4,0.6,0.4,0.6,0.2,0.8,0.8,0.2,1,0,,,,,,,,,,,,
,,66c8aa0e9285869764f64e0d,66fc9881e3a790fbd7a55324,2024-10-01_17h57.56.750,mdp,2024.2.1,Win32,58.82352941,66fa4ebf79326e780c390304,,,,,,,,,,,,,,,,,,,,,498.9609,498.9609,498.9639,499.659,1,0,right,0.1689,,499.6623,500.559,1,1,right,500.5613,500.563,,1,,0,500.5631,500.5631,500.5647,502.0584,0,16,16,16,1,0.4,0.6,0.8,0.2,,,,,,,,,,,,,,,0.3739,,0.4,0.6,0.4,0.6,0.2,0.8,0.8,0.2,1,0,,,,,,,,,,,,
,,66c8aa0e9285869764f64e0d,66fc9881e3a790fbd7a55324,2024-10-01_17h57.56.750,mdp,2024.2.1,Win32,58.82352941,66fa4ebf79326e780c390304,,,,,,,,,,,,,,,,,,,,,502.06,502.0601,502.0631,502.5948,1,1,right,0.0097,,502.5976,503.4748,1,0,right,503.4782,503.4803,,0,,1,503.4804,503.4804,503.4825,504.9745,0,17,17,17,1,0.4,0.6,0.8,0.2,,,,,,,,,,,,,,,0.3443,,0.4,0.6,0.4,0.6,0.2,0.8,0.8,0.2,1,0,,,,,,,,,,,,
,,66c8aa0e9285869764f64e0d,66fc9881e3a790fbd7a55324,2024-10-01_17h57.56.750,mdp,2024.2.1,Win32,58.82352941,66fa4ebf79326e780c390304,,,,,,,,,,,,,,,,,,,,,504.9763,504.9763,504.9788,505.625,0,0,left,0.1243,,505.6292,506.4577,0,1,left,506.4611,506.463,,0,,0,506.4631,506.4631,506.4652,507.9572,0,18,18,18,1,0.6,0.4,0.4,0.6,,,,,,,,,,,,,,,0.2944,,0.4,0.6,0.4,0.6,0.2,0.8,0.8,0.2,1,0,,,,,,,,,,,,
,,66c8aa0e9285869764f64e0d,66fc9881e3a790fbd7a55324,2024-10-01_17h57.56.750,mdp,2024.2.1,Win32,58.82352941,66fa4ebf79326e780c390304,,,,,,,,,,,,,,,,,,,,,507.9588,507.9588,507.9614,508.6405,0,0,left,0.1513,,508.6439,509.4405,0,0,left,509.444,509.4462,,0,,1,509.4463,509.4464,509.4485,510.9399,0,19,19,19,1,0.6,0.4,0.4,0.6,,,,,,,,,,,,,,,0.2686,,0.4,0.6,0.4,0.6,0.2,0.8,0.8,0.2,1,0,,,,,,,,,,,,
,,66c8aa0e9285869764f64e0d,66fc9881e3a790fbd7a55324,2024-10-01_17h57.56.750,mdp,2024.2.1,Win32,58.82352941,66fa4ebf79326e780c390304,,,,,,,,,,,,,,,,,,,,,510.9415,510.9417,510.9447,511.7053,0,0,left,0.2335,,511.7072,512.2732,0,0,left,512.277,512.279,,1,,1,512.2792,512.2792,512.2813,513.7721,0,20,20,20,1,0.6,0.4,0.4,0.6,,,,,,,,,,,,,,,0.0534,,0.4,0.6,0.4,0.6,0.2,0.8,0.8,0.2,1,0,,,,,,,,,,,,
,,66c8aa0e9285869764f64e0d,66fc9881e3a790fbd7a55324,2024-10-01_17h57.56.750,mdp,2024.2.1,Win32,58.82352941,66fa4ebf79326e780c390304,,,,,,,,,,,,,,,,,,,,,513.774,513.7741,513.7767,514.4226,0,0,left,0.1174,,514.426,514.9554,0,0,left,514.9594,514.9615,,1,,1,514.9617,514.9617,514.9637,516.4547,0,21,21,21,1,0.6,0.4,0.4,0.6,,,,,,,,,,,,,,,0.0042,,0.4,0.6,0.4,0.6,0.2,0.8,0.8,0.2,1,0,,,,,,,,,,,,
,,66c8aa0e9285869764f64e0d,66fc9881e3a790fbd7a55324,2024-10-01_17h57.56.750,mdp,2024.2.1,Win32,58.82352941,66fa4ebf79326e780c390304,,,,,,,,,,,,,,,,,,,,,516.4555,516.4555,516.4593,517.0889,0,0,left,0.1008,,517.092,518.0252,0,1,left,518.0284,518.0303,,0,,0,518.0305,518.0305,518.0327,519.5215,0,22,22,22,1,0.6,0.4,0.4,0.6,,,,,,,,,,,,,,,0.4101,,0.4,0.6,0.4,0.6,0.2,0.8,0.8,0.2,1,0,,,,,,,,,,,,
,,66c8aa0e9285869764f64e0d,66fc9881e3a790fbd7a55324,2024-10-01_17h57.56.750,mdp,2024.2.1,Win32,58.82352941,66fa4ebf79326e780c390304,,,,,,,,,,,,,,,,,,,,,519.5234,519.5234,519.5259,520.1543,1,0,right,0.1019,,520.1581,520.7063,1,0,right,520.7097,520.7116,,1,,1,520.7117,520.7117,520.7139,522.2042,0,23,23,23,1,0.6,0.4,0.4,0.6,,,,,,,,,,,,,,,0.0251,,0.4,0.6,0.4,0.6,0.2,0.8,0.8,0.2,1,0,,,,,,,,,,,,
,,66c8aa0e9285869764f64e0d,66fc9881e3a790fbd7a55324,2024-10-01_17h57.56.750,mdp,2024.2.1,Win32,58.82352941,66fa4ebf79326e780c390304,,,,,,,,,,,,,,,,,,,,,522.2061,522.2061,522.2091,522.7877,1,0,right,0.0522,,522.791,523.6706,1,0,right,523.6742,523.6761,,1,,1,523.6762,523.6762,523.6783,525.1704,0,24,24,24,1,0.6,0.4,0.4,0.6,,,,,,,,,,,,,,,0.3535,,0.4,0.6,0.4,0.6,0.2,0.8,0.8,0.2,1,0,,,,,,,,,,,,
,,66c8aa0e9285869764f64e0d,66fc9881e3a790fbd7a55324,2024-10-01_17h57.56.750,mdp,2024.2.1,Win32,58.82352941,66fa4ebf79326e780c390304,,,,,,,,,,,,,,,,,,,,,525.1719,525.172,525.1746,525.886,1,1,right,0.1839,,525.8881,526.437,1,0,right,526.4402,526.4424,,0,,1,526.4426,526.4426,526.4446,527.9364,0,25,25,25,1,0.6,0.4,0.4,0.6,,,,,,,,,,,,,,,0.0274,,0.4,0.6,0.4,0.6,0.2,0.8,0.8,0.2,1,0,,,,,,,,,,,,
,,66c8aa0e9285869764f64e0d,66fc9881e3a790fbd7a55324,2024-10-01_17h57.56.750,mdp,2024.2.1,Win32,58.82352941,66fa4ebf79326e780c390304,,,,,,,,,,,,,,,,,,,,,527.9381,527.9381,527.9411,528.5211,0,0,left,0.0584,,528.5244,529.3864,0,1,left,529.3898,529.3919,,1,,0,529.3919,529.392,529.3944,530.8858,0,26,26,26,1,0.6,0.4,0.4,0.6,,,,,,,,,,,,,,,0.328,,0.4,0.6,0.4,0.6,0.2,0.8,0.8,0.2,1,0,,,,,,,,,,,,
,,66c8aa0e9285869764f64e0d,66fc9881e3a790fbd7a55324,2024-10-01_17h57.56.750,mdp,2024.2.1,Win32,58.82352941,66fa4ebf79326e780c390304,,,,,,,,,,,,,,,,,,,,,530.8877,530.8877,530.8908,531.719,0,1,left,0.3039,,531.7232,532.6013,0,0,left,532.6036,532.6056,,1,,1,532.6056,532.6056,532.6071,534.1018,0,27,27,27,1,0.6,0.4,0.4,0.6,,,,,,,,,,,,,,,0.3528,,0.4,0.6,0.4,0.6,0.6,0.4,0.6,0.4,1,0,,,,,,,,,,,,
,,66c8aa0e9285869764f64e0d,66fc9881e3a790fbd7a55324,2024-10-01_17h57.56.750,mdp,2024.2.1,Win32,58.82352941,66fa4ebf79326e780c390304,,,,,,,,,,,,,,,,,,,,,534.1032,534.1033,534.1059,534.9186,1,0,right,0.2847,,534.9218,535.8007,1,1,right,535.803,535.8045,,0,,0,535.8046,535.8046,535.8062,537.3022,0,28,28,28,1,0.6,0.4,0.4,0.6,,,,,,,,,,,,,,,0.3435,,0.4,0.6,0.4,0.6,0.6,0.4,0.6,0.4,1,0,,,,,,,,,,,,
,,66c8aa0e9285869764f64e0d,66fc9881e3a790fbd7a55324,2024-10-01_17h57.56.750,mdp,2024.2.1,Win32,58.82352941,66fa4ebf79326e780c390304,,,,,,,,,,,,,,,,,,,,,537.304,537.304,537.3073,537.8844,1,0,right,0.0561,,537.8887,538.8177,1,1,right,538.8212,538.8232,,1,,0,538.8233,538.8233,538.8254,540.316,0,29,29,29,1,0.6,0.4,0.4,0.6,,,,,,,,,,,,,,,0.4031,,0.4,0.6,0.4,0.6,0.6,0.4,0.6,0.4,1,0,,,,,,,,,,,,
,,66c8aa0e9285869764f64e0d,66fc9881e3a790fbd7a55324,2024-10-01_17h57.56.750,mdp,2024.2.1,Win32,58.82352941,66fa4ebf79326e780c390304,,,,,,,,,,,,,,,,,,,,,540.3173,540.3173,540.3191,541.5496,1,0,right,0.7037,,541.5517,542.1824,1,1,right,542.1846,542.1859,,1,,0,542.186,542.186,542.1876,543.6825,0,30,30,30,1,0.4,0.6,0.6,0.4,,,,,,,,,,,,,,,0.1051,,0.4,0.6,0.4,0.6,0.6,0.4,0.6,0.4,1,0,,,,,,,,,,,,
,,66c8aa0e9285869764f64e0d,66fc9881e3a790fbd7a55324,2024-10-01_17h57.56.750,mdp,2024.2.1,Win32,58.82352941,66fa4ebf79326e780c390304,,,,,,,,,,,,,,,,,,,,,543.6834,543.6834,543.6854,544.2656,1,1,right,0.0543,,544.2679,544.8656,1,1,right,544.8684,544.8699,,1,,0,544.8699,544.87,544.8716,546.365,0,31,31,31,1,0.4,0.6,0.6,0.4,,,,,,,,,,,,,,,0.0703,,0.4,0.6,0.4,0.6,0.6,0.4,0.6,0.4,1,0,,,,,,,,,,,,
,,66c8aa0e9285869764f64e0d,66fc9881e3a790fbd7a55324,2024-10-01_17h57.56.750,mdp,2024.2.1,Win32,58.82352941,66fa4ebf79326e780c390304,,,,,,,,,,,,,,,,,,,,,546.3661,546.3662,546.3682,547.4661,0,0,left,0.568,,547.4692,548.2812,0,0,left,548.2833,548.2846,,0,,1,548.2847,548.2847,548.2863,549.7812,0,32,32,32,1,0.4,0.6,0.6,0.4,,,,,,,,,,,,,,,0.2808,,0.2,0.8,0.2,0.8,0.6,0.4,0.6,0.4,1,0,,,,,,,,,,,,
,,66c8aa0e9285869764f64e0d,66fc9881e3a790fbd7a55324,2024-10-01_17h57.56.750,mdp,2024.2.1,Win32,58.82352941,66fa4ebf79326e780c390304,,,,,,,,,,,,,,,,,,,,,549.7825,549.7826,549.7856,550.3314,0,1,left,0.0216,,550.3352,550.9986,0,0,left,551.0016,551.0036,,0,,1,551.0036,551.0037,551.0056,552.4979,0,33,33,33,1,0.4,0.6,0.6,0.4,,,,,,,,,,,,,,,0.1301,,0.2,0.8,0.2,0.8,0.8,0.2,0.4,0.6,1,0,,,,,,,,,,,,
,,66c8aa0e9285869764f64e0d,66fc9881e3a790fbd7a55324,2024-10-01_17h57.56.750,mdp,2024.2.1,Win32,58.82352941,66fa4ebf79326e780c390304,,,,,,,,,,,,,,,,,,,,,552.4996,552.4996,552.5032,553.1676,0,0,left,0.1426,,553.1703,554.051,0,1,left,554.0539,554.0557,,1,,0,554.0558,554.0559,554.0579,555.5474,0,34,34,34,1,0.4,0.6,0.6,0.4,,,,,,,,,,,,,,,0.3532,,0.2,0.8,0.2,0.8,0.8,0.2,0.4,0.6,1,0,,,,,,,,,,,,
,,66c8aa0e9285869764f64e0d,66fc9881e3a790fbd7a55324,2024-10-01_17h57.56.750,mdp,2024.2.1,Win32,58.82352941,66fa4ebf79326e780c390304,,,,,,,,,,,,,,,,,,,,,555.5492,555.5492,555.5524,556.3143,0,1,left,0.2347,,556.3177,556.9648,0,0,left,556.968,556.9701,,0,,1,556.9702,556.9702,556.9724,558.4637,0,35,35,35,1,0.4,0.6,0.6,0.4,,,,,,,,,,,,,,,0.1121,,0.2,0.8,0.2,0.8,0.8,0.2,0.4,0.6,1,0,,,,,,,,,,,,
,,66c8aa0e9285869764f64e0d,66fc9881e3a790fbd7a55324,2024-10-01_17h57.56.750,mdp,2024.2.1,Win32,58.82352941,66fa4ebf79326e780c390304,,,,,,,,,,,,,,,,,,,,,558.4653,558.4653,558.4684,559.2153,0,0,left,0.2254,,559.2187,559.8295,0,0,left,559.8331,559.8353,,0,,1,559.8355,559.8355,559.8376,561.3296,0,36,36,36,1,0.4,0.6,0.6,0.4,,,,,,,,,,,,,,,0.0788,,0.2,0.8,0.2,0.8,0.8,0.2,0.4,0.6,1,0,,,,,,,,,,,,
,,66c8aa0e9285869764f64e0d,66fc9881e3a790fbd7a55324,2024-10-01_17h57.56.750,mdp,2024.2.1,Win32,58.82352941,66fa4ebf79326e780c390304,,,,,,,,,,,,,,,,,,,,,561.3315,561.3315,561.3344,561.8993,0,0,left,0.0434,,561.9021,562.7294,0,1,left,562.7331,562.7354,,0,,0,562.7355,562.7355,562.7377,564.229,0,37,37,37,1,0.4,0.6,0.6,0.4,,,,,,,,,,,,,,,0.3017,,0.2,0.8,0.2,0.8,0.8,0.2,0.4,0.6,1,0,,,,,,,,,,,,
,,66c8aa0e9285869764f64e0d,66fc9881e3a790fbd7a55324,2024-10-01_17h57.56.750,mdp,2024.2.1,Win32,58.82352941,66fa4ebf79326e780c390304,,,,,,,,,,,,,,,,,,,,,564.2306,564.2306,564.2333,564.8955,0,0,left,0.1342,,564.8989,565.7132,0,0,left,565.7166,565.7189,,1,,1,565.719,565.719,565.7211,567.2117,0,38,38,38,1,0.4,0.6,0.6,0.4,,,,,,,,,,,,,,,0.2915,,0.2,0.8,0.2,0.8,0.8,0.2,0.4,0.6,1,0,,,,,,,,,,,,
,,66c8aa0e9285869764f64e0d,66fc9881e3a790fbd7a55324,2024-10-01_17h57.56.750,mdp,2024.2.1,Win32,58.82352941,66fa4ebf79326e780c390304,,,,,,,,,,,,,,,,,,,,,567.2133,567.2133,567.2162,567.9004,0,1,left,0.1627,,567.9033,568.6798,0,0,left,568.6832,568.6852,,0,,1,568.6853,568.6853,568.6874,570.178,0,39,39,39,1,0.4,0.6,0.6,0.4,,,,,,,,,,,,,,,0.251,,0.2,0.8,0.2,0.8,0.8,0.2,0.4,0.6,1,0,,,,,,,,,,,,
,,66c8aa0e9285869764f64e0d,66fc9881e3a790fbd7a55324,2024-10-01_17h57.56.750,mdp,2024.2.1,Win32,58.82352941,66fa4ebf79326e780c390304,,,,,,,,,,,,,,,,,,,,,570.1794,570.1794,570.1824,570.7945,0,1,left,0.0852,,570.798,572.5108,0,0,left,572.5142,572.5164,,0,,1,572.5166,572.5166,572.5186,574.0104,0,40,40,40,1,0.4,0.6,0.6,0.4,,,,,,,,,,,,,,,1.1845,,0.2,0.8,0.2,0.8,0.8,0.2,0.4,0.6,1,0,,,,,,,,,,,,
,,66c8aa0e9285869764f64e0d,66fc9881e3a790fbd7a55324,2024-10-01_17h57.56.750,mdp,2024.2.1,Win32,58.82352941,66fa4ebf79326e780c390304,,,,,,,,,,,,,,,,,,,,,574.0121,574.0122,574.0153,574.9437,1,0,right,0.401,,574.947,575.6102,1,1,right,575.6139,575.6159,,1,,0,575.616,575.6161,575.6182,577.1097,0,41,41,41,1,0.4,0.6,0.6,0.4,,,,,,,,,,,,,,,0.1272,,0.2,0.8,0.2,0.8,0.8,0.2,0.4,0.6,1,0,,,,,,,,,,,,
,,66c8aa0e9285869764f64e0d,66fc9881e3a790fbd7a55324,2024-10-01_17h57.56.750,mdp,2024.2.1,Win32,58.82352941,66fa4ebf79326e780c390304,,,,,,,,,,,,,,,,,,,,,577.1115,577.1116,577.1149,577.7087,1,1,right,0.068,,577.7127,578.3597,1,0,right,578.3631,578.365,,0,,1,578.3652,578.3652,578.3673,579.8589,0,42,42,42,1,0.4,0.6,0.6,0.4,,,,,,,,,,,,,,,0.1275,,0.2,0.8,0.2,0.8,0.8,0.2,0.4,0.6,1,0,,,,,,,,,,,,
,,66c8aa0e9285869764f64e0d,66fc9881e3a790fbd7a55324,2024-10-01_17h57.56.750,mdp,2024.2.1,Win32,58.82352941,66fa4ebf79326e780c390304,,,,,,,,,,,,,,,,,,,,,579.8608,579.8609,579.8637,580.5426,1,0,right,0.1526,,580.5458,581.5289,1,0,right,581.5314,581.5334,,1,,1,581.5336,581.5336,581.5357,583.0253,0,43,43,43,1,0.4,0.6,0.6,0.4,,,,,,,,,,,,,,,0.4528,,0.2,0.8,0.2,0.8,0.8,0.2,0.4,0.6,1,0,,,,,,,,,,,,
,,66c8aa0e9285869764f64e0d,66fc9881e3a790fbd7a55324,2024-10-01_17h57.56.750,mdp,2024.2.1,Win32,58.82352941,66fa4ebf79326e780c390304,,,,,,,,,,,,,,,,,,,,,583.0271,583.0271,583.03,583.9414,1,0,right,0.3871,,583.9434,584.7912,1,1,right,584.7933,584.7946,,1,,0,584.7947,584.7948,584.7963,586.2923,0,44,44,44,1,0.4,0.6,0.6,0.4,,,,,,,,,,,,,,,0.3196,,0.2,0.8,0.2,0.8,0.8,0.2,0.4,0.6,1,0,,,,,,,,,,,,
,,66c8aa0e9285869764f64e0d,66fc9881e3a790fbd7a55324,2024-10-01_17h57.56.750,mdp,2024.2.1,Win32,58.82352941,66fa4ebf79326e780c390304,,,,,,,,,,,,,,,,,,,,,586.293,586.2931,586.2962,587.0256,1,1,right,0.202,,587.0286,587.8588,1,1,right,587.8614,587.8636,,1,,0,587.8637,587.8637,587.8658,589.3583,0,45,45,45,1,0.4,0.6,0.6,0.4,,,,,,,,,,,,,,,0.2926,,0.2,0.8,0.2,0.8,0.8,0.2,0.4,0.6,1,0,,,,,,,,,,,,
,,66c8aa0e9285869764f64e0d,66fc9881e3a790fbd7a55324,2024-10-01_17h57.56.750,mdp,2024.2.1,Win32,58.82352941,66fa4ebf79326e780c390304,,,,,,,,,,,,,,,,,,,,,589.3591,589.3591,589.3618,590.0091,1,1,right,0.1267,,590.0118,590.5416,1,1,right,590.5446,590.5464,,1,,0,590.5465,590.5465,590.5486,592.0412,0,46,46,46,1,0.4,0.6,0.6,0.4,,,,,,,,,,,,,,,0.0011,,0.2,0.8,0.2,0.8,0.8,0.2,0.4,0.6,1,0,,,,,,,,,,,,
,,66c8aa0e9285869764f64e0d,66fc9881e3a790fbd7a55324,2024-10-01_17h57.56.750,mdp,2024.2.1,Win32,58.82352941,66fa4ebf79326e780c390304,,,,,,,,,,,,,,,,,,,,,592.0419,592.0419,592.0447,592.7564,1,1,right,0.1852,,592.7584,593.4576,1,1,right,593.4606,593.4626,,1,,0,593.4627,593.4627,593.4649,594.9571,0,47,47,47,1,0.4,0.6,0.6,0.4,,,,,,,,,,,,,,,0.1849,,0.2,0.8,0.2,0.8,0.8,0.2,0.4,0.6,1,0,,,,,,,,,,,,
,,66c8aa0e9285869764f64e0d,66fc9881e3a790fbd7a55324,2024-10-01_17h57.56.750,mdp,2024.2.1,Win32,58.82352941,66fa4ebf79326e780c390304,,,,,,,,,,,,,,,,,,,,,594.9578,594.9578,594.9605,595.8072,1,0,right,0.3179,,595.8101,596.6575,1,1,right,596.6603,596.6623,,1,,0,596.6623,596.6624,596.6645,598.155,0,48,48,48,1,0.4,0.6,0.6,0.4,,,,,,,,,,,,,,,0.3177,,0.2,0.8,0.2,0.8,0.8,0.2,0.4,0.6,1,0,,,,,,,,,,,,
,,66c8aa0e9285869764f64e0d,66fc9881e3a790fbd7a55324,2024-10-01_17h57.56.750,mdp,2024.2.1,Win32,58.82352941,66fa4ebf79326e780c390304,,,,,,,,,,,,,,,,,,,,,598.1555,598.1559,598.1579,598.855,1,1,right,0.1711,,598.8569,599.9399,1,1,right,599.9428,599.9449,,0,,0,599.945,599.945,599.9471,601.4392,0,49,49,49,1,0.4,0.6,0.6,0.4,,,,,,,,,,,,,,,0.5468,,0.2,0.8,0.2,0.8,0.8,0.2,0.4,0.6,1,0,,,,,,,,,,,,
,,66c8aa0e9285869764f64e0d,66fc9881e3a790fbd7a55324,2024-10-01_17h57.56.750,mdp,2024.2.1,Win32,58.82352941,66fa4ebf79326e780c390304,,,,,,,,,,,,,,,,,,,,,,,,,,,,,,,,,,,,,,,,,,,,,,,,,,,,,,,,601.4394,659.9607,0,1,1,6,1,imgs/dog.png,imgs/pig.png,imgs/cat.png,imgs/squirrel.png,imgs/goat.png,,,,,,,,,,,,,,,,,,,,,,,,
,,66c8aa0e9285869764f64e0d,66fc9881e3a790fbd7a55324,2024-10-01_17h57.56.750,mdp,2024.2.1,Win32,58.82352941,66fa4ebf79326e780c390304,,,,,,,,,,,,,,3,seqs/st3seq24.csv,659.9991,663.8413,space,3.3137,,663.8533,663.8533,663.8553,665.2418,1,0,right,0.8662,,665.2451,665.8086,1,1,right,665.8119,666.575,1,1,right,0,666.5751,666.5751,666.5783,668.0737,0,0,0,0,1,0.8,0.2,0.4,0.6,,,,,,,,,,,,,,,0.0291,,0.4,0.6,0.6,0.4,0.2,0.8,0.2,0.8,,,0.2224,,0.6,0.4,0.2,0.8,0.6,0.4,0.2,0.8,1,0
,,66c8aa0e9285869764f64e0d,66fc9881e3a790fbd7a55324,2024-10-01_17h57.56.750,mdp,2024.2.1,Win32,58.82352941,66fa4ebf79326e780c390304,,,,,,,,,,,,,,,,,,,,,668.0749,668.0749,668.0767,668.808,1,1,right,0.2016,,668.8117,669.7774,1,1,right,669.7802,671.2742,1,1,right,0,671.2743,671.2743,671.2776,672.7735,0,1,1,1,1,0.8,0.2,0.4,0.6,,,,,,,,,,,,,,,0.427,,0.4,0.6,0.6,0.4,0.2,0.8,0.2,0.8,,,0.9678,,0.6,0.4,0.2,0.8,0.6,0.4,0.2,0.8,1,0
,,66c8aa0e9285869764f64e0d,66fc9881e3a790fbd7a55324,2024-10-01_17h57.56.750,mdp,2024.2.1,Win32,58.82352941,66fa4ebf79326e780c390304,,,,,,,,,,,,,,,,,,,,,672.7752,672.7752,672.7778,673.5905,1,0,right,0.2854,,673.5938,674.3057,1,0,right,674.308,675.5054,1,1,right,0,675.5055,675.5055,675.5075,677.0054,0,2,2,2,1,0.8,0.2,0.4,0.6,,,,,,,,,,,,,,,0.173,,0.4,0.6,0.6,0.4,0.2,0.8,0.2,0.8,,,0.6558,,0.6,0.4,0.2,0.8,0.6,0.4,0.2,0.8,1,0
,,66c8aa0e9285869764f64e0d,66fc9881e3a790fbd7a55324,2024-10-01_17h57.56.750,mdp,2024.2.1,Win32,58.82352941,66fa4ebf79326e780c390304,,,,,,,,,,,,,,,,,,,,,677.0062,677.0062,677.008,677.8552,1,0,right,0.3182,,677.8572,679.8392,1,0,right,679.843,684.3214,1,1,right,0,684.3215,684.3215,684.3537,685.8209,0,3,3,3,1,0.8,0.2,0.4,0.6,,,,,,,,,,,,,,,1.4511,,0.4,0.6,0.6,0.4,0.2,0.8,0.2,0.8,,,3.9505,,0.6,0.4,0.2,0.8,0.6,0.4,0.2,0.8,1,0
,,66c8aa0e9285869764f64e0d,66fc9881e3a790fbd7a55324,2024-10-01_17h57.56.750,mdp,2024.2.1,Win32,58.82352941,66fa4ebf79326e780c390304,,,,,,,,,,,,,,,,,,,,,685.8227,685.8227,685.8259,688.1034,1,1,right,1.7524,,688.1398,690.6206,1,1,right,690.6251,692.8033,1,1,right,0,692.8034,692.8034,692.8066,694.3026,0,4,4,4,1,0.8,0.2,0.4,0.6,,,,,,,,,,,,,,,1.9803,,0.4,0.6,0.6,0.4,0.2,0.8,0.2,0.8,,,1.6453,,0.6,0.4,0.2,0.8,0.6,0.4,0.2,0.8,1,0
,,66c8aa0e9285869764f64e0d,66fc9881e3a790fbd7a55324,2024-10-01_17h57.56.750,mdp,2024.2.1,Win32,58.82352941,66fa4ebf79326e780c390304,,,,,,,,,,,,,,,,,,,,,694.3043,694.3044,694.3075,695.5359,1,1,right,0.7012,,695.5392,696.6857,1,0,right,696.689,697.6024,1,1,right,0,697.6025,697.6026,697.6065,699.1016,0,5,5,5,1,0.8,0.2,0.4,0.6,,,,,,,,,,,,,,,0.6178,,0.4,0.6,0.6,0.4,0.2,0.8,0.2,0.8,,,0.3798,,0.6,0.4,0.2,0.8,0.6,0.4,0.2,0.8,1,0
,,66c8aa0e9285869764f64e0d,66fc9881e3a790fbd7a55324,2024-10-01_17h57.56.750,mdp,2024.2.1,Win32,58.82352941,66fa4ebf79326e780c390304,,,,,,,,,,,,,,,,,,,,,699.1033,699.1033,699.1059,701.2681,1,0,right,1.6389,,701.2719,702.5178,1,0,right,702.5212,703.7526,1,1,right,0,703.7527,703.7527,703.7559,705.2495,0,6,6,6,1,0.8,0.2,0.4,0.6,,,,,,,,,,,,,,,0.7086,,0.4,0.6,0.6,0.4,0.2,0.8,0.2,0.8,,,0.7232,,0.6,0.4,0.2,0.8,0.6,0.4,0.2,0.8,1,0
,,66c8aa0e9285869764f64e0d,66fc9881e3a790fbd7a55324,2024-10-01_17h57.56.750,mdp,2024.2.1,Win32,58.82352941,66fa4ebf79326e780c390304,,,,,,,,,,,,,,,,,,,,,705.2518,705.2519,705.2536,706.6827,1,1,right,0.9012,,706.6847,708.1501,1,1,right,708.1534,709.2659,1,0,right,1,709.2664,709.2664,709.2698,710.7702,0,7,7,7,1,0.8,0.2,0.4,0.6,,,,,,,,,,,,,,,0.931,,0.4,0.6,0.6,0.4,0.2,0.8,0.2,0.8,,,0.5772,,0.6,0.4,0.2,0.8,0.6,0.4,0.2,0.8,1,0
,,66c8aa0e9285869764f64e0d,66fc9881e3a790fbd7a55324,2024-10-01_17h57.56.750,mdp,2024.2.1,Win32,58.82352941,66fa4ebf79326e780c390304,,,,,,,,,,,,,,,,,,,,,710.771,710.771,710.7734,711.7657,1,0,right,0.4686,,711.7691,712.3324,1,0,right,712.3357,712.9989,1,1,right,0,712.9991,712.9991,713.0023,714.4976,0,8,8,8,1,0.8,0.2,0.4,0.6,,,,,,,,,,,,,,,0.0273,,0.4,0.6,0.6,0.4,0.2,0.8,0.2,0.8,,,0.1238,,0.6,0.4,0.2,0.8,0.6,0.4,0.2,0.8,1,0
,,66c8aa0e9285869764f64e0d,66fc9881e3a790fbd7a55324,2024-10-01_17h57.56.750,mdp,2024.2.1,Win32,58.82352941,66fa4ebf79326e780c390304,,,,,,,,,,,,,,,,,,,,,714.4988,714.4988,714.5007,715.2319,1,0,right,0.2017,,715.2354,715.9503,1,0,right,715.9537,716.87,1,1,right,0,716.8701,716.8702,716.8728,718.3645,0,9,9,9,1,0.8,0.2,0.4,0.6,,,,,,,,,,,,,,,0.1926,,0.4,0.6,0.6,0.4,0.2,0.8,0.2,0.8,,,0.3957,,0.6,0.4,0.2,0.8,0.6,0.4,0.2,0.8,1,0
,,66c8aa0e9285869764f64e0d,66fc9881e3a790fbd7a55324,2024-10-01_17h57.56.750,mdp,2024.2.1,Win32,58.82352941,66fa4ebf79326e780c390304,,,,,,,,,,,,,,,,,,,,,718.3661,718.3662,718.369,719.0979,1,1,right,0.2028,,719.1013,719.763,1,0,right,719.7651,720.463,1,1,right,0,720.463,720.463,720.4653,721.9635,0,10,10,10,1,0.8,0.2,0.4,0.6,,,,,,,,,,,,,,,0.1297,,0.4,0.6,0.6,0.4,0.2,0.8,0.2,0.8,,,0.1687,,0.6,0.4,0.2,0.8,0.6,0.4,0.2,0.8,1,0
,,66c8aa0e9285869764f64e0d,66fc9881e3a790fbd7a55324,2024-10-01_17h57.56.750,mdp,2024.2.1,Win32,58.82352941,66fa4ebf79326e780c390304,,,,,,,,,,,,,,,,,,,,,721.9654,721.9654,721.968,722.7303,1,0,right,0.2334,,722.7334,723.5968,1,0,right,723.6003,724.5967,1,1,right,0,724.5968,724.5968,724.6003,726.0962,0,11,11,11,1,0.8,0.2,0.4,0.6,,,,,,,,,,,,,,,0.3334,,0.4,0.6,0.6,0.4,0.2,0.8,0.2,0.8,,,0.4692,,0.6,0.4,0.2,0.8,0.6,0.4,0.2,0.8,1,0
,,66c8aa0e9285869764f64e0d,66fc9881e3a790fbd7a55324,2024-10-01_17h57.56.750,mdp,2024.2.1,Win32,58.82352941,66fa4ebf79326e780c390304,,,,,,,,,,,,,,,,,,,,,726.0978,726.0979,726.1009,726.6961,0,0,left,0.0685,,726.6995,727.2459,0,1,left,727.2493,727.8294,0,0,left,1,727.8295,727.8295,727.8328,729.3288,0,12,12,12,1,0.8,0.2,0.4,0.6,,,,,,,,,,,,,,,0.0179,,0.4,0.6,0.6,0.4,0.2,0.8,0.2,0.8,,,0.0456,,0.6,0.4,0.2,0.8,0.6,0.4,0.2,0.8,1,0
,,66c8aa0e9285869764f64e0d,66fc9881e3a790fbd7a55324,2024-10-01_17h57.56.750,mdp,2024.2.1,Win32,58.82352941,66fa4ebf79326e780c390304,,,,,,,,,,,,,,,,,,,,,729.3305,729.3305,729.3331,730.0118,0,1,left,0.1543,,730.0155,730.8121,0,1,left,730.8154,731.3645,0,1,left,0,731.3647,731.3647,731.3684,732.8615,0,13,13,13,1,0.8,0.2,0.4,0.6,,,,,,,,,,,,,,,0.258,,0.8,0.2,0.8,0.2,0.2,0.8,0.2,0.8,,,0.0254,,0.6,0.4,0.2,0.8,0.6,0.4,0.2,0.8,1,0
,,66c8aa0e9285869764f64e0d,66fc9881e3a790fbd7a55324,2024-10-01_17h57.56.750,mdp,2024.2.1,Win32,58.82352941,66fa4ebf79326e780c390304,,,,,,,,,,,,,,,,,,,,,732.8631,732.8631,732.8661,733.6954,0,0,left,0.3023,,733.6987,734.3615,0,0,left,734.3648,734.9611,0,1,left,0,734.9613,734.9613,734.9648,736.4608,0,14,14,14,1,0.8,0.2,0.4,0.6,,,,,,,,,,,,,,,0.1275,,0.8,0.2,0.8,0.2,0.2,0.8,0.2,0.8,,,0.0591,,0.6,0.4,0.2,0.8,0.6,0.4,0.2,0.8,1,0
,,66c8aa0e9285869764f64e0d,66fc9881e3a790fbd7a55324,2024-10-01_17h57.56.750,mdp,2024.2.1,Win32,58.82352941,66fa4ebf79326e780c390304,,,,,,,,,,,,,,,,,,,,,736.4624,736.4625,736.4653,737.1267,0,0,left,0.1377,,737.1307,737.7434,0,0,left,737.7472,738.7094,0,0,left,1,738.7097,738.7097,738.7134,740.2099,0,15,15,15,1,0.8,0.2,0.4,0.6,,,,,,,,,,,,,,,0.0874,,0.8,0.2,0.8,0.2,0.2,0.8,0.2,0.8,,,0.4355,,0.6,0.4,0.2,0.8,0.6,0.4,0.2,0.8,1,0
,,66c8aa0e9285869764f64e0d,66fc9881e3a790fbd7a55324,2024-10-01_17h57.56.750,mdp,2024.2.1,Win32,58.82352941,66fa4ebf79326e780c390304,,,,,,,,,,,,,,,,,,,,,740.2117,740.2117,740.2142,741.4265,0,0,left,0.6868,,741.4299,742.2938,0,0,left,742.2973,743.4269,0,0,left,1,743.4271,743.4271,743.4303,744.9255,0,16,16,16,1,0.8,0.2,0.4,0.6,,,,,,,,,,,,,,,0.3407,,0.8,0.2,0.8,0.2,0.2,0.8,0.2,0.8,,,0.6079,,0.6,0.4,0.2,0.8,0.6,0.4,0.2,0.8,1,0
,,66c8aa0e9285869764f64e0d,66fc9881e3a790fbd7a55324,2024-10-01_17h57.56.750,mdp,2024.2.1,Win32,58.82352941,66fa4ebf79326e780c390304,,,,,,,,,,,,,,,,,,,,,744.9273,744.9275,744.93,746.5255,0,0,left,1.0691,,746.529,747.4252,0,0,left,747.4288,748.1912,0,0,left,1,748.1913,748.1913,748.1949,749.6913,0,17,17,17,1,0.8,0.2,0.4,0.6,,,,,,,,,,,,,,,0.368,,0.6,0.4,0.2,0.8,0.2,0.8,0.2,0.8,,,0.2361,,0.6,0.4,0.2,0.8,0.6,0.4,0.2,0.8,1,0
,,66c8aa0e9285869764f64e0d,66fc9881e3a790fbd7a55324,2024-10-01_17h57.56.750,mdp,2024.2.1,Win32,58.82352941,66fa4ebf79326e780c390304,,,,,,,,,,,,,,,,,,,,,749.693,749.693,749.696,750.7736,0,0,left,0.5513,,750.7756,751.6902,0,1,left,751.6922,752.5109,0,0,left,1,752.5109,752.511,752.5148,754.0068,0,18,18,18,1,0.8,0.2,0.4,0.6,,,,,,,,,,,,,,,0.3843,,0.6,0.4,0.2,0.8,0.2,0.8,0.2,0.8,,,0.3033,,0.6,0.4,0.2,0.8,0.6,0.4,0.2,0.8,1,0
,,66c8aa0e9285869764f64e0d,66fc9881e3a790fbd7a55324,2024-10-01_17h57.56.750,mdp,2024.2.1,Win32,58.82352941,66fa4ebf79326e780c390304,,,,,,,,,,,,,,,,,,,,,754.0077,754.0077,754.0097,755.1066,0,0,left,0.5675,,755.1087,755.9593,0,0,left,755.9621,756.7745,0,1,left,0,756.7747,756.7747,756.7775,758.2738,0,19,19,19,1,0.8,0.2,0.4,0.6,,,,,,,,,,,,,,,0.3432,,0.6,0.4,0.2,0.8,0.2,0.8,0.2,0.8,,,0.2733,,0.6,0.4,0.2,0.8,0.6,0.4,0.2,0.8,1,0
,,66c8aa0e9285869764f64e0d,66fc9881e3a790fbd7a55324,2024-10-01_17h57.56.750,mdp,2024.2.1,Win32,58.82352941,66fa4ebf79326e780c390304,,,,,,,,,,,,,,,,,,,,,758.2748,758.2748,758.2777,759.0758,0,0,left,0.2771,,759.0784,759.9571,0,1,left,759.9602,760.6904,0,0,left,1,760.6906,760.6906,760.6933,762.1898,0,20,20,20,1,0.8,0.2,0.4,0.6,,,,,,,,,,,,,,,0.3512,,0.6,0.4,0.2,0.8,0.2,0.8,0.2,0.8,,,0.1899,,0.6,0.4,0.2,0.8,0.6,0.4,0.2,0.8,1,0
,,66c8aa0e9285869764f64e0d,66fc9881e3a790fbd7a55324,2024-10-01_17h57.56.750,mdp,2024.2.1,Win32,58.82352941,66fa4ebf79326e780c390304,,,,,,,,,,,,,,,,,,,,,762.1907,762.1909,762.1936,763.24,0,1,left,0.5198,,763.2429,764.0415,0,1,left,764.0445,764.888,0,0,left,1,764.8881,764.8881,764.8901,766.389,0,21,21,21,1,0.8,0.2,0.4,0.6,,,,,,,,,,,,,,,0.2689,,0.4,0.6,0.8,0.2,0.2,0.8,0.2,0.8,,,0.3177,,0.6,0.4,0.2,0.8,0.6,0.4,0.2,0.8,1,0
,,66c8aa0e9285869764f64e0d,66fc9881e3a790fbd7a55324,2024-10-01_17h57.56.750,mdp,2024.2.1,Win32,58.82352941,66fa4ebf79326e780c390304,,,,,,,,,,,,,,,,,,,,,766.3901,766.3901,766.3931,767.2571,0,0,left,0.3357,,767.2634,767.9224,0,0,left,767.9254,768.6742,0,0,left,1,768.6749,768.675,768.6777,770.1718,0,22,22,22,1,0.8,0.2,0.4,0.6,,,,,,,,,,,,,,,0.1234,,0.4,0.6,0.8,0.2,0.2,0.8,0.2,0.8,,,0.2158,,0.6,0.4,0.2,0.8,0.6,0.4,0.2,0.8,1,0
,,66c8aa0e9285869764f64e0d,66fc9881e3a790fbd7a55324,2024-10-01_17h57.56.750,mdp,2024.2.1,Win32,58.82352941,66fa4ebf79326e780c390304,,,,,,,,,,,,,,,,,,,,,770.1727,770.1728,770.1761,770.9382,0,0,left,0.2345,,770.9412,771.738,0,1,left,771.7407,772.5379,0,0,left,1,772.5381,772.5383,772.5412,774.0372,0,23,23,23,1,0.8,0.2,0.4,0.6,,,,,,,,,,,,,,,0.2694,,0.4,0.6,0.8,0.2,0.2,0.8,0.2,0.8,,,0.2606,,0.6,0.4,0.2,0.8,0.6,0.4,0.2,0.8,1,0
,,66c8aa0e9285869764f64e0d,66fc9881e3a790fbd7a55324,2024-10-01_17h57.56.750,mdp,2024.2.1,Win32,58.82352941,66fa4ebf79326e780c390304,,,,,,,,,,,,,,,,,,,,,774.0381,774.0383,774.0409,774.8375,0,1,left,0.268,,774.8404,775.5217,0,0,left,775.5248,776.2224,0,0,left,1,776.2225,776.2225,776.2252,777.7201,0,24,24,24,1,0.8,0.2,0.4,0.6,,,,,,,,,,,,,,,0.1489,,0.4,0.6,0.8,0.2,0.2,0.8,0.2,0.8,,,0.1688,,0.6,0.4,0.2,0.8,0.6,0.4,0.2,0.8,1,0
,,66c8aa0e9285869764f64e0d,66fc9881e3a790fbd7a55324,2024-10-01_17h57.56.750,mdp,2024.2.1,Win32,58.82352941,66fa4ebf79326e780c390304,,,,,,,,,,,,,,,,,,,,,777.721,777.7212,777.724,778.2538,0,0,left,0.0014,,778.2565,778.8203,0,0,left,778.823,779.7031,0,1,left,0,779.7032,779.7033,779.706,781.2024,0,25,25,25,1,0.8,0.2,0.4,0.6,,,,,,,,,,,,,,,0.0272,,0.4,0.6,0.8,0.2,0.2,0.8,0.2,0.8,,,0.3539,,0.6,0.4,0.2,0.8,0.6,0.4,0.2,0.8,1,0
,,66c8aa0e9285869764f64e0d,66fc9881e3a790fbd7a55324,2024-10-01_17h57.56.750,mdp,2024.2.1,Win32,58.82352941,66fa4ebf79326e780c390304,,,,,,,,,,,,,,,,,,,,,781.2042,781.2042,781.207,782.0859,0,0,left,0.3513,,782.089,782.9858,0,1,left,782.9889,783.8342,0,0,left,1,783.8343,783.8343,783.8365,785.335,0,26,26,26,1,0.8,0.2,0.4,0.6,,,,,,,,,,,,,,,0.3686,,0.4,0.6,0.8,0.2,0.2,0.8,0.2,0.8,,,0.3145,,0.6,0.4,0.2,0.8,0.6,0.4,0.2,0.8,1,0
,,66c8aa0e9285869764f64e0d,66fc9881e3a790fbd7a55324,2024-10-01_17h57.56.750,mdp,2024.2.1,Win32,58.82352941,66fa4ebf79326e780c390304,,,,,,,,,,,,,,,,,,,,,785.3359,785.336,785.3388,786.2362,0,1,left,0.3763,,786.2391,786.9685,0,0,left,786.9713,787.8182,0,0,left,1,787.8183,787.8184,787.8211,789.3257,0,27,27,27,1,0.4,0.6,0.8,0.2,,,,,,,,,,,,,,,0.1908,,0.4,0.6,0.8,0.2,0.2,0.8,0.2,0.8,,,0.3081,,0.6,0.4,0.2,0.8,0.6,0.4,0.2,0.8,1,0
,,66c8aa0e9285869764f64e0d,66fc9881e3a790fbd7a55324,2024-10-01_17h57.56.750,mdp,2024.2.1,Win32,58.82352941,66fa4ebf79326e780c390304,,,,,,,,,,,,,,,,,,,,,789.3273,789.3273,789.3329,790.2342,0,0,left,0.3847,,790.2371,791.0842,0,0,left,791.0872,792.0006,0,0,left,1,792.0008,792.0008,792.0036,793.4999,0,28,28,28,1,0.4,0.6,0.8,0.2,,,,,,,,,,,,,,,0.3068,,0.4,0.6,0.8,0.2,0.2,0.8,0.2,0.8,,,0.3849,,0.6,0.4,0.2,0.8,0.6,0.4,0.2,0.8,1,0
,,66c8aa0e9285869764f64e0d,66fc9881e3a790fbd7a55324,2024-10-01_17h57.56.750,mdp,2024.2.1,Win32,58.82352941,66fa4ebf79326e780c390304,,,,,,,,,,,,,,,,,,,,,793.5008,793.5009,793.5036,794.1674,0,0,left,0.1386,,794.1703,794.7002,0,1,left,794.7031,795.4819,0,1,left,0,795.4819,795.482,795.4837,796.9828,0,29,29,29,1,0.4,0.6,0.8,0.2,,,,,,,,,,,,,,,0.0024,,0.4,0.6,0.8,0.2,0.2,0.8,0.2,0.8,,,0.2437,,0.6,0.4,0.2,0.8,0.6,0.4,0.2,0.8,1,0
,,66c8aa0e9285869764f64e0d,66fc9881e3a790fbd7a55324,2024-10-01_17h57.56.750,mdp,2024.2.1,Win32,58.82352941,66fa4ebf79326e780c390304,,,,,,,,,,,,,,,,,,,,,796.9838,796.9839,796.9864,797.7661,0,0,left,0.2546,,797.7689,798.3327,0,0,left,798.3353,799.3,0,0,left,1,799.3002,799.3002,799.3028,800.7987,0,30,30,30,1,0.4,0.6,0.8,0.2,,,,,,,,,,,,,,,0.0355,,0.4,0.6,0.8,0.2,0.2,0.8,0.2,0.8,,,0.4299,,0.6,0.4,0.2,0.8,0.6,0.4,0.2,0.8,1,0
,,66c8aa0e9285869764f64e0d,66fc9881e3a790fbd7a55324,2024-10-01_17h57.56.750,mdp,2024.2.1,Win32,58.82352941,66fa4ebf79326e780c390304,,,,,,,,,,,,,,,,,,,,,800.7996,800.7997,800.8025,801.4487,0,0,left,0.1189,,801.4516,802.1153,0,1,left,802.1183,802.6534,0,1,left,0,802.6537,802.6537,802.6567,804.1479,0,31,31,31,1,0.4,0.6,0.8,0.2,,,,,,,,,,,,,,,0.1359,,0.4,0.6,0.8,0.2,0.2,0.8,0.2,0.8,,,0.0018,,0.6,0.4,0.2,0.8,0.6,0.4,0.2,0.8,1,0
,,66c8aa0e9285869764f64e0d,66fc9881e3a790fbd7a55324,2024-10-01_17h57.56.750,mdp,2024.2.1,Win32,58.82352941,66fa4ebf79326e780c390304,,,,,,,,,,,,,,,,,,,,,804.1487,804.1487,804.1518,804.7814,0,1,left,0.1025,,804.7839,805.8478,0,0,left,805.8504,806.4479,0,1,left,0,806.448,806.448,806.4508,807.9471,0,32,32,32,1,0.4,0.6,0.8,0.2,,,,,,,,,,,,,,,0.5263,,0.4,0.6,0.8,0.2,0.2,0.8,0.2,0.8,,,0.0597,,0.6,0.4,0.2,0.8,0.6,0.4,0.2,0.8,1,0
,,66c8aa0e9285869764f64e0d,66fc9881e3a790fbd7a55324,2024-10-01_17h57.56.750,mdp,2024.2.1,Win32,58.82352941,66fa4ebf79326e780c390304,,,,,,,,,,,,,,,,,,,,,807.9479,807.948,807.951,808.6145,0,0,left,0.1413,,808.6173,809.4812,0,1,left,809.4832,810.3289,0,1,left,0,810.3289,810.3289,810.3309,811.8295,0,33,33,33,1,0.4,0.6,0.8,0.2,,,,,,,,,,,,,,,0.3221,,0.4,0.6,0.8,0.2,0.2,0.8,0.2,0.8,,,0.3136,,0.6,0.4,0.2,0.8,0.6,0.4,0.2,0.8,1,0
,,66c8aa0e9285869764f64e0d,66fc9881e3a790fbd7a55324,2024-10-01_17h57.56.750,mdp,2024.2.1,Win32,58.82352941,66fa4ebf79326e780c390304,,,,,,,,,,,,,,,,,,,,,811.8305,811.8305,811.8333,812.6963,0,1,left,0.3345,,812.6989,813.248,0,1,left,813.2508,814.028,0,0,left,1,814.0281,814.0281,814.03,815.5275,0,34,34,34,1,0.4,0.6,0.8,0.2,,,,,,,,,,,,,,,0.0152,,0.4,0.6,0.8,0.2,0.2,0.8,0.2,0.8,,,0.2545,,0.6,0.4,0.2,0.8,0.6,0.4,0.2,0.8,1,0
,,66c8aa0e9285869764f64e0d,66fc9881e3a790fbd7a55324,2024-10-01_17h57.56.750,mdp,2024.2.1,Win32,58.82352941,66fa4ebf79326e780c390304,,,,,,,,,,,,,,,,,,,,,815.5284,815.5285,815.5304,816.1476,0,0,left,0.094,,816.1502,816.7291,0,0,left,816.7319,817.4809,0,0,left,1,817.4813,817.4813,817.4838,818.9782,0,35,35,35,1,0.4,0.6,0.8,0.2,,,,,,,,,,,,,,,0.0428,,0.4,0.6,0.8,0.2,0.2,0.8,0.2,0.8,,,0.2192,,0.6,0.4,0.2,0.8,0.6,0.4,0.2,0.8,1,0
,,66c8aa0e9285869764f64e0d,66fc9881e3a790fbd7a55324,2024-10-01_17h57.56.750,mdp,2024.2.1,Win32,58.82352941,66fa4ebf79326e780c390304,,,,,,,,,,,,,,,,,,,,,818.9792,818.9794,818.982,819.5283,0,1,left,0.0191,,819.5308,820.1282,0,0,left,820.1312,820.6948,0,0,left,1,820.6949,820.6949,820.6976,822.1942,0,36,36,36,1,0.4,0.6,0.8,0.2,,,,,,,,,,,,,,,0.0604,,0.4,0.6,0.8,0.2,0.2,0.8,0.2,0.8,,,0.0344,,0.6,0.4,0.2,0.8,0.6,0.4,0.2,0.8,1,0
,,66c8aa0e9285869764f64e0d,66fc9881e3a790fbd7a55324,2024-10-01_17h57.56.750,mdp,2024.2.1,Win32,58.82352941,66fa4ebf79326e780c390304,,,,,,,,,,,,,,,,,,,,,822.195,822.1952,822.1981,822.7955,0,1,left,0.0767,,822.7984,823.411,0,0,left,823.4139,824.3616,0,0,left,1,824.3618,824.3619,824.3645,825.8602,0,37,37,37,1,0.4,0.6,0.8,0.2,,,,,,,,,,,,,,,0.0847,,0.4,0.6,0.8,0.2,0.2,0.8,0.2,0.8,,,0.4263,,0.8,0.2,0.8,0.2,0.6,0.4,0.2,0.8,1,0
,,66c8aa0e9285869764f64e0d,66fc9881e3a790fbd7a55324,2024-10-01_17h57.56.750,mdp,2024.2.1,Win32,58.82352941,66fa4ebf79326e780c390304,,,,,,,,,,,,,,,,,,,,,825.8615,825.8615,825.8645,826.4772,0,1,left,0.0846,,826.4799,827.21,0,1,left,827.2127,828.0454,0,0,left,1,828.0457,828.0457,828.0481,829.5425,0,38,38,38,1,0.4,0.6,0.8,0.2,,,,,,,,,,,,,,,0.2017,,0.4,0.6,0.8,0.2,0.2,0.8,0.2,0.8,,,0.2972,,0.8,0.2,0.8,0.2,0.6,0.4,0.2,0.8,1,0
,,66c8aa0e9285869764f64e0d,66fc9881e3a790fbd7a55324,2024-10-01_17h57.56.750,mdp,2024.2.1,Win32,58.82352941,66fa4ebf79326e780c390304,,,,,,,,,,,,,,,,,,,,,829.5435,829.5435,829.5463,830.2928,0,1,left,0.2179,,830.2956,831.1594,0,1,left,831.1622,832.0607,0,0,left,1,832.0609,832.0609,832.0638,833.5586,0,39,39,39,1,0.4,0.6,0.8,0.2,,,,,,,,,,,,,,,0.338,,0.4,0.6,0.8,0.2,0.8,0.2,0.6,0.4,,,0.3771,,0.8,0.2,0.8,0.2,0.6,0.4,0.2,0.8,1,0
,,66c8aa0e9285869764f64e0d,66fc9881e3a790fbd7a55324,2024-10-01_17h57.56.750,mdp,2024.2.1,Win32,58.82352941,66fa4ebf79326e780c390304,,,,,,,,,,,,,,,,,,,,,833.5597,833.5597,833.5634,834.2587,0,1,left,0.1708,,834.2617,835.0579,0,1,left,835.0608,836.0081,0,0,left,1,836.0083,836.0084,836.0111,837.5062,0,40,40,40,1,0.4,0.6,0.8,0.2,,,,,,,,,,,,,,,0.2669,,0.4,0.6,0.8,0.2,0.8,0.2,0.6,0.4,,,0.4181,,0.8,0.2,0.8,0.2,0.6,0.4,0.2,0.8,1,0
,,66c8aa0e9285869764f64e0d,66fc9881e3a790fbd7a55324,2024-10-01_17h57.56.750,mdp,2024.2.1,Win32,58.82352941,66fa4ebf79326e780c390304,,,,,,,,,,,,,,,,,,,,,837.5072,837.5072,837.5091,838.5263,0,1,left,0.4937,,838.529,839.3097,0,1,left,839.3123,840.0896,0,0,left,1,840.0897,840.0897,840.0923,841.5901,0,41,41,41,1,0.4,0.6,0.8,0.2,,,,,,,,,,,,,,,0.2606,,0.4,0.6,0.8,0.2,0.8,0.2,0.6,0.4,,,0.253,,0.8,0.2,0.8,0.2,0.6,0.4,0.2,0.8,1,0
,,66c8aa0e9285869764f64e0d,66fc9881e3a790fbd7a55324,2024-10-01_17h57.56.750,mdp,2024.2.1,Win32,58.82352941,66fa4ebf79326e780c390304,,,,,,,,,,,,,,,,,,,,,841.5909,841.591,841.5937,842.3237,0,0,left,0.2013,,842.3266,842.8891,0,0,left,842.8909,843.5076,0,0,left,1,843.5077,843.5077,843.5103,845.0061,0,42,42,42,1,0.4,0.6,0.8,0.2,,,,,,,,,,,,,,,0.0229,,0.4,0.6,0.8,0.2,0.8,0.2,0.6,0.4,,,0.0856,,0.8,0.2,0.8,0.2,0.6,0.4,0.2,0.8,1,0
,,66c8aa0e9285869764f64e0d,66fc9881e3a790fbd7a55324,2024-10-01_17h57.56.750,mdp,2024.2.1,Win32,58.82352941,66fa4ebf79326e780c390304,,,,,,,,,,,,,,,,,,,,,845.0069,845.0069,845.0098,845.8729,0,0,left,0.3331,,845.876,846.8561,0,0,left,846.8589,847.8227,0,1,left,0,847.8228,847.8228,847.8256,849.3221,0,43,43,43,1,0.4,0.6,0.8,0.2,,,,,,,,,,,,,,,0.4544,,0.4,0.6,0.8,0.2,0.8,0.2,0.6,0.4,,,0.4345,,0.8,0.2,0.8,0.2,0.6,0.4,0.2,0.8,1,0
,,66c8aa0e9285869764f64e0d,66fc9881e3a790fbd7a55324,2024-10-01_17h57.56.750,mdp,2024.2.1,Win32,58.82352941,66fa4ebf79326e780c390304,,,,,,,,,,,,,,,,,,,,,849.3232,849.3232,849.3259,850.0054,0,1,left,0.1527,,850.008,850.8552,0,1,left,850.8578,851.7071,0,1,left,0,851.7073,851.7073,851.7099,853.2046,0,44,44,44,1,0.4,0.6,0.8,0.2,,,,,,,,,,,,,,,0.3075,,0.6,0.4,0.6,0.4,0.8,0.2,0.6,0.4,,,0.3168,,0.8,0.2,0.8,0.2,0.6,0.4,0.2,0.8,1,0
,,66c8aa0e9285869764f64e0d,66fc9881e3a790fbd7a55324,2024-10-01_17h57.56.750,mdp,2024.2.1,Win32,58.82352941,66fa4ebf79326e780c390304,,,,,,,,,,,,,,,,,,,,,853.2055,853.2056,853.2084,853.94,0,0,left,0.2107,,853.9426,854.5402,0,1,left,854.542,855.1361,0,1,left,0,855.1362,855.1362,855.138,856.6389,0,45,45,45,1,0.4,0.6,0.8,0.2,,,,,,,,,,,,,,,0.0748,,0.6,0.4,0.6,0.4,0.8,0.2,0.6,0.4,,,0.0676,,0.8,0.2,0.8,0.2,0.6,0.4,0.2,0.8,1,0
,,66c8aa0e9285869764f64e0d,66fc9881e3a790fbd7a55324,2024-10-01_17h57.56.750,mdp,2024.2.1,Win32,58.82352941,66fa4ebf79326e780c390304,,,,,,,,,,,,,,,,,,,,,856.6401,856.6401,856.6429,857.1882,0,0,left,0.0253,,857.1911,858.0377,0,0,left,858.0405,858.8558,0,0,left,1,858.8559,858.856,858.8586,860.3531,0,46,46,46,1,0.4,0.6,0.8,0.2,,,,,,,,,,,,,,,0.3258,,0.6,0.4,0.6,0.4,0.8,0.2,0.6,0.4,,,0.2858,,0.8,0.2,0.8,0.2,0.6,0.4,0.2,0.8,1,0
,,66c8aa0e9285869764f64e0d,66fc9881e3a790fbd7a55324,2024-10-01_17h57.56.750,mdp,2024.2.1,Win32,58.82352941,66fa4ebf79326e780c390304,,,,,,,,,,,,,,,,,,,,,860.354,860.3541,860.3578,861.686,0,1,left,0.805,,861.6893,862.5697,0,1,left,862.5731,863.3529,0,0,left,1,863.3531,863.3531,863.3557,864.8525,0,47,47,47,1,0.4,0.6,0.8,0.2,,,,,,,,,,,,,,,0.3509,,0.6,0.4,0.6,0.4,0.8,0.2,0.6,0.4,,,0.2442,,0.8,0.2,0.8,0.2,0.6,0.4,0.2,0.8,1,0
,,66c8aa0e9285869764f64e0d,66fc9881e3a790fbd7a55324,2024-10-01_17h57.56.750,mdp,2024.2.1,Win32,58.82352941,66fa4ebf79326e780c390304,,,,,,,,,,,,,,,,,,,,,864.8536,864.8537,864.8564,865.6526,0,1,left,0.2679,,865.6553,866.3872,0,0,left,866.3898,867.2352,0,0,left,1,867.2353,867.2353,867.2381,868.7348,0,48,48,48,1,0.4,0.6,0.8,0.2,,,,,,,,,,,,,,,0.2106,,0.6,0.4,0.6,0.4,0.8,0.2,0.6,0.4,,,0.3068,,0.8,0.2,0.8,0.2,0.6,0.4,0.2,0.8,1,0
,,66c8aa0e9285869764f64e0d,66fc9881e3a790fbd7a55324,2024-10-01_17h57.56.750,mdp,2024.2.1,Win32,58.82352941,66fa4ebf79326e780c390304,,,,,,,,,,,,,,,,,,,,,868.7357,868.7357,868.7385,869.8202,0,1,left,0.5608,,869.823,870.7339,0,0,left,870.7369,871.4178,0,0,left,1,871.4179,871.418,871.4206,872.9174,0,49,49,49,1,0.4,0.6,0.8,0.2,,,,,,,,,,,,,,,0.3884,,0.6,0.4,0.6,0.4,0.8,0.2,0.6,0.4,,,0.1679,,0.8,0.2,0.8,0.2,0.6,0.4,0.2,0.8,1,0
,,66c8aa0e9285869764f64e0d,66fc9881e3a790fbd7a55324,2024-10-01_17h57.56.750,mdp,2024.2.1,Win32,58.82352941,66fa4ebf79326e780c390304,,,,,,,,,,,,,,,,,,,,,,,,,,,,,,,,,,,,,,,,,,,,,,,,,,,,,,,,872.9178,931.4207,0,2,2,2,1,imgs/dog.png,imgs/cat.png,imgs/lion.png,imgs/elephant.png,imgs/goat.png,,,,,,,,,,,,,,,,,,,,,,,,
,,66c8aa0e9285869764f64e0d,66fc9881e3a790fbd7a55324,2024-10-01_17h57.56.750,mdp,2024.2.1,Win32,58.82352941,66fa4ebf79326e780c390304,,,,,,,,,,,,,,3,seqs/st3seq30.csv,931.4342,934.105,space,2.1513,,934.1336,934.1336,934.138,937.7532,1,1,right,3.0855,,937.785,938.6531,1,1,right,938.6564,939.5029,1,0,right,1,939.503,939.503,939.5062,941.0019,0,0,0,0,1,0.8,0.2,0.2,0.8,,,,,,,,,,,,,,,0.3614,,0.6,0.4,0.8,0.2,0.8,0.2,0.4,0.6,,,0.301,,0.2,0.8,0.8,0.2,0.4,0.6,0.8,0.2,1,0
,,66c8aa0e9285869764f64e0d,66fc9881e3a790fbd7a55324,2024-10-01_17h57.56.750,mdp,2024.2.1,Win32,58.82352941,66fa4ebf79326e780c390304,,,,,,,,,,,,,,,,,,,,,941.0042,941.0042,941.0073,941.8858,1,0,right,0.353,,941.889,942.5684,1,0,right,942.5722,943.3683,1,0,right,1,943.3694,943.3694,943.3723,944.8673,0,1,1,1,1,0.8,0.2,0.2,0.8,,,,,,,,,,,,,,,0.1339,,0.6,0.4,0.8,0.2,0.8,0.2,0.4,0.6,,,0.2756,,0.2,0.8,0.8,0.2,0.4,0.6,0.8,0.2,1,0
,,66c8aa0e9285869764f64e0d,66fc9881e3a790fbd7a55324,2024-10-01_17h57.56.750,mdp,2024.2.1,Win32,58.82352941,66fa4ebf79326e780c390304,,,,,,,,,,,,,,,,,,,,,944.8683,944.8683,944.87,945.7508,1,1,right,0.3685,,945.7529,946.5352,1,1,right,946.5376,947.3845,1,0,right,1,947.3847,947.3847,947.388,948.8843,0,2,2,2,1,0.8,0.2,0.2,0.8,,,,,,,,,,,,,,,0.2547,,0.6,0.4,0.8,0.2,0.8,0.2,0.4,0.6,,,0.3107,,0.2,0.8,0.8,0.2,0.4,0.6,0.8,0.2,1,0
,,66c8aa0e9285869764f64e0d,66fc9881e3a790fbd7a55324,2024-10-01_17h57.56.750,mdp,2024.2.1,Win32,58.82352941,66fa4ebf79326e780c390304,,,,,,,,,,,,,,,,,,,,,948.8861,948.8861,948.8889,949.4842,1,0,right,0.0739,,949.4879,950.3196,1,0,right,950.3216,951.1337,1,0,right,1,951.134,951.134,951.1364,952.6335,0,3,3,3,1,0.8,0.2,0.2,0.8,,,,,,,,,,,,,,,0.3026,,0.6,0.4,0.8,0.2,0.8,0.2,0.4,0.6,,,0.2876,,0.2,0.8,0.8,0.2,0.4,0.6,0.8,0.2,1,0
,,66c8aa0e9285869764f64e0d,66fc9881e3a790fbd7a55324,2024-10-01_17h57.56.750,mdp,2024.2.1,Win32,58.82352941,66fa4ebf79326e780c390304,,,,,,,,,,,,,,,,,,,,,952.6351,952.6352,952.6382,953.3003,1,0,right,0.1353,,953.3036,954.0166,1,0,right,954.0198,955.9829,1,0,right,1,955.9831,955.9831,955.9863,957.4824,0,4,4,4,1,0.8,0.2,0.2,0.8,,,,,,,,,,,,,,,0.1846,,0.6,0.4,0.8,0.2,0.8,0.2,0.4,0.6,,,1.4476,,0.2,0.8,0.8,0.2,0.4,0.6,0.8,0.2,1,0
,,66c8aa0e9285869764f64e0d,66fc9881e3a790fbd7a55324,2024-10-01_17h57.56.750,mdp,2024.2.1,Win32,58.82352941,66fa4ebf79326e780c390304,,,,,,,,,,,,,,,,,,,,,957.4841,957.4842,957.4871,958.4006,1,1,right,0.3923,,958.4031,959.2333,1,1,right,959.2361,960.0663,1,0,right,1,960.0665,960.0665,960.0682,961.5655,0,5,5,5,1,0.8,0.2,0.2,0.8,,,,,,,,,,,,,,,0.2908,,0.6,0.4,0.8,0.2,0.8,0.2,0.4,0.6,,,0.3019,,0.2,0.8,0.8,0.2,0.6,0.4,0.4,0.6,1,0
,,66c8aa0e9285869764f64e0d,66fc9881e3a790fbd7a55324,2024-10-01_17h57.56.750,mdp,2024.2.1,Win32,58.82352941,66fa4ebf79326e780c390304,,,,,,,,,,,,,,,,,,,,,961.5663,961.5664,961.5699,962.4657,1,1,right,0.3714,,962.4682,963.281,1,0,right,963.2829,964.1308,1,0,right,1,964.1309,964.131,964.1328,965.6318,0,6,6,6,1,0.8,0.2,0.2,0.8,,,,,,,,,,,,,,,0.2843,,0.6,0.4,0.8,0.2,0.8,0.2,0.4,0.6,,,0.3137,,0.2,0.8,0.8,0.2,0.6,0.4,0.4,0.6,1,0
,,66c8aa0e9285869764f64e0d,66fc9881e3a790fbd7a55324,2024-10-01_17h57.56.750,mdp,2024.2.1,Win32,58.82352941,66fa4ebf79326e780c390304,,,,,,,,,,,,,,,,,,,,,965.6327,965.6327,965.6354,966.5173,1,1,right,0.3608,,966.52,967.3649,1,1,right,967.368,968.2147,1,1,right,0,968.2151,968.2151,968.2177,969.7141,0,7,7,7,1,0.8,0.2,0.2,0.8,,,,,,,,,,,,,,,0.3179,,0.6,0.4,0.8,0.2,0.8,0.2,0.4,0.6,,,0.3097,,0.2,0.8,0.8,0.2,0.6,0.4,0.4,0.6,1,0
,,66c8aa0e9285869764f64e0d,66fc9881e3a790fbd7a55324,2024-10-01_17h57.56.750,mdp,2024.2.1,Win32,58.82352941,66fa4ebf79326e780c390304,,,,,,,,,,,,,,,,,,,,,969.7151,969.7152,969.7178,970.6311,1,1,right,0.3846,,970.6339,971.4475,1,0,right,971.4504,972.3308,1,1,right,0,972.3309,972.331,972.3336,973.8299,0,8,8,8,1,0.8,0.2,0.2,0.8,,,,,,,,,,,,,,,0.2846,,0.6,0.4,0.8,0.2,0.8,0.2,0.4,0.6,,,0.3439,,0.2,0.8,0.8,0.2,0.6,0.4,0.4,0.6,1,0
,,66c8aa0e9285869764f64e0d,66fc9881e3a790fbd7a55324,2024-10-01_17h57.56.750,mdp,2024.2.1,Win32,58.82352941,66fa4ebf79326e780c390304,,,,,,,,,,,,,,,,,,,,,973.8308,973.8308,973.8338,974.7139,1,1,right,0.3588,,974.7168,975.5784,1,1,right,975.5804,976.3815,1,1,right,0,976.3817,976.3817,976.3842,977.8792,0,9,9,9,1,0.8,0.2,0.2,0.8,,,,,,,,,,,,,,,0.334,,0.6,0.4,0.8,0.2,0.8,0.2,0.4,0.6,,,0.2829,,0.2,0.8,0.8,0.2,0.6,0.4,0.4,0.6,1,0
,,66c8aa0e9285869764f64e0d,66fc9881e3a790fbd7a55324,2024-10-01_17h57.56.750,mdp,2024.2.1,Win32,58.82352941,66fa4ebf79326e780c390304,,,,,,,,,,,,,,,,,,,,,977.8802,977.8803,977.8831,978.7647,1,1,right,0.3607,,978.7674,979.6291,1,0,right,979.632,980.5291,1,0,right,1,980.5292,980.5292,980.532,982.0282,0,10,10,10,1,0.8,0.2,0.2,0.8,,,,,,,,,,,,,,,0.3346,,0.6,0.4,0.8,0.2,0.8,0.2,0.4,0.6,,,0.3562,,0.2,0.8,0.8,0.2,0.6,0.4,0.4,0.6,1,0
,,66c8aa0e9285869764f64e0d,66fc9881e3a790fbd7a55324,2024-10-01_17h57.56.750,mdp,2024.2.1,Win32,58.82352941,66fa4ebf79326e780c390304,,,,,,,,,,,,,,,,,,,,,982.0291,982.0291,982.032,982.8285,1,1,right,0.268,,982.8314,983.645,0,0,left,983.6475,985.378,0,1,left,0,985.3781,985.3781,985.381,986.8774,0,11,11,11,1,0.8,0.2,0.2,0.8,,,,,,,,,,,,,,,0.2852,,0.8,0.2,0.2,0.8,0.8,0.2,0.4,0.6,,,1.2012,,0.2,0.8,0.8,0.2,0.6,0.4,0.4,0.6,1,0
,,66c8aa0e9285869764f64e0d,66fc9881e3a790fbd7a55324,2024-10-01_17h57.56.750,mdp,2024.2.1,Win32,58.82352941,66fa4ebf79326e780c390304,,,,,,,,,,,,,,,,,,,,,986.8783,986.8783,986.8811,987.6128,1,1,right,0.2108,,987.6155,988.344,1,1,right,988.347,989.0439,1,0,right,1,989.0441,989.0442,989.0469,990.5419,0,12,12,12,1,0.8,0.2,0.2,0.8,,,,,,,,,,,,,,,0.2023,,0.8,0.2,0.2,0.8,0.8,0.2,0.4,0.6,,,0.1583,,0.8,0.2,0.6,0.4,0.6,0.4,0.4,0.6,1,0
,,66c8aa0e9285869764f64e0d,66fc9881e3a790fbd7a55324,2024-10-01_17h57.56.750,mdp,2024.2.1,Win32,58.82352941,66fa4ebf79326e780c390304,,,,,,,,,,,,,,,,,,,,,990.5427,990.5427,990.5445,991.592,1,1,right,0.5169,,991.5939,992.4095,1,0,right,992.4121,993.1929,1,0,right,1,993.193,993.193,993.1956,994.6918,0,13,13,13,1,0.8,0.2,0.2,0.8,,,,,,,,,,,,,,,0.2839,,0.8,0.2,0.2,0.8,0.8,0.2,0.4,0.6,,,0.2422,,0.8,0.2,0.6,0.4,0.6,0.4,0.4,0.6,1,0
,,66c8aa0e9285869764f64e0d,66fc9881e3a790fbd7a55324,2024-10-01_17h57.56.750,mdp,2024.2.1,Win32,58.82352941,66fa4ebf79326e780c390304,,,,,,,,,,,,,,,,,,,,,994.6924,994.6924,994.6944,996.2912,1,0,right,1.0677,,996.2932,997.0423,1,1,right,997.0454,997.7089,1,1,right,0,997.709,997.709,997.7117,999.2082,0,14,14,14,1,0.8,0.2,0.2,0.8,,,,,,,,,,,,,,,0.2275,,0.8,0.2,0.2,0.8,0.8,0.2,0.4,0.6,,,0.1235,,0.8,0.2,0.6,0.4,0.6,0.4,0.4,0.6,1,0
,,66c8aa0e9285869764f64e0d,66fc9881e3a790fbd7a55324,2024-10-01_17h57.56.750,mdp,2024.2.1,Win32,58.82352941,66fa4ebf79326e780c390304,,,,,,,,,,,,,,,,,,,,,999.2092,999.2093,999.2122,1000.0436,1,0,right,0.3106,,1000.0464,1000.8754,1,1,right,1000.878,1001.6266,1,1,right,0,1001.6269,1001.6269,1001.6294,1003.1239,0,15,15,15,1,0.8,0.2,0.2,0.8,,,,,,,,,,,,,,,0.3077,,0.8,0.2,0.2,0.8,0.8,0.2,0.4,0.6,,,0.2275,,0.8,0.2,0.6,0.4,0.6,0.4,0.4,0.6,1,0
,,66c8aa0e9285869764f64e0d,66fc9881e3a790fbd7a55324,2024-10-01_17h57.56.750,mdp,2024.2.1,Win32,58.82352941,66fa4ebf79326e780c390304,,,,,,,,,,,,,,,,,,,,,1003.1248,1003.1249,1003.1276,1004.2418,1,0,right,0.5929,,1004.2445,1005.0577,1,0,right,1005.0602,1005.8905,1,0,right,1,1005.8905,1005.8906,1005.8941,1007.3926,0,16,16,16,1,0.8,0.2,0.2,0.8,,,,,,,,,,,,,,,0.2882,,0.8,0.2,0.2,0.8,0.8,0.2,0.4,0.6,,,0.2885,,0.8,0.2,0.6,0.4,0.6,0.4,0.4,0.6,1,0
,,66c8aa0e9285869764f64e0d,66fc9881e3a790fbd7a55324,2024-10-01_17h57.56.750,mdp,2024.2.1,Win32,58.82352941,66fa4ebf79326e780c390304,,,,,,,,,,,,,,,,,,,,,1007.3935,1007.3937,1007.3963,1008.206,1,1,right,0.2914,,1008.208,1009.0086,1,0,right,1009.0117,1009.8397,1,0,right,1,1009.8398,1009.8398,1009.8425,1011.3393,0,17,17,17,1,0.8,0.2,0.2,0.8,,,,,,,,,,,,,,,0.2657,,0.8,0.2,0.2,0.8,0.8,0.2,0.4,0.6,,,0.3016,,0.8,0.2,0.6,0.4,0.6,0.4,0.4,0.6,1,0
,,66c8aa0e9285869764f64e0d,66fc9881e3a790fbd7a55324,2024-10-01_17h57.56.750,mdp,2024.2.1,Win32,58.82352941,66fa4ebf79326e780c390304,,,,,,,,,,,,,,,,,,,,,1011.3401,1011.3402,1011.343,1012.1878,1,1,right,0.318,,1012.1899,1012.9721,1,0,right,1012.9751,1013.5056,1,0,right,1,1013.506,1013.506,1013.5085,1015.0046,0,18,18,18,1,0.8,0.2,0.2,0.8,,,,,,,,,,,,,,,0.2529,,0.8,0.2,0.2,0.8,0.8,0.2,0.4,0.6,,,0.0014,,0.8,0.2,0.6,0.4,0.6,0.4,0.4,0.6,1,0
,,66c8aa0e9285869764f64e0d,66fc9881e3a790fbd7a55324,2024-10-01_17h57.56.750,mdp,2024.2.1,Win32,58.82352941,66fa4ebf79326e780c390304,,,,,,,,,,,,,,,,,,,,,1015.0055,1015.0055,1015.0081,1015.9382,1,1,right,0.4009,,1015.9406,1016.7209,1,1,right,1016.7243,1017.4879,1,1,right,0,1017.4879,1017.488,1017.4905,1018.9874,0,19,19,19,1,0.8,0.2,0.2,0.8,,,,,,,,,,,,,,,0.2553,,0.8,0.2,0.2,0.8,0.8,0.2,0.4,0.6,,,0.24,,0.8,0.2,0.6,0.4,0.6,0.4,0.4,0.6,1,0
,,66c8aa0e9285869764f64e0d,66fc9881e3a790fbd7a55324,2024-10-01_17h57.56.750,mdp,2024.2.1,Win32,58.82352941,66fa4ebf79326e780c390304,,,,,,,,,,,,,,,,,,,,,1018.9882,1018.9882,1018.9912,1019.8891,1,0,right,0.377,,1019.8917,1020.6361,1,1,right,1020.6381,1021.5369,1,1,right,0,1021.537,1021.537,1021.5387,1023.0367,0,20,20,20,1,0.8,0.2,0.2,0.8,,,,,,,,,,,,,,,0.2144,,0.8,0.2,0.2,0.8,0.8,0.2,0.4,0.6,,,0.3748,,0.8,0.2,0.6,0.4,0.6,0.4,0.4,0.6,1,0
,,66c8aa0e9285869764f64e0d,66fc9881e3a790fbd7a55324,2024-10-01_17h57.56.750,mdp,2024.2.1,Win32,58.82352941,66fa4ebf79326e780c390304,,,,,,,,,,,,,,,,,,,,,1023.0376,1023.0376,1023.0407,1023.9034,1,1,right,0.3347,,1023.9065,1024.5894,1,0,right,1024.5922,1025.5366,1,1,right,0,1025.5366,1025.5367,1025.5393,1027.0359,0,21,21,21,1,0.8,0.2,0.2,0.8,,,,,,,,,,,,,,,0.1535,,0.8,0.2,0.2,0.8,0.8,0.2,0.4,0.6,,,0.4101,,0.8,0.2,0.6,0.4,0.6,0.4,0.4,0.6,1,0
,,66c8aa0e9285869764f64e0d,66fc9881e3a790fbd7a55324,2024-10-01_17h57.56.750,mdp,2024.2.1,Win32,58.82352941,66fa4ebf79326e780c390304,,,,,,,,,,,,,,,,,,,,,1027.0369,1027.0371,1027.0398,1028.2692,1,1,right,0.7021,,1028.2722,1029.1184,1,0,right,1029.1214,1029.9793,1,1,right,0,1029.9795,1029.9796,1029.9833,1031.4688,0,22,22,22,1,0.8,0.2,0.2,0.8,,,,,,,,,,,,,,,0.3178,,0.8,0.2,0.2,0.8,0.8,0.2,0.4,0.6,,,0.3362,,0.8,0.2,0.6,0.4,0.6,0.4,0.4,0.6,1,0
,,66c8aa0e9285869764f64e0d,66fc9881e3a790fbd7a55324,2024-10-01_17h57.56.750,mdp,2024.2.1,Win32,58.82352941,66fa4ebf79326e780c390304,,,,,,,,,,,,,,,,,,,,,1031.4699,1031.4699,1031.4732,1033.0203,1,1,right,1.0252,,1033.0229,1033.8348,1,0,right,1033.8373,1034.6012,1,0,right,1,1034.6014,1034.6014,1034.6043,1036.1007,0,23,23,23,1,0.8,0.2,0.2,0.8,,,,,,,,,,,,,,,0.2846,,0.8,0.2,0.2,0.8,0.8,0.2,0.4,0.6,,,0.235,,0.8,0.2,0.6,0.4,0.6,0.4,0.4,0.6,1,0
,,66c8aa0e9285869764f64e0d,66fc9881e3a790fbd7a55324,2024-10-01_17h57.56.750,mdp,2024.2.1,Win32,58.82352941,66fa4ebf79326e780c390304,,,,,,,,,,,,,,,,,,,,,1036.1016,1036.1016,1036.1047,1036.8841,1,0,right,0.2529,,1036.8872,1037.734,1,1,right,1037.737,1038.618,1,0,right,1,1038.6182,1038.6182,1038.6207,1040.1167,0,24,24,24,1,0.8,0.2,0.2,0.8,,,,,,,,,,,,,,,0.3102,,0.8,0.2,0.2,0.8,0.8,0.2,0.4,0.6,,,0.3496,,0.8,0.2,0.6,0.4,0.6,0.4,0.4,0.6,1,0
,,66c8aa0e9285869764f64e0d,66fc9881e3a790fbd7a55324,2024-10-01_17h57.56.750,mdp,2024.2.1,Win32,58.82352941,66fa4ebf79326e780c390304,,,,,,,,,,,,,,,,,,,,,1040.1176,1040.1176,1040.1203,1041.2,1,1,right,0.5545,,1041.2029,1042.0165,1,1,right,1042.0202,1042.8684,1,1,right,0,1042.8685,1042.8686,1042.8713,1044.3656,0,25,25,25,1,0.8,0.2,0.2,0.8,,,,,,,,,,,,,,,0.2792,,0.8,0.2,0.2,0.8,0.8,0.2,0.4,0.6,,,0.3275,,0.8,0.2,0.6,0.4,0.6,0.4,0.4,0.6,1,0
,,66c8aa0e9285869764f64e0d,66fc9881e3a790fbd7a55324,2024-10-01_17h57.56.750,mdp,2024.2.1,Win32,58.82352941,66fa4ebf79326e780c390304,,,,,,,,,,,,,,,,,,,,,1044.3666,1044.3667,1044.3695,1045.0338,1,0,right,0.1424,,1045.0368,1045.8821,1,1,right,1045.885,1046.7154,1,1,right,0,1046.7155,1046.7156,1046.7183,1048.2149,0,26,26,26,1,0.8,0.2,0.2,0.8,,,,,,,,,,,,,,,0.3101,,0.8,0.2,0.2,0.8,0.8,0.2,0.4,0.6,,,0.3011,,0.8,0.2,0.6,0.4,0.6,0.4,0.4,0.6,1,0
,,66c8aa0e9285869764f64e0d,66fc9881e3a790fbd7a55324,2024-10-01_17h57.56.750,mdp,2024.2.1,Win32,58.82352941,66fa4ebf79326e780c390304,,,,,,,,,,,,,,,,,,,,,1048.2158,1048.2159,1048.2185,1049.1986,1,1,right,0.4527,,1049.2012,1049.9483,1,0,right,1049.9511,1050.648,1,0,right,1,1050.6481,1050.6481,1050.6508,1052.1474,0,27,27,27,1,0.8,0.2,0.2,0.8,,,,,,,,,,,,,,,0.2066,,0.8,0.2,0.2,0.8,0.8,0.2,0.4,0.6,,,0.1592,,0.8,0.2,0.6,0.4,0.6,0.4,0.4,0.6,1,0
,,66c8aa0e9285869764f64e0d,66fc9881e3a790fbd7a55324,2024-10-01_17h57.56.750,mdp,2024.2.1,Win32,58.82352941,66fa4ebf79326e780c390304,,,,,,,,,,,,,,,,,,,,,1052.1483,1052.1484,1052.1514,1052.8495,1,1,right,0.1773,,1052.8522,1053.464,1,1,right,1053.467,1054.1978,1,1,right,0,1054.1981,1054.1981,1054.2007,1055.6967,0,28,28,28,1,0.8,0.2,0.2,0.8,,,,,,,,,,,,,,,0.0846,,0.8,0.2,0.2,0.8,0.8,0.2,0.4,0.6,,,0.2009,,0.8,0.2,0.6,0.4,0.6,0.4,0.4,0.6,1,0
,,66c8aa0e9285869764f64e0d,66fc9881e3a790fbd7a55324,2024-10-01_17h57.56.750,mdp,2024.2.1,Win32,58.82352941,66fa4ebf79326e780c390304,,,,,,,,,,,,,,,,,,,,,1055.6976,1055.6976,1055.7006,1056.5968,1,1,right,0.3757,,1056.5986,1057.4466,1,0,right,1057.4493,1058.2799,1,0,right,1,1058.2799,1058.28,1058.2829,1059.7793,0,29,29,29,1,0.8,0.2,0.2,0.8,,,,,,,,,,,,,,,0.3178,,0.8,0.2,0.2,0.8,0.8,0.2,0.4,0.6,,,0.293,,0.8,0.2,0.6,0.4,0.6,0.4,0.4,0.6,1,0
,,66c8aa0e9285869764f64e0d,66fc9881e3a790fbd7a55324,2024-10-01_17h57.56.750,mdp,2024.2.1,Win32,58.82352941,66fa4ebf79326e780c390304,,,,,,,,,,,,,,,,,,,,,1059.7803,1059.7804,1059.783,1060.8128,1,1,right,0.5013,,1060.8156,1061.6293,1,1,right,1061.6322,1062.4801,1,0,right,1,1062.4803,1062.4803,1062.4831,1063.9784,0,30,30,30,1,0.8,0.2,0.2,0.8,,,,,,,,,,,,,,,0.2846,,0.8,0.2,0.2,0.8,0.8,0.2,0.4,0.6,,,0.3155,,0.8,0.2,0.6,0.4,0.6,0.4,0.4,0.6,1,0
,,66c8aa0e9285869764f64e0d,66fc9881e3a790fbd7a55324,2024-10-01_17h57.56.750,mdp,2024.2.1,Win32,58.82352941,66fa4ebf79326e780c390304,,,,,,,,,,,,,,,,,,,,,1063.9793,1063.9794,1063.9821,1065.8135,1,0,right,1.3103,,1065.8161,1066.778,1,1,right,1066.7804,1067.7633,1,1,right,0,1067.7633,1067.7634,1067.7659,1069.2606,0,31,31,31,1,0.8,0.2,0.2,0.8,,,,,,,,,,,,,,,0.4238,,0.8,0.2,0.2,0.8,0.8,0.2,0.4,0.6,,,0.4606,,0.8,0.2,0.6,0.4,0.6,0.4,0.4,0.6,1,0
,,66c8aa0e9285869764f64e0d,66fc9881e3a790fbd7a55324,2024-10-01_17h57.56.750,mdp,2024.2.1,Win32,58.82352941,66fa4ebf79326e780c390304,,,,,,,,,,,,,,,,,,,,,1069.2615,1069.2616,1069.2643,1070.7606,1,1,right,0.9678,,1070.7632,1071.6604,1,0,right,1071.663,1072.4776,1,1,right,0,1072.4778,1072.4778,1072.4806,1073.9764,0,32,32,32,1,0.8,0.2,0.2,0.8,,,,,,,,,,,,,,,0.3599,,0.8,0.2,0.2,0.8,0.8,0.2,0.4,0.6,,,0.2844,,0.8,0.2,0.6,0.4,0.6,0.4,0.4,0.6,1,0
,,66c8aa0e9285869764f64e0d,66fc9881e3a790fbd7a55324,2024-10-01_17h57.56.750,mdp,2024.2.1,Win32,58.82352941,66fa4ebf79326e780c390304,,,,,,,,,,,,,,,,,,,,,1073.9772,1073.9774,1073.9804,1075.2438,1,0,right,0.7416,,1075.2466,1076.1616,1,1,right,1076.1643,1077.0425,1,0,right,1,1077.0426,1077.0426,1077.0452,1078.542,0,33,33,33,1,0.8,0.2,0.2,0.8,,,,,,,,,,,,,,,0.3855,,0.8,0.2,0.2,0.8,0.8,0.2,0.4,0.6,,,0.3458,,0.8,0.2,0.6,0.4,0.6,0.4,0.4,0.6,1,0
,,66c8aa0e9285869764f64e0d,66fc9881e3a790fbd7a55324,2024-10-01_17h57.56.750,mdp,2024.2.1,Win32,58.82352941,66fa4ebf79326e780c390304,,,,,,,,,,,,,,,,,,,,,1078.543,1078.543,1078.5461,1079.8071,1,1,right,0.7327,,1079.8091,1080.6737,1,1,right,1080.6755,1081.5571,1,0,right,1,1081.5572,1081.5572,1081.559,1083.0578,0,34,34,34,1,0.8,0.2,0.2,0.8,,,,,,,,,,,,,,,0.3297,,0.8,0.2,0.2,0.8,0.8,0.2,0.4,0.6,,,0.3506,,0.8,0.2,0.6,0.4,0.6,0.4,0.4,0.6,1,0
,,66c8aa0e9285869764f64e0d,66fc9881e3a790fbd7a55324,2024-10-01_17h57.56.750,mdp,2024.2.1,Win32,58.82352941,66fa4ebf79326e780c390304,,,,,,,,,,,,,,,,,,,,,1083.0587,1083.0588,1083.0627,1083.9745,1,1,right,0.3877,,1083.9775,1084.8245,1,1,right,1084.8274,1085.5909,1,1,right,0,1085.5911,1085.5911,1085.5939,1087.0903,0,35,35,35,1,0.8,0.2,0.2,0.8,,,,,,,,,,,,,,,0.3181,,0.8,0.2,0.2,0.8,0.8,0.2,0.4,0.6,,,0.2341,,0.8,0.2,0.6,0.4,0.6,0.4,0.4,0.6,1,0
,,66c8aa0e9285869764f64e0d,66fc9881e3a790fbd7a55324,2024-10-01_17h57.56.750,mdp,2024.2.1,Win32,58.82352941,66fa4ebf79326e780c390304,,,,,,,,,,,,,,,,,,,,,1087.0915,1087.0916,1087.0945,1087.9904,1,1,right,0.368,,1087.9934,1088.8568,1,1,right,1088.8593,1089.7237,1,1,right,0,1089.7238,1089.7238,1089.7264,1091.2228,0,36,36,36,1,0.8,0.2,0.2,0.8,,,,,,,,,,,,,,,0.3348,,0.8,0.2,0.2,0.8,0.4,0.6,0.2,0.8,,,0.3347,,0.8,0.2,0.6,0.4,0.6,0.4,0.4,0.6,1,0
,,66c8aa0e9285869764f64e0d,66fc9881e3a790fbd7a55324,2024-10-01_17h57.56.750,mdp,2024.2.1,Win32,58.82352941,66fa4ebf79326e780c390304,,,,,,,,,,,,,,,,,,,,,1091.2236,1091.2237,1091.2266,1092.0896,1,0,right,0.3345,,1092.0922,1092.9051,1,1,right,1092.907,1093.7716,1,1,right,0,1093.7717,1093.7717,1093.7739,1095.2752,0,37,37,37,1,0.8,0.2,0.2,0.8,,,,,,,,,,,,,,,0.2794,,0.8,0.2,0.2,0.8,0.4,0.6,0.2,0.8,,,0.3332,,0.8,0.2,0.6,0.4,0.6,0.4,0.4,0.6,1,0
,,66c8aa0e9285869764f64e0d,66fc9881e3a790fbd7a55324,2024-10-01_17h57.56.750,mdp,2024.2.1,Win32,58.82352941,66fa4ebf79326e780c390304,,,,,,,,,,,,,,,,,,,,,1095.2765,1095.2765,1095.2782,1096.4207,1,1,right,0.62,,1096.4227,1097.2552,1,1,right,1097.2582,1098.1218,1,0,right,1,1098.122,1098.122,1098.1248,1099.6209,0,38,38,38,1,0.8,0.2,0.2,0.8,,,,,,,,,,,,,,,0.3069,,0.8,0.2,0.2,0.8,0.4,0.6,0.2,0.8,,,0.3345,,0.8,0.2,0.6,0.4,0.6,0.4,0.4,0.6,1,0
,,66c8aa0e9285869764f64e0d,66fc9881e3a790fbd7a55324,2024-10-01_17h57.56.750,mdp,2024.2.1,Win32,58.82352941,66fa4ebf79326e780c390304,,,,,,,,,,,,,,,,,,,,,1099.6217,1099.6219,1099.6248,1100.5054,1,0,right,0.3585,,1100.5081,1101.3212,1,1,right,1101.3241,1102.221,1,0,right,1,1102.2211,1102.2212,1102.2239,1103.7203,0,39,39,39,1,0.6,0.4,0.8,0.2,,,,,,,,,,,,,,,0.2774,,0.8,0.2,0.2,0.8,0.4,0.6,0.2,0.8,,,0.3692,,0.8,0.2,0.6,0.4,0.6,0.4,0.4,0.6,1,0
,,66c8aa0e9285869764f64e0d,66fc9881e3a790fbd7a55324,2024-10-01_17h57.56.750,mdp,2024.2.1,Win32,58.82352941,66fa4ebf79326e780c390304,,,,,,,,,,,,,,,,,,,,,1103.7212,1103.7214,1103.7241,1104.7205,1,0,right,0.4682,,1104.7233,1105.5037,1,0,right,1105.5067,1106.1866,1,1,right,0,1106.1868,1106.1868,1106.1896,1107.6862,0,40,40,40,1,0.6,0.4,0.8,0.2,,,,,,,,,,,,,,,0.2513,,0.8,0.2,0.2,0.8,0.4,0.6,0.2,0.8,,,0.1386,,0.8,0.2,0.6,0.4,0.6,0.4,0.4,0.6,1,0
,,66c8aa0e9285869764f64e0d,66fc9881e3a790fbd7a55324,2024-10-01_17h57.56.750,mdp,2024.2.1,Win32,58.82352941,66fa4ebf79326e780c390304,,,,,,,,,,,,,,,,,,,,,1107.687,1107.6872,1107.6898,1108.603,1,0,right,0.3854,,1108.6059,1109.3693,1,1,right,1109.3723,1110.1691,1,0,right,1,1110.1692,1110.1692,1110.1708,1111.6672,0,41,41,41,1,0.6,0.4,0.8,0.2,,,,,,,,,,,,,,,0.2351,,0.8,0.2,0.2,0.8,0.8,0.2,0.8,0.2,,,0.264,,0.8,0.2,0.6,0.4,0.6,0.4,0.4,0.6,1,0
,,66c8aa0e9285869764f64e0d,66fc9881e3a790fbd7a55324,2024-10-01_17h57.56.750,mdp,2024.2.1,Win32,58.82352941,66fa4ebf79326e780c390304,,,,,,,,,,,,,,,,,,,,,1111.668,1111.6681,1111.6699,1112.7354,1,0,right,0.5346,,1112.7384,1113.602,1,1,right,1113.6047,1114.4039,1,0,right,1,1114.404,1114.404,1114.4066,1115.9012,0,42,42,42,1,0.6,0.4,0.8,0.2,,,,,,,,,,,,,,,0.3354,,0.8,0.2,0.2,0.8,0.8,0.2,0.8,0.2,,,0.2777,,0.8,0.2,0.6,0.4,0.6,0.4,0.4,0.6,1,0
,,66c8aa0e9285869764f64e0d,66fc9881e3a790fbd7a55324,2024-10-01_17h57.56.750,mdp,2024.2.1,Win32,58.82352941,66fa4ebf79326e780c390304,,,,,,,,,,,,,,,,,,,,,1115.9022,1115.9023,1115.9052,1117.6182,1,0,right,1.1847,,1117.6211,1118.4178,1,0,right,1118.4206,1119.3341,1,1,right,0,1119.3342,1119.3342,1119.3372,1120.8336,0,43,43,43,1,0.6,0.4,0.8,0.2,,,,,,,,,,,,,,,0.2679,,0.8,0.2,0.2,0.8,0.8,0.2,0.8,0.2,,,0.3734,,0.8,0.2,0.6,0.4,0.6,0.4,0.4,0.6,1,0
,,66c8aa0e9285869764f64e0d,66fc9881e3a790fbd7a55324,2024-10-01_17h57.56.750,mdp,2024.2.1,Win32,58.82352941,66fa4ebf79326e780c390304,,,,,,,,,,,,,,,,,,,,,1120.8345,1120.8346,1120.8375,1122.2988,1,0,right,0.9357,,1122.3007,1123.1194,1,1,right,1123.1219,1123.9849,1,1,right,0,1123.9849,1123.985,1123.9877,1125.487,0,44,44,44,1,0.6,0.4,0.8,0.2,,,,,,,,,,,,,,,0.3013,,0.8,0.2,0.2,0.8,0.8,0.2,0.8,0.2,,,0.3321,,0.8,0.2,0.6,0.4,0.6,0.4,0.4,0.6,1,0
,,66c8aa0e9285869764f64e0d,66fc9881e3a790fbd7a55324,2024-10-01_17h57.56.750,mdp,2024.2.1,Win32,58.82352941,66fa4ebf79326e780c390304,,,,,,,,,,,,,,,,,,,,,1125.4878,1125.4878,1125.4897,1127.116,1,1,right,1.1036,,1127.1187,1128.1331,1,0,right,1128.136,1129.1345,1,0,right,1,1129.1346,1129.1346,1129.1379,1130.6315,0,45,45,45,1,0.6,0.4,0.8,0.2,,,,,,,,,,,,,,,0.4805,,0.8,0.2,0.2,0.8,0.8,0.2,0.8,0.2,,,0.4657,,0.8,0.2,0.6,0.4,0.6,0.4,0.4,0.6,1,0
,,66c8aa0e9285869764f64e0d,66fc9881e3a790fbd7a55324,2024-10-01_17h57.56.750,mdp,2024.2.1,Win32,58.82352941,66fa4ebf79326e780c390304,,,,,,,,,,,,,,,,,,,,,1130.6324,1130.6324,1130.6352,1131.5982,1,0,right,0.4355,,1131.6007,1132.4481,1,1,right,1132.4511,1133.3479,1,0,right,1,1133.348,1133.3481,1133.3508,1134.8472,0,46,46,46,1,0.6,0.4,0.8,0.2,,,,,,,,,,,,,,,0.3252,,0.8,0.2,0.2,0.8,0.8,0.2,0.8,0.2,,,0.3596,,0.8,0.2,0.6,0.4,0.6,0.4,0.4,0.6,1,0
,,66c8aa0e9285869764f64e0d,66fc9881e3a790fbd7a55324,2024-10-01_17h57.56.750,mdp,2024.2.1,Win32,58.82352941,66fa4ebf79326e780c390304,,,,,,,,,,,,,,,,,,,,,1134.8482,1134.8482,1134.8509,1135.8328,1,0,right,0.4608,,1135.8354,1136.7155,1,0,right,1136.7182,1137.5803,1,0,right,1,1137.5804,1137.5804,1137.5835,1139.0795,0,47,47,47,1,0.6,0.4,0.8,0.2,,,,,,,,,,,,,,,0.3605,,0.8,0.2,0.2,0.8,0.8,0.2,0.8,0.2,,,0.3257,,0.8,0.2,0.6,0.4,0.6,0.4,0.4,0.6,1,0
,,66c8aa0e9285869764f64e0d,66fc9881e3a790fbd7a55324,2024-10-01_17h57.56.750,mdp,2024.2.1,Win32,58.82352941,66fa4ebf79326e780c390304,,,,,,,,,,,,,,,,,,,,,1139.0804,1139.0804,1139.0832,1140.4618,1,0,right,0.8509,,1140.4639,1141.4463,1,1,right,1141.4495,1142.415,1,0,right,1,1142.4151,1142.4151,1142.4176,1143.9116,0,48,48,48,1,0.6,0.4,0.8,0.2,,,,,,,,,,,,,,,0.4683,,0.8,0.2,0.2,0.8,0.8,0.2,0.8,0.2,,,0.4302,,0.8,0.2,0.6,0.4,0.6,0.4,0.4,0.6,1,0
,,66c8aa0e9285869764f64e0d,66fc9881e3a790fbd7a55324,2024-10-01_17h57.56.750,mdp,2024.2.1,Win32,58.82352941,66fa4ebf79326e780c390304,,,,,,,,,,,,,,,,,,,,,1143.9123,1143.9124,1143.9141,1145.394,1,0,right,0.9525,,1145.396,1146.2439,1,1,right,1146.2459,1147.1103,1,0,right,1,1147.1104,1147.1104,1147.1123,1148.6111,0,49,49,49,1,0.6,0.4,0.8,0.2,,,,,,,,,,,,,,,0.3175,,0.8,0.2,0.2,0.8,0.8,0.2,0.8,0.2,,,0.3343,,0.8,0.2,0.6,0.4,0.6,0.4,0.4,0.6,1,0
,,66c8aa0e9285869764f64e0d,66fc9881e3a790fbd7a55324,2024-10-01_17h57.56.750,mdp,2024.2.1,Win32,58.82352941,66fa4ebf79326e780c390304,,,,,,,,,,,,,,,,,,,,,,,,,,,,,,,,,,,,,,,,,,,,,,,,,,,,,,,,1148.6114,1207.1148,0,3,3,7,1,imgs/rabbit.png,imgs/squirrel.png,imgs/dog.png,imgs/elephant.png,imgs/giraffe.png,,,,,,,,,,,,,,,,,,,,,,,,
,,66c8aa0e9285869764f64e0d,66fc9881e3a790fbd7a55324,2024-10-01_17h57.56.750,mdp,2024.2.1,Win32,58.82352941,66fa4ebf79326e780c390304,,,,,,,,,,,,,,1,seqs/st1seq11.csv,1207.131,1208.8315,space,1.1897,,1208.8432,1208.8432,1208.8472,1210.6324,1,0,right,1.2636,,1210.6355,1210.6376,1,0,,1210.6397,1210.6417,1,0,,1,1210.6418,1210.6418,1210.6436,1212.1306,0,0,0,0,1,0.8,0.2,0.4,0.6,1,0,,,,,,,,,,,,,,,,,,,,,,,,,,,,,,,,,,,,
,,66c8aa0e9285869764f64e0d,66fc9881e3a790fbd7a55324,2024-10-01_17h57.56.750,mdp,2024.2.1,Win32,58.82352941,66fa4ebf79326e780c390304,,,,,,,,,,,,,,,,,,,,,1212.1323,1212.1323,1212.1348,1213.1972,1,0,right,0.5353,,1213.2006,1213.2027,1,1,,1213.2051,1213.207,1,0,,1,1213.2071,1213.2071,1213.2089,1214.6961,0,1,1,1,1,0.6,0.4,0.8,0.2,1,0,,,,,,,,,,,,,,,,,,,,,,,,,,,,,,,,,,,,
,,66c8aa0e9285869764f64e0d,66fc9881e3a790fbd7a55324,2024-10-01_17h57.56.750,mdp,2024.2.1,Win32,58.82352941,66fa4ebf79326e780c390304,,,,,,,,,,,,,,,,,,,,,1214.6966,1214.6966,1214.6985,1215.6304,1,0,right,0.396,,1215.6324,1215.6338,1,1,,1215.636,1215.6372,1,0,,1,1215.6374,1215.6374,1215.6392,1217.1306,0,2,2,2,1,0.2,0.8,0.6,0.4,1,0,,,,,,,,,,,,,,,,,,,,,,,,,,,,,,,,,,,,
,,66c8aa0e9285869764f64e0d,66fc9881e3a790fbd7a55324,2024-10-01_17h57.56.750,mdp,2024.2.1,Win32,58.82352941,66fa4ebf79326e780c390304,,,,,,,,,,,,,,,,,,,,,1217.1313,1217.1314,1217.134,1218.0474,1,0,right,0.3853,,1218.0503,1218.0521,1,0,,1218.0543,1218.0561,1,0,,1,1218.0563,1218.0563,1218.0581,1219.5458,0,3,3,3,1,0.2,0.8,0.6,0.4,1,0,,,,,,,,,,,,,,,,,,,,,,,,,,,,,,,,,,,,
,,66c8aa0e9285869764f64e0d,66fc9881e3a790fbd7a55324,2024-10-01_17h57.56.750,mdp,2024.2.1,Win32,58.82352941,66fa4ebf79326e780c390304,,,,,,,,,,,,,,,,,,,,,1219.5475,1219.5476,1219.5503,1220.0786,1,0,right,0.0015,,1220.0823,1220.0843,1,0,,1220.0865,1220.0886,1,0,,1,1220.0887,1220.0887,1220.0915,1221.5798,0,4,4,4,1,0.2,0.8,0.6,0.4,1,0,,,,,,,,,,,,,,,,,,,,,,,,,,,,,,,,,,,,
,,66c8aa0e9285869764f64e0d,66fc9881e3a790fbd7a55324,2024-10-01_17h57.56.750,mdp,2024.2.1,Win32,58.82352941,66fa4ebf79326e780c390304,,,,,,,,,,,,,,,,,,,,,1221.5805,1221.5805,1221.5835,1222.4798,1,0,right,0.3691,,1222.4827,1222.4845,1,1,,1222.4865,1222.4885,1,0,,1,1222.4885,1222.4885,1222.4904,1223.9782,0,5,5,5,1,0.2,0.8,0.6,0.4,1,0,,,,,,,,,,,,,,,,,,,,,,,,,,,,,,,,,,,,
,,66c8aa0e9285869764f64e0d,66fc9881e3a790fbd7a55324,2024-10-01_17h57.56.750,mdp,2024.2.1,Win32,58.82352941,66fa4ebf79326e780c390304,,,,,,,,,,,,,,,,,,,,,1223.9797,1223.9798,1223.9823,1225.0116,1,0,right,0.501,,1225.015,1225.0168,1,1,,1225.0189,1225.0208,1,0,,1,1225.0209,1225.0209,1225.023,1226.5118,0,6,6,6,1,0.2,0.8,0.6,0.4,1,0,,,,,,,,,,,,,,,,,,,,,,,,,,,,,,,,,,,,
,,66c8aa0e9285869764f64e0d,66fc9881e3a790fbd7a55324,2024-10-01_17h57.56.750,mdp,2024.2.1,Win32,58.82352941,66fa4ebf79326e780c390304,,,,,,,,,,,,,,,,,,,,,1226.5126,1226.5126,1226.5153,1227.8287,1,0,right,0.784,,1227.8316,1227.8334,1,1,,1227.8354,1227.8374,1,0,,1,1227.8375,1227.8375,1227.8393,1229.3291,0,7,7,7,1,0.2,0.8,0.6,0.4,1,0,,,,,,,,,,,,,,,,,,,,,,,,,,,,,,,,,,,,
,,66c8aa0e9285869764f64e0d,66fc9881e3a790fbd7a55324,2024-10-01_17h57.56.750,mdp,2024.2.1,Win32,58.82352941,66fa4ebf79326e780c390304,,,,,,,,,,,,,,,,,,,,,1229.3307,1229.3307,1229.3338,1230.1605,1,0,right,0.3018,,1230.1639,1230.1659,1,0,,1230.168,1230.1699,1,1,,1,1230.17,1230.17,1230.1719,1231.6598,0,8,8,8,1,0.2,0.8,0.6,0.4,1,0,,,,,,,,,,,,,,,,,,,,,,,,,,,,,,,,,,,,
,,66c8aa0e9285869764f64e0d,66fc9881e3a790fbd7a55324,2024-10-01_17h57.56.750,mdp,2024.2.1,Win32,58.82352941,66fa4ebf79326e780c390304,,,,,,,,,,,,,,,,,,,,,1231.6616,1231.6616,1231.6641,1232.4601,1,0,right,0.2655,,1232.4633,1232.4654,1,0,,1232.4676,1232.4694,1,1,,1,1232.4695,1232.4695,1232.4714,1233.9605,0,9,9,9,1,0.6,0.4,0.2,0.8,1,0,,,,,,,,,,,,,,,,,,,,,,,,,,,,,,,,,,,,
,,66c8aa0e9285869764f64e0d,66fc9881e3a790fbd7a55324,2024-10-01_17h57.56.750,mdp,2024.2.1,Win32,58.82352941,66fa4ebf79326e780c390304,,,,,,,,,,,,,,,,,,,,,1233.9613,1233.9613,1233.9642,1235.5459,1,1,right,1.0609,,1235.5486,1235.5505,1,1,,1235.5527,1235.5545,1,1,,0,1235.5547,1235.5547,1235.5594,1237.0589,0,10,10,10,1,0.6,0.4,0.2,0.8,1,0,,,,,,,,,,,,,,,,,,,,,,,,,,,,,,,,,,,,
,,66c8aa0e9285869764f64e0d,66fc9881e3a790fbd7a55324,2024-10-01_17h57.56.750,mdp,2024.2.1,Win32,58.82352941,66fa4ebf79326e780c390304,,,,,,,,,,,,,,,,,,,,,1237.0606,1237.0606,1237.0631,1238.0423,1,0,right,0.4515,,1238.0455,1238.0476,1,0,,1238.0497,1238.0516,1,1,,1,1238.0517,1238.0517,1238.0536,1239.5427,0,11,11,11,1,0.8,0.2,0.8,0.2,1,0,,,,,,,,,,,,,,,,,,,,,,,,,,,,,,,,,,,,
,,66c8aa0e9285869764f64e0d,66fc9881e3a790fbd7a55324,2024-10-01_17h57.56.750,mdp,2024.2.1,Win32,58.82352941,66fa4ebf79326e780c390304,,,,,,,,,,,,,,,,,,,,,1239.5434,1239.5434,1239.5463,1240.6428,1,0,right,0.5687,,1240.6457,1240.6474,1,0,,1240.6495,1240.6514,1,1,,1,1240.6515,1240.6516,1240.6535,1242.1407,0,12,12,12,1,0.8,0.2,0.8,0.2,1,0,,,,,,,,,,,,,,,,,,,,,,,,,,,,,,,,,,,,
,,66c8aa0e9285869764f64e0d,66fc9881e3a790fbd7a55324,2024-10-01_17h57.56.750,mdp,2024.2.1,Win32,58.82352941,66fa4ebf79326e780c390304,,,,,,,,,,,,,,,,,,,,,1242.1428,1242.1428,1242.1455,1243.0079,1,0,right,0.3343,,1243.0114,1243.0136,1,0,,1243.0157,1243.0177,1,0,,1,1243.0178,1243.0178,1243.0196,1244.5085,0,13,13,13,1,0.2,0.8,0.6,0.4,1,0,,,,,,,,,,,,,,,,,,,,,,,,,,,,,,,,,,,,
,,66c8aa0e9285869764f64e0d,66fc9881e3a790fbd7a55324,2024-10-01_17h57.56.750,mdp,2024.2.1,Win32,58.82352941,66fa4ebf79326e780c390304,,,,,,,,,,,,,,,,,,,,,1244.5091,1244.5092,1244.512,1245.392,1,1,right,0.3539,,1245.3948,1245.3967,1,1,,1245.3989,1245.4007,1,1,,0,1245.4011,1245.4011,1245.4073,1246.8903,0,14,14,14,1,0.2,0.8,0.6,0.4,1,0,,,,,,,,,,,,,,,,,,,,,,,,,,,,,,,,,,,,
,,66c8aa0e9285869764f64e0d,66fc9881e3a790fbd7a55324,2024-10-01_17h57.56.750,mdp,2024.2.1,Win32,58.82352941,66fa4ebf79326e780c390304,,,,,,,,,,,,,,,,,,,,,1246.8919,1246.8919,1246.8951,1247.7235,1,1,right,0.3012,,1247.7268,1247.7289,1,0,,1247.7311,1247.7329,1,0,,0,1247.733,1247.733,1247.7352,1249.2231,0,15,15,15,1,0.2,0.8,0.6,0.4,1,0,,,,,,,,,,,,,,,,,,,,,,,,,,,,,,,,,,,,
,,66c8aa0e9285869764f64e0d,66fc9881e3a790fbd7a55324,2024-10-01_17h57.56.750,mdp,2024.2.1,Win32,58.82352941,66fa4ebf79326e780c390304,,,,,,,,,,,,,,,,,,,,,1249.2248,1249.2249,1249.2274,1250.0564,1,0,right,0.3016,,1250.0599,1250.0617,1,1,,1250.0639,1250.0657,1,0,,1,1250.0658,1250.0658,1250.068,1251.5568,0,16,16,16,1,0.2,0.8,0.6,0.4,1,0,,,,,,,,,,,,,,,,,,,,,,,,,,,,,,,,,,,,
,,66c8aa0e9285869764f64e0d,66fc9881e3a790fbd7a55324,2024-10-01_17h57.56.750,mdp,2024.2.1,Win32,58.82352941,66fa4ebf79326e780c390304,,,,,,,,,,,,,,,,,,,,,1251.5575,1251.5576,1251.5611,1252.4222,1,0,right,0.3349,,1252.4242,1252.4255,1,0,,1252.4271,1252.4285,1,1,,1,1252.4285,1252.4285,1252.4297,1253.9216,0,17,17,17,1,0.2,0.8,0.6,0.4,1,0,,,,,,,,,,,,,,,,,,,,,,,,,,,,,,,,,,,,
,,66c8aa0e9285869764f64e0d,66fc9881e3a790fbd7a55324,2024-10-01_17h57.56.750,mdp,2024.2.1,Win32,58.82352941,66fa4ebf79326e780c390304,,,,,,,,,,,,,,,,,,,,,1253.9221,1253.9221,1253.9241,1254.9084,1,1,right,0.4775,,1254.9111,1254.9129,1,1,,1254.915,1254.9169,1,0,,0,1254.917,1254.917,1254.9219,1256.4207,0,18,18,18,1,0.2,0.8,0.6,0.4,1,0,,,,,,,,,,,,,,,,,,,,,,,,,,,,,,,,,,,,
,,66c8aa0e9285869764f64e0d,66fc9881e3a790fbd7a55324,2024-10-01_17h57.56.750,mdp,2024.2.1,Win32,58.82352941,66fa4ebf79326e780c390304,,,,,,,,,,,,,,,,,,,,,1256.4218,1256.4218,1256.4236,1256.9717,1,1,right,0.0182,,1256.9752,1256.977,1,0,,1256.9791,1256.9809,1,0,,0,1256.981,1256.981,1256.9831,1258.4707,0,19,19,19,1,0.2,0.8,0.6,0.4,1,0,,,,,,,,,,,,,,,,,,,,,,,,,,,,,,,,,,,,
,,66c8aa0e9285869764f64e0d,66fc9881e3a790fbd7a55324,2024-10-01_17h57.56.750,mdp,2024.2.1,Win32,58.82352941,66fa4ebf79326e780c390304,,,,,,,,,,,,,,,,,,,,,1258.4712,1258.4712,1258.4731,1260.2216,1,1,right,1.2248,,1260.2236,1260.2251,1,0,,1260.2274,1260.2292,1,0,,0,1260.2293,1260.2293,1260.2307,1261.7207,0,20,20,20,1,0.4,0.6,0.8,0.2,1,0,,,,,,,,,,,,,,,,,,,,,,,,,,,,,,,,,,,,
,,66c8aa0e9285869764f64e0d,66fc9881e3a790fbd7a55324,2024-10-01_17h57.56.750,mdp,2024.2.1,Win32,58.82352941,66fa4ebf79326e780c390304,,,,,,,,,,,,,,,,,,,,,1261.7218,1261.7218,1261.7247,1262.6199,1,0,right,0.3673,,1262.6218,1262.6231,1,0,,1262.6248,1262.626,1,1,,1,1262.6261,1262.6261,1262.6273,1264.121,0,21,21,21,1,0.6,0.4,0.6,0.4,1,0,,,,,,,,,,,,,,,,,,,,,,,,,,,,,,,,,,,,
,,66c8aa0e9285869764f64e0d,66fc9881e3a790fbd7a55324,2024-10-01_17h57.56.750,mdp,2024.2.1,Win32,58.82352941,66fa4ebf79326e780c390304,,,,,,,,,,,,,,,,,,,,,1264.1216,1264.1217,1264.1245,1265.0378,1,0,right,0.3846,,1265.0406,1265.0424,1,0,,1265.0446,1265.0467,1,1,,1,1265.0468,1265.0468,1265.0493,1266.5372,0,22,22,22,1,0.6,0.4,0.6,0.4,1,0,,,,,,,,,,,,,,,,,,,,,,,,,,,,,,,,,,,,
,,66c8aa0e9285869764f64e0d,66fc9881e3a790fbd7a55324,2024-10-01_17h57.56.750,mdp,2024.2.1,Win32,58.82352941,66fa4ebf79326e780c390304,,,,,,,,,,,,,,,,,,,,,1266.538,1266.538,1266.5409,1267.4061,1,0,right,0.3433,,1267.4088,1267.4107,1,1,,1267.4129,1267.4148,1,0,,1,1267.4149,1267.4149,1267.4197,1268.9191,0,23,23,23,1,0.6,0.4,0.6,0.4,1,0,,,,,,,,,,,,,,,,,,,,,,,,,,,,,,,,,,,,
,,66c8aa0e9285869764f64e0d,66fc9881e3a790fbd7a55324,2024-10-01_17h57.56.750,mdp,2024.2.1,Win32,58.82352941,66fa4ebf79326e780c390304,,,,,,,,,,,,,,,,,,,,,1268.9208,1268.9208,1268.9232,1269.8691,1,0,right,0.419,,1269.8728,1269.8749,1,0,,1269.8772,1269.8792,1,1,,1,1269.8793,1269.8793,1269.8814,1271.368,0,24,24,24,1,0.6,0.4,0.6,0.4,1,0,,,,,,,,,,,,,,,,,,,,,,,,,,,,,,,,,,,,
,,66c8aa0e9285869764f64e0d,66fc9881e3a790fbd7a55324,2024-10-01_17h57.56.750,mdp,2024.2.1,Win32,58.82352941,66fa4ebf79326e780c390304,,,,,,,,,,,,,,,,,,,,,1271.3692,1271.3692,1271.3723,1272.2186,1,0,right,0.318,,1272.2221,1272.2239,1,1,,1272.2262,1272.228,1,1,,1,1272.2281,1272.2281,1272.23,1273.718,0,25,25,25,1,0.6,0.4,0.6,0.4,1,0,,,,,,,,,,,,,,,,,,,,,,,,,,,,,,,,,,,,
,,66c8aa0e9285869764f64e0d,66fc9881e3a790fbd7a55324,2024-10-01_17h57.56.750,mdp,2024.2.1,Win32,58.82352941,66fa4ebf79326e780c390304,,,,,,,,,,,,,,,,,,,,,1273.7199,1273.7199,1273.7229,1274.2849,1,1,right,0.036,,1274.2882,1274.29,1,0,,1274.2921,1274.294,1,0,,0,1274.2941,1274.2941,1274.2961,1275.7854,0,26,26,26,1,0.6,0.4,0.6,0.4,1,0,,,,,,,,,,,,,,,,,,,,,,,,,,,,,,,,,,,,
,,66c8aa0e9285869764f64e0d,66fc9881e3a790fbd7a55324,2024-10-01_17h57.56.750,mdp,2024.2.1,Win32,58.82352941,66fa4ebf79326e780c390304,,,,,,,,,,,,,,,,,,,,,1275.7861,1275.7861,1275.7888,1277.3029,1,0,right,0.9929,,1277.3056,1277.3075,1,0,,1277.3097,1277.3116,1,0,,1,1277.3117,1277.3117,1277.3135,1278.8004,0,27,27,27,1,0.6,0.4,0.6,0.4,1,0,,,,,,,,,,,,,,,,,,,,,,,,,,,,,,,,,,,,
,,66c8aa0e9285869764f64e0d,66fc9881e3a790fbd7a55324,2024-10-01_17h57.56.750,mdp,2024.2.1,Win32,58.82352941,66fa4ebf79326e780c390304,,,,,,,,,,,,,,,,,,,,,1278.8021,1278.8022,1278.8047,1280.4503,1,0,right,1.1189,,1280.4539,1280.4558,1,1,,1280.4578,1280.4596,1,0,,1,1280.4596,1280.4597,1280.4614,1281.9501,0,28,28,28,1,0.6,0.4,0.6,0.4,1,0,,,,,,,,,,,,,,,,,,,,,,,,,,,,,,,,,,,,
,,66c8aa0e9285869764f64e0d,66fc9881e3a790fbd7a55324,2024-10-01_17h57.56.750,mdp,2024.2.1,Win32,58.82352941,66fa4ebf79326e780c390304,,,,,,,,,,,,,,,,,,,,,1281.9509,1281.951,1281.9538,1283.8505,1,0,right,1.3677,,1283.8528,1283.8549,1,0,,1283.8569,1283.8587,1,0,,1,1283.8587,1283.8587,1283.8605,1285.3498,0,29,29,29,1,0.6,0.4,0.6,0.4,1,0,,,,,,,,,,,,,,,,,,,,,,,,,,,,,,,,,,,,
,,66c8aa0e9285869764f64e0d,66fc9881e3a790fbd7a55324,2024-10-01_17h57.56.750,mdp,2024.2.1,Win32,58.82352941,66fa4ebf79326e780c390304,,,,,,,,,,,,,,,,,,,,,1285.3505,1285.3506,1285.3531,1287.2164,1,1,right,1.3533,,1287.2187,1287.2208,1,0,,1287.2231,1287.2247,1,0,,0,1287.2248,1287.2248,1287.2267,1288.7148,0,30,30,30,1,0.6,0.4,0.6,0.4,1,0,,,,,,,,,,,,,,,,,,,,,,,,,,,,,,,,,,,,
,,66c8aa0e9285869764f64e0d,66fc9881e3a790fbd7a55324,2024-10-01_17h57.56.750,mdp,2024.2.1,Win32,58.82352941,66fa4ebf79326e780c390304,,,,,,,,,,,,,,,,,,,,,1288.7166,1288.7166,1288.7189,1290.0141,1,0,right,0.7675,,1290.0161,1290.0176,1,1,,1290.0192,1290.0206,1,0,,1,1290.0207,1290.0207,1290.022,1291.5145,0,31,31,31,1,0.6,0.4,0.6,0.4,1,0,,,,,,,,,,,,,,,,,,,,,,,,,,,,,,,,,,,,
,,66c8aa0e9285869764f64e0d,66fc9881e3a790fbd7a55324,2024-10-01_17h57.56.750,mdp,2024.2.1,Win32,58.82352941,66fa4ebf79326e780c390304,,,,,,,,,,,,,,,,,,,,,1291.5162,1291.5162,1291.5188,1292.4136,1,0,right,0.3682,,1292.4156,1292.417,1,0,,1292.4185,1292.4197,1,1,,1,1292.4199,1292.4199,1292.421,1293.913,0,32,32,32,1,0.6,0.4,0.6,0.4,1,0,,,,,,,,,,,,,,,,,,,,,,,,,,,,,,,,,,,,
,,66c8aa0e9285869764f64e0d,66fc9881e3a790fbd7a55324,2024-10-01_17h57.56.750,mdp,2024.2.1,Win32,58.82352941,66fa4ebf79326e780c390304,,,,,,,,,,,,,,,,,,,,,1293.914,1293.9142,1293.9159,1295.4972,1,0,right,1.0519,,1295.5004,1295.5025,1,0,,1295.5055,1295.5075,1,1,,1,1295.5075,1295.5075,1295.5094,1296.9966,0,33,33,33,1,0.6,0.4,0.6,0.4,1,0,,,,,,,,,,,,,,,,,,,,,,,,,,,,,,,,,,,,
,,66c8aa0e9285869764f64e0d,66fc9881e3a790fbd7a55324,2024-10-01_17h57.56.750,mdp,2024.2.1,Win32,58.82352941,66fa4ebf79326e780c390304,,,,,,,,,,,,,,,,,,,,,1296.9984,1296.9985,1297.0014,1298.43,1,0,right,0.9014,,1298.4333,1298.4353,1,1,,1298.4374,1298.4392,1,1,,1,1298.4393,1298.4393,1298.4413,1299.9303,0,34,34,34,1,0.6,0.4,0.6,0.4,1,0,,,,,,,,,,,,,,,,,,,,,,,,,,,,,,,,,,,,
,,66c8aa0e9285869764f64e0d,66fc9881e3a790fbd7a55324,2024-10-01_17h57.56.750,mdp,2024.2.1,Win32,58.82352941,66fa4ebf79326e780c390304,,,,,,,,,,,,,,,,,,,,,1299.931,1299.931,1299.9338,1301.8136,1,0,right,1.3509,,1301.8163,1301.8182,1,1,,1301.8203,1301.8223,1,1,,1,1301.8224,1301.8224,1301.8243,1303.3119,0,35,35,35,1,0.6,0.4,0.6,0.4,1,0,,,,,,,,,,,,,,,,,,,,,,,,,,,,,,,,,,,,
,,66c8aa0e9285869764f64e0d,66fc9881e3a790fbd7a55324,2024-10-01_17h57.56.750,mdp,2024.2.1,Win32,58.82352941,66fa4ebf79326e780c390304,,,,,,,,,,,,,,,,,,,,,1303.3137,1303.3138,1303.3162,1304.7777,1,0,right,0.9337,,1304.7798,1304.7811,1,0,,1304.7826,1304.7838,1,0,,1,1304.7839,1304.7839,1304.7852,1306.2781,0,36,36,36,1,0.6,0.4,0.6,0.4,1,0,,,,,,,,,,,,,,,,,,,,,,,,,,,,,,,,,,,,
,,66c8aa0e9285869764f64e0d,66fc9881e3a790fbd7a55324,2024-10-01_17h57.56.750,mdp,2024.2.1,Win32,58.82352941,66fa4ebf79326e780c390304,,,,,,,,,,,,,,,,,,,,,1306.28,1306.2801,1306.2829,1307.8948,1,1,right,1.086,,1307.898,1307.8999,1,0,,1307.9019,1307.9038,1,1,,0,1307.9039,1307.904,1307.9058,1309.3932,0,37,37,37,1,0.8,0.2,0.2,0.8,1,0,,,,,,,,,,,,,,,,,,,,,,,,,,,,,,,,,,,,
,,66c8aa0e9285869764f64e0d,66fc9881e3a790fbd7a55324,2024-10-01_17h57.56.750,mdp,2024.2.1,Win32,58.82352941,66fa4ebf79326e780c390304,,,,,,,,,,,,,,,,,,,,,1309.3943,1309.3943,1309.396,1317.1955,1,1,right,7.2738,,1317.2277,1317.2297,1,1,,1317.2318,1317.2336,1,1,,0,1317.2337,1317.2337,1317.2356,1318.7263,0,38,38,38,1,0.8,0.2,0.2,0.8,1,0,,,,,,,,,,,,,,,,,,,,,,,,,,,,,,,,,,,,
,,66c8aa0e9285869764f64e0d,66fc9881e3a790fbd7a55324,2024-10-01_17h57.56.750,mdp,2024.2.1,Win32,58.82352941,66fa4ebf79326e780c390304,,,,,,,,,,,,,,,,,,,,,1318.7272,1318.7272,1318.7298,1321.7096,1,1,right,2.4508,,1321.7422,1321.7441,1,0,,1321.7456,1321.7469,1,1,,0,1321.7469,1321.7469,1321.7482,1323.2402,0,39,39,39,1,0.8,0.2,0.2,0.8,1,0,,,,,,,,,,,,,,,,,,,,,,,,,,,,,,,,,,,,
,,66c8aa0e9285869764f64e0d,66fc9881e3a790fbd7a55324,2024-10-01_17h57.56.750,mdp,2024.2.1,Win32,58.82352941,66fa4ebf79326e780c390304,,,,,,,,,,,,,,,,,,,,,1323.2413,1323.2413,1323.2431,1324.208,1,1,right,0.4353,,1324.2113,1324.2133,1,1,,1324.2154,1324.218,1,1,,0,1324.218,1324.218,1324.22,1325.7074,0,40,40,40,1,0.8,0.2,0.2,0.8,1,0,,,,,,,,,,,,,,,,,,,,,,,,,,,,,,,,,,,,
