init_exp.started,init_exp.stopped,participant,session,date,expName,psychopyVersion,OS,frameRate,study_id,disp_instruction.started,disp_instruction.stopped,instruction.thisRepN,instruction.thisTrialN,instruction.thisN,instruction.thisIndex,instruction.ran,instimg_path,consent.started,consent.stopped,key_resp_3.keys,key_resp_3.rt,key_resp_3.duration,n_steps,sequence_path,init_block.started,init_block.stopped,key_resp.keys,key_resp.rt,key_resp.duration,init_trials.started,init_trials.stopped,step0.started,step0.stopped,act0,s1,res0.keys,res0.rt,res0.duration,step1.started,step1.stopped,act1,s2,res1.keys,step2.started,step2.stopped,act2,s3,res2.keys,rew,reward_comp.started,reward_comp.stopped,reward_disp.started,reward_disp.stopped,trials.thisRepN,trials.thisTrialN,trials.thisN,trials.thisIndex,trials.ran,s00a0s10,s00a0s11,s00a1s10,s00a1s11,rew10,rew11,break_block.started,break_block.stopped,block.thisRepN,block.thisTrialN,block.thisN,block.thisIndex,block.ran,s00path,s10path,s11path,s20path,s21path,res1.rt,res1.duration,s10a0s20,s10a0s21,s10a1s20,s10a1s21,s11a0s20,s11a0s21,s11a1s20,s11a1s21,rew20,rew21,res2.rt,res2.duration,s20a0s30,s20a0s31,s20a1s30,s20a1s31,s21a0s30,s21a0s31,s21a1s30,s21a1s31,rew30,rew31
0.0007,0.006,66c856fd76895ebe2db7c327,66fc9875c4b9a29d76467140,2024-10-02_03h21.34.849,mdp,2024.2.1,Linux aarch64,30.06253006,66fa4ebf79326e780c390304,,,,,,,,,,,,,,,,,,,,,,,,,,,,,,,,,,,,,,,,,,,,,,,,,,,,,,,,,,,,,,,,,,,,,,,,,,,,,,,,,,,,,,,,,,,
,,66c856fd76895ebe2db7c327,66fc9875c4b9a29d76467140,2024-10-02_03h21.34.849,mdp,2024.2.1,Linux aarch64,30.06253006,66fa4ebf79326e780c390304,0.0205,39.5197,0,0,0,0,1,rlnn_exp/rlnn_exp.001.png,,,,,,,,,,,,,,,,,,,,,,,,,,,,,,,,,,,,,,,,,,,,,,,,,,,,,,,,,,,,,,,,,,,,,,,,,,,,,,,,,,,
,,66c856fd76895ebe2db7c327,66fc9875c4b9a29d76467140,2024-10-02_03h21.34.849,mdp,2024.2.1,Linux aarch64,30.06253006,66fa4ebf79326e780c390304,39.5222,50.9608,0,1,1,1,1,rlnn_exp/rlnn_exp.002.png,,,,,,,,,,,,,,,,,,,,,,,,,,,,,,,,,,,,,,,,,,,,,,,,,,,,,,,,,,,,,,,,,,,,,,,,,,,,,,,,,,,
,,66c856fd76895ebe2db7c327,66fc9875c4b9a29d76467140,2024-10-02_03h21.34.849,mdp,2024.2.1,Linux aarch64,30.06253006,66fa4ebf79326e780c390304,50.9855,96.3346,0,2,2,2,1,rlnn_exp/rlnn_exp.003.png,,,,,,,,,,,,,,,,,,,,,,,,,,,,,,,,,,,,,,,,,,,,,,,,,,,,,,,,,,,,,,,,,,,,,,,,,,,,,,,,,,,
,,66c856fd76895ebe2db7c327,66fc9875c4b9a29d76467140,2024-10-02_03h21.34.849,mdp,2024.2.1,Linux aarch64,30.06253006,66fa4ebf79326e780c390304,96.363,493.7355,0,3,3,3,1,rlnn_exp/rlnn_exp.004.png,,,,,,,,,,,,,,,,,,,,,,,,,,,,,,,,,,,,,,,,,,,,,,,,,,,,,,,,,,,,,,,,,,,,,,,,,,,,,,,,,,,
,,66c856fd76895ebe2db7c327,66fc9875c4b9a29d76467140,2024-10-02_03h21.34.849,mdp,2024.2.1,Linux aarch64,30.06253006,66fa4ebf79326e780c390304,,,,,,,,,493.7563,506.5695,y,2.6919,,,,,,,,,,,,,,,,,,,,,,,,,,,,,,,,,,,,,,,,,,,,,,,,,,,,,,,,,,,,,,,,,,,,,,,,,,,,,,,
,,66c856fd76895ebe2db7c327,66fc9875c4b9a29d76467140,2024-10-02_03h21.34.849,mdp,2024.2.1,Linux aarch64,30.06253006,66fa4ebf79326e780c390304,,,,,,,,,,,,,,1,seqs/st1seq45.csv,506.6349,513.222,space,6.0386,,513.2668,513.2673,513.2694,515.0408,1,0,right,1.2117,,515.0446,515.0561,,0,,515.0576,515.0644,,1,,1,515.0649,515.0653,515.0667,516.5673,0,0,0,0,1,0.8,0.2,0.8,0.2,1,0,,,,,,,,,,,,,,,,,,,,,,,,,,,,,,,,,,,,
,,66c856fd76895ebe2db7c327,66fc9875c4b9a29d76467140,2024-10-02_03h21.34.849,mdp,2024.2.1,Linux aarch64,30.06253006,66fa4ebf79326e780c390304,,,,,,,,,,,,,,,,,,,,,516.5702,516.5704,516.579,518.4166,0,0,left,1.2944,,518.4223,518.431,,1,,518.4357,518.4389,,1,,1,518.4391,518.4391,518.4419,519.9351,0,1,1,1,1,0.8,0.2,0.8,0.2,1,0,,,,,,,,,,,,,,,,,,,,,,,,,,,,,,,,,,,,
,,66c856fd76895ebe2db7c327,66fc9875c4b9a29d76467140,2024-10-02_03h21.34.849,mdp,2024.2.1,Linux aarch64,30.06253006,66fa4ebf79326e780c390304,,,,,,,,,,,,,,,,,,,,,519.9376,519.9379,519.9453,521.8704,0,0,left,1.3471,,521.8757,521.8814,,0,,521.8861,521.8888,,0,,1,521.889,521.889,521.8916,523.3562,0,2,2,2,1,0.8,0.2,0.8,0.2,1,0,,,,,,,,,,,,,,,,,,,,,,,,,,,,,,,,,,,,
,,66c856fd76895ebe2db7c327,66fc9875c4b9a29d76467140,2024-10-02_03h21.34.849,mdp,2024.2.1,Linux aarch64,30.06253006,66fa4ebf79326e780c390304,,,,,,,,,,,,,,,,,,,,,523.3592,523.3596,523.3675,524.945,1,0,right,1.0354,0.0009,524.9495,524.9544,,0,,524.9595,524.9663,,0,,1,524.9665,524.9665,524.9689,526.4676,0,3,3,3,1,0.8,0.2,0.8,0.2,1,0,,,,,,,,,,,,,,,,,,,,,,,,,,,,,,,,,,,,
,,66c856fd76895ebe2db7c327,66fc9875c4b9a29d76467140,2024-10-02_03h21.34.849,mdp,2024.2.1,Linux aarch64,30.06253006,66fa4ebf79326e780c390304,,,,,,,,,,,,,,,,,,,,,526.4695,526.4697,526.4758,527.8255,0,1,left,0.802,0.0008,527.8297,527.8345,,0,,527.8387,527.8414,,1,,0,527.8415,527.8415,527.8439,529.3319,0,4,4,4,1,0.6,0.4,0.6,0.4,1,0,,,,,,,,,,,,,,,,,,,,,,,,,,,,,,,,,,,,
,,66c856fd76895ebe2db7c327,66fc9875c4b9a29d76467140,2024-10-02_03h21.34.849,mdp,2024.2.1,Linux aarch64,30.06253006,66fa4ebf79326e780c390304,,,,,,,,,,,,,,,,,,,,,529.3339,529.334,529.3413,530.9969,1,0,right,1.0787,,531.0031,531.0098,,0,,531.0148,531.0175,,1,,1,531.0176,531.0177,531.0201,532.504,0,5,5,5,1,0.6,0.4,0.6,0.4,1,0,,,,,,,,,,,,,,,,,,,,,,,,,,,,,,,,,,,,
,,66c856fd76895ebe2db7c327,66fc9875c4b9a29d76467140,2024-10-02_03h21.34.849,mdp,2024.2.1,Linux aarch64,30.06253006,66fa4ebf79326e780c390304,,,,,,,,,,,,,,,,,,,,,532.5059,532.5059,532.512,534.3213,1,1,right,1.2237,,534.3265,534.3324,,1,,534.3378,534.3476,,0,,0,534.348,534.3481,534.3551,535.8214,0,6,6,6,1,0.6,0.4,0.6,0.4,1,0,,,,,,,,,,,,,,,,,,,,,,,,,,,,,,,,,,,,
,,66c856fd76895ebe2db7c327,66fc9875c4b9a29d76467140,2024-10-02_03h21.34.849,mdp,2024.2.1,Linux aarch64,30.06253006,66fa4ebf79326e780c390304,,,,,,,,,,,,,,,,,,,,,535.8234,535.8236,535.8292,538.2627,0,1,left,1.8822,,538.269,538.2747,,1,,538.2802,538.286,,1,,0,538.2862,538.2864,538.2947,539.7656,0,7,7,7,1,0.6,0.4,0.6,0.4,1,0,,,,,,,,,,,,,,,,,,,,,,,,,,,,,,,,,,,,
,,66c856fd76895ebe2db7c327,66fc9875c4b9a29d76467140,2024-10-02_03h21.34.849,mdp,2024.2.1,Linux aarch64,30.06253006,66fa4ebf79326e780c390304,,,,,,,,,,,,,,,,,,,,,539.7687,539.7689,539.7767,541.7914,0,0,left,1.4713,,541.7976,541.8028,,0,,541.8086,541.8139,,0,,1,541.8168,541.8169,541.8207,543.3183,0,8,8,8,1,0.8,0.2,0.8,0.2,1,0,,,,,,,,,,,,,,,,,,,,,,,,,,,,,,,,,,,,
,,66c856fd76895ebe2db7c327,66fc9875c4b9a29d76467140,2024-10-02_03h21.34.849,mdp,2024.2.1,Linux aarch64,30.06253006,66fa4ebf79326e780c390304,,,,,,,,,,,,,,,,,,,,,543.3211,543.3212,543.3277,545.2939,1,0,right,1.3875,0.0008,545.2984,545.3044,,0,,545.3071,545.3098,,0,,1,545.3099,545.31,545.312,546.8037,0,9,9,9,1,0.8,0.2,0.8,0.2,1,0,,,,,,,,,,,,,,,,,,,,,,,,,,,,,,,,,,,,
,,66c856fd76895ebe2db7c327,66fc9875c4b9a29d76467140,2024-10-02_03h21.34.849,mdp,2024.2.1,Linux aarch64,30.06253006,66fa4ebf79326e780c390304,,,,,,,,,,,,,,,,,,,,,546.8059,546.8061,546.8118,548.3706,0,0,left,0.9789,,548.3759,548.3822,,1,,548.3859,548.3899,,0,,1,548.3902,548.3902,548.3938,549.8816,0,10,10,10,1,0.8,0.2,0.8,0.2,1,0,,,,,,,,,,,,,,,,,,,,,,,,,,,,,,,,,,,,
,,66c856fd76895ebe2db7c327,66fc9875c4b9a29d76467140,2024-10-02_03h21.34.849,mdp,2024.2.1,Linux aarch64,30.06253006,66fa4ebf79326e780c390304,,,,,,,,,,,,,,,,,,,,,549.883,549.8831,549.888,550.9517,0,1,left,0.483,,550.957,550.9621,,0,,550.9668,550.9723,,0,,0,550.9736,550.9736,550.9761,552.4771,0,11,11,11,1,0.8,0.2,0.8,0.2,1,0,,,,,,,,,,,,,,,,,,,,,,,,,,,,,,,,,,,,
,,66c856fd76895ebe2db7c327,66fc9875c4b9a29d76467140,2024-10-02_03h21.34.849,mdp,2024.2.1,Linux aarch64,30.06253006,66fa4ebf79326e780c390304,,,,,,,,,,,,,,,,,,,,,552.4791,552.4794,552.4855,554.7349,0,1,left,1.6698,,554.7393,554.7453,,0,,554.7511,554.7559,,0,,0,554.7561,554.7561,554.7584,556.2586,0,12,12,12,1,0.8,0.2,0.8,0.2,1,0,,,,,,,,,,,,,,,,,,,,,,,,,,,,,,,,,,,,
,,66c856fd76895ebe2db7c327,66fc9875c4b9a29d76467140,2024-10-02_03h21.34.849,mdp,2024.2.1,Linux aarch64,30.06253006,66fa4ebf79326e780c390304,,,,,,,,,,,,,,,,,,,,,556.2609,556.2611,556.2727,557.293,0,1,left,0.4489,,557.2972,557.3027,,0,,557.3075,557.3134,,0,,0,557.3137,557.3137,557.3162,558.8067,0,13,13,13,1,0.8,0.2,0.8,0.2,1,0,,,,,,,,,,,,,,,,,,,,,,,,,,,,,,,,,,,,
,,66c856fd76895ebe2db7c327,66fc9875c4b9a29d76467140,2024-10-02_03h21.34.849,mdp,2024.2.1,Linux aarch64,30.06253006,66fa4ebf79326e780c390304,,,,,,,,,,,,,,,,,,,,,558.8081,558.8083,558.8131,559.5753,0,0,left,0.1772,,559.5799,559.5848,,0,,559.5901,559.5947,,1,,1,559.5949,559.5949,559.5974,561.0677,0,14,14,14,1,0.8,0.2,0.8,0.2,1,0,,,,,,,,,,,,,,,,,,,,,,,,,,,,,,,,,,,,
,,66c856fd76895ebe2db7c327,66fc9875c4b9a29d76467140,2024-10-02_03h21.34.849,mdp,2024.2.1,Linux aarch64,30.06253006,66fa4ebf79326e780c390304,,,,,,,,,,,,,,,,,,,,,561.0695,561.0697,561.0754,562.0168,1,1,right,0.3606,,562.0227,562.0292,,1,,562.0348,562.0382,,0,,0,562.0385,562.0385,562.0474,563.5222,0,15,15,15,1,0.8,0.2,0.8,0.2,1,0,,,,,,,,,,,,,,,,,,,,,,,,,,,,,,,,,,,,
,,66c856fd76895ebe2db7c327,66fc9875c4b9a29d76467140,2024-10-02_03h21.34.849,mdp,2024.2.1,Linux aarch64,30.06253006,66fa4ebf79326e780c390304,,,,,,,,,,,,,,,,,,,,,563.524,563.5241,563.5303,564.5878,1,0,right,0.4816,,564.5926,564.5981,,1,,564.602,564.6059,,1,,1,564.6062,564.6063,564.61,566.0745,0,16,16,16,1,0.6,0.4,0.4,0.6,1,0,,,,,,,,,,,,,,,,,,,,,,,,,,,,,,,,,,,,
,,66c856fd76895ebe2db7c327,66fc9875c4b9a29d76467140,2024-10-02_03h21.34.849,mdp,2024.2.1,Linux aarch64,30.06253006,66fa4ebf79326e780c390304,,,,,,,,,,,,,,,,,,,,,566.0761,566.0762,566.085,567.0912,0,0,left,0.4646,,567.0953,567.1,,1,,567.1047,567.1111,,0,,1,567.1114,567.1114,567.1152,568.5872,0,17,17,17,1,0.6,0.4,0.4,0.6,1,0,,,,,,,,,,,,,,,,,,,,,,,,,,,,,,,,,,,,
,,66c856fd76895ebe2db7c327,66fc9875c4b9a29d76467140,2024-10-02_03h21.34.849,mdp,2024.2.1,Linux aarch64,30.06253006,66fa4ebf79326e780c390304,,,,,,,,,,,,,,,,,,,,,568.5888,568.5889,568.5942,569.6863,1,1,right,0.5465,,569.691,569.6956,,0,,569.7008,569.7069,,0,,0,569.7073,569.7074,569.713,571.1958,0,18,18,18,1,0.6,0.4,0.4,0.6,1,0,,,,,,,,,,,,,,,,,,,,,,,,,,,,,,,,,,,,
,,66c856fd76895ebe2db7c327,66fc9875c4b9a29d76467140,2024-10-02_03h21.34.849,mdp,2024.2.1,Linux aarch64,30.06253006,66fa4ebf79326e780c390304,,,,,,,,,,,,,,,,,,,,,571.1979,571.1981,571.2041,572.0101,0,0,left,0.2665,,572.0152,572.021,,1,,572.0255,572.0303,,0,,1,572.0305,572.0305,572.0351,573.5336,0,19,19,19,1,0.6,0.4,0.4,0.6,1,0,,,,,,,,,,,,,,,,,,,,,,,,,,,,,,,,,,,,
,,66c856fd76895ebe2db7c327,66fc9875c4b9a29d76467140,2024-10-02_03h21.34.849,mdp,2024.2.1,Linux aarch64,30.06253006,66fa4ebf79326e780c390304,,,,,,,,,,,,,,,,,,,,,573.5365,573.5367,573.5444,574.1231,0,1,left,0.0023,,574.1286,574.1337,,1,,574.1391,574.1442,,0,,0,574.1445,574.1446,574.1502,575.6329,0,20,20,20,1,0.2,0.8,0.8,0.2,1,0,,,,,,,,,,,,,,,,,,,,,,,,,,,,,,,,,,,,
,,66c856fd76895ebe2db7c327,66fc9875c4b9a29d76467140,2024-10-02_03h21.34.849,mdp,2024.2.1,Linux aarch64,30.06253006,66fa4ebf79326e780c390304,,,,,,,,,,,,,,,,,,,,,575.6349,575.6351,575.6416,576.752,0,0,left,0.5363,,576.7583,576.7636,,1,,576.7684,576.7737,,1,,1,576.7739,576.7739,576.7764,578.2631,0,21,21,21,1,0.2,0.8,0.8,0.2,1,0,,,,,,,,,,,,,,,,,,,,,,,,,,,,,,,,,,,,
,,66c856fd76895ebe2db7c327,66fc9875c4b9a29d76467140,2024-10-02_03h21.34.849,mdp,2024.2.1,Linux aarch64,30.06253006,66fa4ebf79326e780c390304,,,,,,,,,,,,,,,,,,,,,578.265,578.2651,578.272,580.5297,0,1,left,1.6802,0.0008,580.5339,580.539,,1,,580.5434,580.5479,,1,,0,580.5482,580.5482,580.5559,582.0524,0,22,22,22,1,0.2,0.8,0.8,0.2,1,0,,,,,,,,,,,,,,,,,,,,,,,,,,,,,,,,,,,,
,,66c856fd76895ebe2db7c327,66fc9875c4b9a29d76467140,2024-10-02_03h21.34.849,mdp,2024.2.1,Linux aarch64,30.06253006,66fa4ebf79326e780c390304,,,,,,,,,,,,,,,,,,,,,582.0542,582.0543,582.0654,584.1094,0,1,left,1.4768,0.0009,584.114,584.1193,,1,,584.1244,584.1276,,1,,0,584.1277,584.1278,584.1304,585.5915,0,23,23,23,1,0.2,0.8,0.8,0.2,1,0,,,,,,,,,,,,,,,,,,,,,,,,,,,,,,,,,,,,
,,66c856fd76895ebe2db7c327,66fc9875c4b9a29d76467140,2024-10-02_03h21.34.849,mdp,2024.2.1,Linux aarch64,30.06253006,66fa4ebf79326e780c390304,,,,,,,,,,,,,,,,,,,,,585.5928,585.5929,585.5968,587.3428,0,1,left,1.1907,0.0013,587.3477,587.3528,,0,,587.3573,587.3623,,1,,0,587.3625,587.3626,587.3669,588.878,0,24,24,24,1,0.2,0.8,0.8,0.2,1,0,,,,,,,,,,,,,,,,,,,,,,,,,,,,,,,,,,,,
,,66c856fd76895ebe2db7c327,66fc9875c4b9a29d76467140,2024-10-02_03h21.34.849,mdp,2024.2.1,Linux aarch64,30.06253006,66fa4ebf79326e780c390304,,,,,,,,,,,,,,,,,,,,,588.8794,588.8795,588.8839,589.6476,0,1,left,0.2065,,589.6516,589.6611,,0,,589.6648,589.6685,,0,,0,589.6688,589.6689,589.6724,591.1868,0,25,25,25,1,0.4,0.6,0.6,0.4,1,0,,,,,,,,,,,,,,,,,,,,,,,,,,,,,,,,,,,,
,,66c856fd76895ebe2db7c327,66fc9875c4b9a29d76467140,2024-10-02_03h21.34.849,mdp,2024.2.1,Linux aarch64,30.06253006,66fa4ebf79326e780c390304,,,,,,,,,,,,,,,,,,,,,591.1886,591.1888,591.1932,592.1874,1,0,right,0.4451,,592.1917,592.1962,,0,,592.2007,592.2073,,1,,1,592.2075,592.2076,592.2111,593.6753,0,26,26,26,1,0.4,0.6,0.6,0.4,1,0,,,,,,,,,,,,,,,,,,,,,,,,,,,,,,,,,,,,
,,66c856fd76895ebe2db7c327,66fc9875c4b9a29d76467140,2024-10-02_03h21.34.849,mdp,2024.2.1,Linux aarch64,30.06253006,66fa4ebf79326e780c390304,,,,,,,,,,,,,,,,,,,,,593.6769,593.677,593.6817,594.3709,1,1,right,0.1356,0.0011,594.3751,594.38,,1,,594.3853,594.3889,,0,,0,594.3891,594.3892,594.3924,595.8575,0,27,27,27,1,0.6,0.4,0.4,0.6,1,0,,,,,,,,,,,,,,,,,,,,,,,,,,,,,,,,,,,,
,,66c856fd76895ebe2db7c327,66fc9875c4b9a29d76467140,2024-10-02_03h21.34.849,mdp,2024.2.1,Linux aarch64,30.06253006,66fa4ebf79326e780c390304,,,,,,,,,,,,,,,,,,,,,595.8582,595.8582,595.8605,596.8926,1,0,right,0.4558,0.0009,596.8979,596.9031,,0,,596.9082,596.9139,,0,,1,596.9141,596.9141,596.9167,598.4334,0,28,28,28,1,0.4,0.6,0.6,0.4,1,0,,,,,,,,,,,,,,,,,,,,,,,,,,,,,,,,,,,,
,,66c856fd76895ebe2db7c327,66fc9875c4b9a29d76467140,2024-10-02_03h21.34.849,mdp,2024.2.1,Linux aarch64,30.06253006,66fa4ebf79326e780c390304,,,,,,,,,,,,,,,,,,,,,598.4348,598.435,598.4398,599.6984,1,0,right,0.6755,,599.7039,599.712,,0,,599.7157,599.7192,,0,,1,599.7194,599.7194,599.7222,601.2059,0,29,29,29,1,0.4,0.6,0.6,0.4,1,0,,,,,,,,,,,,,,,,,,,,,,,,,,,,,,,,,,,,
,,66c856fd76895ebe2db7c327,66fc9875c4b9a29d76467140,2024-10-02_03h21.34.849,mdp,2024.2.1,Linux aarch64,30.06253006,66fa4ebf79326e780c390304,,,,,,,,,,,,,,,,,,,,,601.2067,601.2067,601.2095,603.6074,1,0,right,1.8481,,603.6121,603.6175,,0,,603.6262,603.635,,0,,1,603.6352,603.6353,603.6377,605.1226,0,30,30,30,1,0.4,0.6,0.6,0.4,1,0,,,,,,,,,,,,,,,,,,,,,,,,,,,,,,,,,,,,
,,66c856fd76895ebe2db7c327,66fc9875c4b9a29d76467140,2024-10-02_03h21.34.849,mdp,2024.2.1,Linux aarch64,30.06253006,66fa4ebf79326e780c390304,,,,,,,,,,,,,,,,,,,,,605.1246,605.1247,605.1313,609.4701,0,0,left,3.7979,,609.5008,609.5044,,1,,609.5067,609.5093,,0,,1,609.5094,609.5094,609.5117,611.0075,0,31,31,31,1,0.4,0.6,0.6,0.4,1,0,,,,,,,,,,,,,,,,,,,,,,,,,,,,,,,,,,,,
,,66c856fd76895ebe2db7c327,66fc9875c4b9a29d76467140,2024-10-02_03h21.34.849,mdp,2024.2.1,Linux aarch64,30.06253006,66fa4ebf79326e780c390304,,,,,,,,,,,,,,,,,,,,,611.0103,611.0105,611.0172,611.9193,0,1,left,0.328,,611.9241,611.9339,,0,,611.9365,611.939,,0,,0,611.9392,611.9392,611.9414,613.4404,0,32,32,32,1,0.4,0.6,0.6,0.4,1,0,,,,,,,,,,,,,,,,,,,,,,,,,,,,,,,,,,,,
,,66c856fd76895ebe2db7c327,66fc9875c4b9a29d76467140,2024-10-02_03h21.34.849,mdp,2024.2.1,Linux aarch64,30.06253006,66fa4ebf79326e780c390304,,,,,,,,,,,,,,,,,,,,,613.4424,613.4426,613.4493,614.0271,0,0,left,0.0022,,614.0313,614.0358,,1,,614.0403,614.0457,,1,,1,614.0461,614.0462,614.0514,615.5332,0,33,33,33,1,0.4,0.6,0.6,0.4,1,0,,,,,,,,,,,,,,,,,,,,,,,,,,,,,,,,,,,,
,,66c856fd76895ebe2db7c327,66fc9875c4b9a29d76467140,2024-10-02_03h21.34.849,mdp,2024.2.1,Linux aarch64,30.06253006,66fa4ebf79326e780c390304,,,,,,,,,,,,,,,,,,,,,615.5362,615.5366,615.5423,616.3568,1,0,right,0.2416,,616.3609,616.3654,,0,,616.3718,616.3754,,0,,1,616.3755,616.3755,616.3779,617.8572,0,34,34,34,1,0.4,0.6,0.6,0.4,1,0,,,,,,,,,,,,,,,,,,,,,,,,,,,,,,,,,,,,
,,66c856fd76895ebe2db7c327,66fc9875c4b9a29d76467140,2024-10-02_03h21.34.849,mdp,2024.2.1,Linux aarch64,30.06253006,66fa4ebf79326e780c390304,,,,,,,,,,,,,,,,,,,,,617.8589,617.859,617.8649,618.6415,1,0,right,0.226,,618.646,618.6526,,0,,618.6576,618.6626,,1,,1,618.6628,618.6628,618.6674,620.1423,0,35,35,35,1,0.4,0.6,0.6,0.4,1,0,,,,,,,,,,,,,,,,,,,,,,,,,,,,,,,,,,,,
,,66c856fd76895ebe2db7c327,66fc9875c4b9a29d76467140,2024-10-02_03h21.34.849,mdp,2024.2.1,Linux aarch64,30.06253006,66fa4ebf79326e780c390304,,,,,,,,,,,,,,,,,,,,,620.1445,620.1447,620.1499,620.8712,1,0,right,0.1767,,620.8755,620.8813,,0,,620.8862,620.8917,,1,,1,620.892,620.892,620.8962,622.3946,0,36,36,36,1,0.4,0.6,0.6,0.4,1,0,,,,,,,,,,,,,,,,,,,,,,,,,,,,,,,,,,,,
,,66c856fd76895ebe2db7c327,66fc9875c4b9a29d76467140,2024-10-02_03h21.34.849,mdp,2024.2.1,Linux aarch64,30.06253006,66fa4ebf79326e780c390304,,,,,,,,,,,,,,,,,,,,,622.3961,622.3962,622.4012,624.0346,1,0,right,1.0835,0.0009,624.0405,624.0453,,1,,624.0502,624.0541,,0,,1,624.0542,624.0542,624.0565,625.539,0,37,37,37,1,0.4,0.6,0.6,0.4,1,0,,,,,,,,,,,,,,,,,,,,,,,,,,,,,,,,,,,,
,,66c856fd76895ebe2db7c327,66fc9875c4b9a29d76467140,2024-10-02_03h21.34.849,mdp,2024.2.1,Linux aarch64,30.06253006,66fa4ebf79326e780c390304,,,,,,,,,,,,,,,,,,,,,625.5459,625.546,625.5521,626.4418,0,0,left,0.3384,,626.4461,626.4529,,1,,626.4575,626.4623,,1,,1,626.4626,626.4627,626.4676,627.9402,0,38,38,38,1,0.4,0.6,0.6,0.4,1,0,,,,,,,,,,,,,,,,,,,,,,,,,,,,,,,,,,,,
,,66c856fd76895ebe2db7c327,66fc9875c4b9a29d76467140,2024-10-02_03h21.34.849,mdp,2024.2.1,Linux aarch64,30.06253006,66fa4ebf79326e780c390304,,,,,,,,,,,,,,,,,,,,,627.942,627.9421,627.9482,629.0257,0,1,left,0.4929,,629.0317,629.0373,,1,,629.0421,629.0465,,0,,0,629.0467,629.0469,629.051,630.5287,0,39,39,39,1,0.4,0.6,0.6,0.4,1,0,,,,,,,,,,,,,,,,,,,,,,,,,,,,,,,,,,,,
,,66c856fd76895ebe2db7c327,66fc9875c4b9a29d76467140,2024-10-02_03h21.34.849,mdp,2024.2.1,Linux aarch64,30.06253006,66fa4ebf79326e780c390304,,,,,,,,,,,,,,,,,,,,,630.5305,630.5305,630.5362,631.5657,0,0,left,0.4535,,631.5707,631.576,,0,,631.581,631.5863,,0,,1,631.5867,631.5867,631.5911,633.0691,0,40,40,40,1,0.4,0.6,0.6,0.4,1,0,,,,,,,,,,,,,,,,,,,,,,,,,,,,,,,,,,,,
,,66c856fd76895ebe2db7c327,66fc9875c4b9a29d76467140,2024-10-02_03h21.34.849,mdp,2024.2.1,Linux aarch64,30.06253006,66fa4ebf79326e780c390304,,,,,,,,,,,,,,,,,,,,,633.0708,633.071,633.0765,634.2624,0,1,left,0.6429,,634.2682,634.2761,,1,,634.2828,634.2896,,1,,0,634.29,634.2902,634.2972,635.7877,0,41,41,41,1,0.4,0.6,0.6,0.4,1,0,,,,,,,,,,,,,,,,,,,,,,,,,,,,,,,,,,,,
,,66c856fd76895ebe2db7c327,66fc9875c4b9a29d76467140,2024-10-02_03h21.34.849,mdp,2024.2.1,Linux aarch64,30.06253006,66fa4ebf79326e780c390304,,,,,,,,,,,,,,,,,,,,,635.7906,635.7908,635.7987,637.0433,0,1,left,0.668,,637.0475,637.0518,,1,,637.0563,637.0629,,1,,0,637.0631,637.0631,637.0666,638.5651,0,42,42,42,1,0.4,0.6,0.6,0.4,1,0,,,,,,,,,,,,,,,,,,,,,,,,,,,,,,,,,,,,
,,66c856fd76895ebe2db7c327,66fc9875c4b9a29d76467140,2024-10-02_03h21.34.849,mdp,2024.2.1,Linux aarch64,30.06253006,66fa4ebf79326e780c390304,,,,,,,,,,,,,,,,,,,,,638.5668,638.567,638.5729,640.0944,0,0,left,0.9429,,640.0985,640.1046,,0,,640.1096,640.1147,,0,,1,640.1148,640.1148,640.1172,641.614,0,43,43,43,1,0.4,0.6,0.6,0.4,1,0,,,,,,,,,,,,,,,,,,,,,,,,,,,,,,,,,,,,
,,66c856fd76895ebe2db7c327,66fc9875c4b9a29d76467140,2024-10-02_03h21.34.849,mdp,2024.2.1,Linux aarch64,30.06253006,66fa4ebf79326e780c390304,,,,,,,,,,,,,,,,,,,,,641.6165,641.6165,641.6221,642.9016,0,0,left,0.7141,,642.9059,642.9104,,1,,642.9155,642.9215,,1,,1,642.9218,642.9218,642.9269,644.391,0,44,44,44,1,0.4,0.6,0.6,0.4,1,0,,,,,,,,,,,,,,,,,,,,,,,,,,,,,,,,,,,,
,,66c856fd76895ebe2db7c327,66fc9875c4b9a29d76467140,2024-10-02_03h21.34.849,mdp,2024.2.1,Linux aarch64,30.06253006,66fa4ebf79326e780c390304,,,,,,,,,,,,,,,,,,,,,644.393,644.3932,644.3997,645.6343,0,0,left,0.6701,,645.6387,645.6455,,1,,645.6507,645.6551,,1,,1,645.6552,645.6553,645.6578,647.1498,0,45,45,45,1,0.4,0.6,0.6,0.4,1,0,,,,,,,,,,,,,,,,,,,,,,,,,,,,,,,,,,,,
,,66c856fd76895ebe2db7c327,66fc9875c4b9a29d76467140,2024-10-02_03h21.34.849,mdp,2024.2.1,Linux aarch64,30.06253006,66fa4ebf79326e780c390304,,,,,,,,,,,,,,,,,,,,,647.1516,647.1517,647.1579,649.3344,0,1,left,1.6374,,649.3393,649.3442,,0,,649.3486,649.3534,,1,,0,649.3536,649.3536,649.3561,650.8278,0,46,46,46,1,0.4,0.6,0.6,0.4,1,0,,,,,,,,,,,,,,,,,,,,,,,,,,,,,,,,,,,,
,,66c856fd76895ebe2db7c327,66fc9875c4b9a29d76467140,2024-10-02_03h21.34.849,mdp,2024.2.1,Linux aarch64,30.06253006,66fa4ebf79326e780c390304,,,,,,,,,,,,,,,,,,,,,650.8298,650.8299,650.8361,651.9437,1,1,right,0.5289,,651.9495,651.9548,,1,,651.9594,651.9639,,1,,0,651.9641,651.9642,651.9681,653.4291,0,47,47,47,1,0.4,0.6,0.6,0.4,1,0,,,,,,,,,,,,,,,,,,,,,,,,,,,,,,,,,,,,
,,66c856fd76895ebe2db7c327,66fc9875c4b9a29d76467140,2024-10-02_03h21.34.849,mdp,2024.2.1,Linux aarch64,30.06253006,66fa4ebf79326e780c390304,,,,,,,,,,,,,,,,,,,,,653.4317,653.4319,653.4384,654.2359,0,1,left,0.2421,,654.241,654.2459,,1,,654.2507,654.2552,,1,,0,654.2554,654.2554,654.2577,655.7513,0,48,48,48,1,0.4,0.6,0.6,0.4,1,0,,,,,,,,,,,,,,,,,,,,,,,,,,,,,,,,,,,,
,,66c856fd76895ebe2db7c327,66fc9875c4b9a29d76467140,2024-10-02_03h21.34.849,mdp,2024.2.1,Linux aarch64,30.06253006,66fa4ebf79326e780c390304,,,,,,,,,,,,,,,,,,,,,655.7534,655.7535,655.7602,657.9166,1,0,right,1.5853,,657.9207,657.9256,,1,,657.931,657.9382,,0,,1,657.9384,657.9384,657.9411,659.412,0,49,49,49,1,0.4,0.6,0.6,0.4,1,0,,,,,,,,,,,,,,,,,,,,,,,,,,,,,,,,,,,,
,,66c856fd76895ebe2db7c327,66fc9875c4b9a29d76467140,2024-10-02_03h21.34.849,mdp,2024.2.1,Linux aarch64,30.06253006,66fa4ebf79326e780c390304,,,,,,,,,,,,,,,,,,,,,,,,,,,,,,,,,,,,,,,,,,,,,,,,,,,,,,,,659.4147,717.9668,0,0,0,4,1,imgs/kangaroo.png,imgs/giraffe.png,imgs/pig.png,imgs/lion.png,imgs/cat.png,,,,,,,,,,,,,,,,,,,,,,,,
,,66c856fd76895ebe2db7c327,66fc9875c4b9a29d76467140,2024-10-02_03h21.34.849,mdp,2024.2.1,Linux aarch64,30.06253006,66fa4ebf79326e780c390304,,,,,,,,,,,,,,2,seqs/st2seq5.csv,718.0085,724.6381,space,6.0602,0.001,724.6747,724.6748,724.6781,727.5788,0,0,left,2.3516,0.001,727.5834,729.9628,0,0,left,729.9696,729.9768,,1,,1,729.9769,729.9769,729.9788,731.48,0,0,0,0,1,0.6,0.4,0.4,0.6,,,,,,,,,,,,,,,1.8108,0.0011,0.2,0.8,0.2,0.8,0.8,0.2,0.6,0.4,1,0,,,,,,,,,,,,
,,66c856fd76895ebe2db7c327,66fc9875c4b9a29d76467140,2024-10-02_03h21.34.849,mdp,2024.2.1,Linux aarch64,30.06253006,66fa4ebf79326e780c390304,,,,,,,,,,,,,,,,,,,,,731.4837,731.4841,731.4894,733.302,0,0,left,1.2426,0.0008,733.3063,734.8541,1,1,right,734.8606,734.8712,,1,,0,734.8718,734.8718,734.8762,736.3745,0,1,1,1,1,0.4,0.6,0.6,0.4,,,,,,,,,,,,,,,0.9458,,0.2,0.8,0.2,0.8,0.8,0.2,0.6,0.4,1,0,,,,,,,,,,,,
,,66c856fd76895ebe2db7c327,66fc9875c4b9a29d76467140,2024-10-02_03h21.34.849,mdp,2024.2.1,Linux aarch64,30.06253006,66fa4ebf79326e780c390304,,,,,,,,,,,,,,,,,,,,,736.3779,736.3781,736.3856,737.2721,0,0,left,0.3477,,737.2775,738.8343,0,0,left,738.8386,738.8438,,0,,1,738.8442,738.8442,738.85,740.3396,0,2,2,2,1,0.4,0.6,0.6,0.4,,,,,,,,,,,,,,,0.9849,,0.6,0.4,0.8,0.2,0.8,0.2,0.6,0.4,1,0,,,,,,,,,,,,
,,66c856fd76895ebe2db7c327,66fc9875c4b9a29d76467140,2024-10-02_03h21.34.849,mdp,2024.2.1,Linux aarch64,30.06253006,66fa4ebf79326e780c390304,,,,,,,,,,,,,,,,,,,,,740.3418,740.3419,740.3472,741.1219,0,0,left,0.1972,0.0011,741.1275,742.6867,0,1,left,742.6935,742.6988,,1,,0,742.6992,742.6993,742.7039,744.1719,0,3,3,3,1,0.4,0.6,0.6,0.4,,,,,,,,,,,,,,,1.0123,,0.6,0.4,0.8,0.2,0.8,0.2,0.6,0.4,1,0,,,,,,,,,,,,
,,66c856fd76895ebe2db7c327,66fc9875c4b9a29d76467140,2024-10-02_03h21.34.849,mdp,2024.2.1,Linux aarch64,30.06253006,66fa4ebf79326e780c390304,,,,,,,,,,,,,,,,,,,,,744.1754,744.1755,744.1809,746.1574,0,1,left,1.4072,0.0008,746.1614,748.1303,1,0,right,748.1347,748.1395,,0,,1,748.14,748.14,748.1453,749.6593,0,4,4,4,1,0.4,0.6,0.6,0.4,,,,,,,,,,,,,,,1.3842,0.0008,0.6,0.4,0.8,0.2,0.8,0.2,0.6,0.4,1,0,,,,,,,,,,,,
,,66c856fd76895ebe2db7c327,66fc9875c4b9a29d76467140,2024-10-02_03h21.34.849,mdp,2024.2.1,Linux aarch64,30.06253006,66fa4ebf79326e780c390304,,,,,,,,,,,,,,,,,,,,,749.6614,749.6614,749.6662,750.4065,0,1,left,0.1926,,750.4137,752.1097,1,0,right,752.1142,752.119,,0,,1,752.1194,752.1194,752.124,753.6027,0,5,5,5,1,0.4,0.6,0.6,0.4,,,,,,,,,,,,,,,1.1493,,0.6,0.4,0.8,0.2,0.8,0.2,0.6,0.4,1,0,,,,,,,,,,,,
,,66c856fd76895ebe2db7c327,66fc9875c4b9a29d76467140,2024-10-02_03h21.34.849,mdp,2024.2.1,Linux aarch64,30.06253006,66fa4ebf79326e780c390304,,,,,,,,,,,,,,,,,,,,,753.605,753.6052,753.6103,755.5437,0,1,left,1.3542,,755.5517,759.9415,0,0,left,759.9632,759.9658,,0,,1,759.9659,759.9659,759.9682,761.4499,0,6,6,6,1,0.4,0.6,0.6,0.4,,,,,,,,,,,,,,,3.8302,0.0008,0.4,0.6,0.6,0.4,0.8,0.2,0.6,0.4,1,0,,,,,,,,,,,,
,,66c856fd76895ebe2db7c327,66fc9875c4b9a29d76467140,2024-10-02_03h21.34.849,mdp,2024.2.1,Linux aarch64,30.06253006,66fa4ebf79326e780c390304,,,,,,,,,,,,,,,,,,,,,761.4517,761.4518,761.4567,764.4949,0,1,left,2.4912,0.001,764.499,766.1636,0,1,left,766.1678,766.1723,,0,,0,766.1728,766.1729,766.178,767.6878,0,7,7,7,1,0.4,0.6,0.6,0.4,,,,,,,,,,,,,,,1.0945,0.001,0.4,0.6,0.6,0.4,0.8,0.2,0.6,0.4,1,0,,,,,,,,,,,,
,,66c856fd76895ebe2db7c327,66fc9875c4b9a29d76467140,2024-10-02_03h21.34.849,mdp,2024.2.1,Linux aarch64,30.06253006,66fa4ebf79326e780c390304,,,,,,,,,,,,,,,,,,,,,767.6892,767.6894,767.6931,769.2789,1,0,right,1.0167,,769.2832,771.1201,1,0,right,771.1241,771.1289,,0,,1,771.1293,771.1294,771.1376,772.6429,0,8,8,8,1,0.4,0.6,0.6,0.4,,,,,,,,,,,,,,,1.25,0.0009,0.4,0.6,0.6,0.4,0.8,0.2,0.6,0.4,1,0,,,,,,,,,,,,
,,66c856fd76895ebe2db7c327,66fc9875c4b9a29d76467140,2024-10-02_03h21.34.849,mdp,2024.2.1,Linux aarch64,30.06253006,66fa4ebf79326e780c390304,,,,,,,,,,,,,,,,,,,,,772.6454,772.6457,772.6505,773.5957,1,0,right,0.363,,773.5997,775.5841,0,1,left,775.5888,775.5937,,1,,0,775.5941,775.5942,775.5985,777.0776,0,9,9,9,1,0.4,0.6,0.6,0.4,,,,,,,,,,,,,,,1.4387,,0.4,0.6,0.6,0.4,0.8,0.2,0.6,0.4,1,0,,,,,,,,,,,,
,,66c856fd76895ebe2db7c327,66fc9875c4b9a29d76467140,2024-10-02_03h21.34.849,mdp,2024.2.1,Linux aarch64,30.06253006,66fa4ebf79326e780c390304,,,,,,,,,,,,,,,,,,,,,777.0797,777.0798,777.085,778.6637,1,0,right,0.9976,,778.6694,780.5261,1,0,right,780.5325,780.5377,,1,,1,780.5381,780.5381,780.5423,782.0155,0,10,10,10,1,0.4,0.6,0.6,0.4,,,,,,,,,,,,,,,1.3044,,0.4,0.6,0.6,0.4,0.8,0.2,0.6,0.4,1,0,,,,,,,,,,,,
,,66c856fd76895ebe2db7c327,66fc9875c4b9a29d76467140,2024-10-02_03h21.34.849,mdp,2024.2.1,Linux aarch64,30.06253006,66fa4ebf79326e780c390304,,,,,,,,,,,,,,,,,,,,,782.0178,782.0179,782.0232,784.9056,1,0,right,2.3367,0.0009,784.9104,786.6649,1,0,right,786.6684,786.672,,1,,1,786.6723,786.6724,786.676,788.1411,0,11,11,11,1,0.4,0.6,0.6,0.4,,,,,,,,,,,,,,,1.1819,,0.4,0.6,0.6,0.4,0.8,0.2,0.6,0.4,1,0,,,,,,,,,,,,
,,66c856fd76895ebe2db7c327,66fc9875c4b9a29d76467140,2024-10-02_03h21.34.849,mdp,2024.2.1,Linux aarch64,30.06253006,66fa4ebf79326e780c390304,,,,,,,,,,,,,,,,,,,,,788.1431,788.1432,788.1492,791.7508,1,0,right,3.0276,,791.7781,793.4527,1,1,right,793.4568,793.4609,,0,,0,793.4612,793.4613,793.4655,794.9445,0,12,12,12,1,0.4,0.6,0.6,0.4,,,,,,,,,,,,,,,1.1278,0.001,0.4,0.6,0.6,0.4,0.8,0.2,0.6,0.4,1,0,,,,,,,,,,,,
,,66c856fd76895ebe2db7c327,66fc9875c4b9a29d76467140,2024-10-02_03h21.34.849,mdp,2024.2.1,Linux aarch64,30.06253006,66fa4ebf79326e780c390304,,,,,,,,,,,,,,,,,,,,,794.9466,794.9467,794.9525,796.82,1,1,right,1.2877,,796.8245,798.2391,0,0,left,798.2456,798.2503,,0,,1,798.2505,798.2505,798.2553,799.7402,0,13,13,13,1,0.4,0.6,0.6,0.4,,,,,,,,,,,,,,,0.8388,,0.4,0.6,0.6,0.4,0.8,0.2,0.6,0.4,1,0,,,,,,,,,,,,
,,66c856fd76895ebe2db7c327,66fc9875c4b9a29d76467140,2024-10-02_03h21.34.849,mdp,2024.2.1,Linux aarch64,30.06253006,66fa4ebf79326e780c390304,,,,,,,,,,,,,,,,,,,,,799.7433,799.7434,799.751,801.0585,1,0,right,0.7556,,801.0627,805.5025,1,0,right,805.5312,805.5363,,0,,1,805.5366,805.5367,805.5402,807.0339,0,14,14,14,1,0.4,0.6,0.6,0.4,,,,,,,,,,,,,,,3.8653,,0.4,0.6,0.6,0.4,0.8,0.2,0.6,0.4,1,0,,,,,,,,,,,,
,,66c856fd76895ebe2db7c327,66fc9875c4b9a29d76467140,2024-10-02_03h21.34.849,mdp,2024.2.1,Linux aarch64,30.06253006,66fa4ebf79326e780c390304,,,,,,,,,,,,,,,,,,,,,807.0361,807.0363,807.0423,811.032,1,1,right,3.4053,,811.0579,812.4288,0,0,left,812.433,812.4382,,0,,1,812.4385,812.4385,812.4427,813.9466,0,15,15,15,1,0.4,0.6,0.6,0.4,,,,,,,,,,,,,,,0.8434,,0.4,0.6,0.6,0.4,0.8,0.2,0.6,0.4,1,0,,,,,,,,,,,,
,,66c856fd76895ebe2db7c327,66fc9875c4b9a29d76467140,2024-10-02_03h21.34.849,mdp,2024.2.1,Linux aarch64,30.06253006,66fa4ebf79326e780c390304,,,,,,,,,,,,,,,,,,,,,813.9484,813.9486,813.9532,814.8561,1,0,right,0.359,0.0011,814.8622,816.2777,1,1,right,816.2818,816.2881,,1,,0,816.2885,816.2886,816.294,817.7999,0,16,16,16,1,0.2,0.8,0.8,0.2,,,,,,,,,,,,,,,0.8558,0.0008,0.4,0.6,0.6,0.4,0.8,0.2,0.6,0.4,1,0,,,,,,,,,,,,
,,66c856fd76895ebe2db7c327,66fc9875c4b9a29d76467140,2024-10-02_03h21.34.849,mdp,2024.2.1,Linux aarch64,30.06253006,66fa4ebf79326e780c390304,,,,,,,,,,,,,,,,,,,,,817.803,817.8032,817.8112,819.16,0,1,left,0.7942,0.0012,819.1652,820.6145,0,1,left,820.6187,820.6229,,0,,0,820.6233,820.6235,820.6287,822.1406,0,17,17,17,1,0.2,0.8,0.8,0.2,,,,,,,,,,,,,,,0.8816,0.0009,0.2,0.8,0.2,0.8,0.8,0.2,0.6,0.4,1,0,,,,,,,,,,,,
,,66c856fd76895ebe2db7c327,66fc9875c4b9a29d76467140,2024-10-02_03h21.34.849,mdp,2024.2.1,Linux aarch64,30.06253006,66fa4ebf79326e780c390304,,,,,,,,,,,,,,,,,,,,,822.143,822.1431,822.1486,824.2797,1,1,right,1.5584,,824.2848,825.7117,1,0,right,825.7161,825.7226,,1,,1,825.7231,825.7231,825.7304,827.2321,0,18,18,18,1,0.2,0.8,0.8,0.2,,,,,,,,,,,,,,,0.8646,,0.2,0.8,0.2,0.8,0.8,0.2,0.6,0.4,1,0,,,,,,,,,,,,
,,66c856fd76895ebe2db7c327,66fc9875c4b9a29d76467140,2024-10-02_03h21.34.849,mdp,2024.2.1,Linux aarch64,30.06253006,66fa4ebf79326e780c390304,,,,,,,,,,,,,,,,,,,,,827.2343,827.2344,827.2398,828.9031,1,1,right,1.1219,,828.9081,830.5042,1,0,right,830.5095,830.5143,,1,,1,830.5147,830.5148,830.5193,832.0077,0,19,19,19,1,0.2,0.8,0.8,0.2,,,,,,,,,,,,,,,1.0328,0.0009,0.2,0.8,0.2,0.8,0.8,0.2,0.6,0.4,1,0,,,,,,,,,,,,
,,66c856fd76895ebe2db7c327,66fc9875c4b9a29d76467140,2024-10-02_03h21.34.849,mdp,2024.2.1,Linux aarch64,30.06253006,66fa4ebf79326e780c390304,,,,,,,,,,,,,,,,,,,,,832.0096,832.0097,832.0147,834.5856,0,1,left,2.0252,,834.5911,836.4305,0,0,left,836.4399,836.4464,,1,,1,836.4467,836.4467,836.4499,837.9502,0,20,20,20,1,0.2,0.8,0.8,0.2,,,,,,,,,,,,,,,1.279,,0.2,0.8,0.2,0.8,0.8,0.2,0.6,0.4,1,0,,,,,,,,,,,,
,,66c856fd76895ebe2db7c327,66fc9875c4b9a29d76467140,2024-10-02_03h21.34.849,mdp,2024.2.1,Linux aarch64,30.06253006,66fa4ebf79326e780c390304,,,,,,,,,,,,,,,,,,,,,837.9521,837.9522,837.9573,839.102,0,1,left,0.5592,,839.1067,840.6253,0,0,left,840.6294,840.6339,,0,,1,840.6343,840.6344,840.6389,842.1228,0,21,21,21,1,0.2,0.8,0.8,0.2,,,,,,,,,,,,,,,0.977,0.0009,0.2,0.8,0.2,0.8,0.8,0.2,0.6,0.4,1,0,,,,,,,,,,,,
,,66c856fd76895ebe2db7c327,66fc9875c4b9a29d76467140,2024-10-02_03h21.34.849,mdp,2024.2.1,Linux aarch64,30.06253006,66fa4ebf79326e780c390304,,,,,,,,,,,,,,,,,,,,,842.125,842.125,842.1298,843.7806,0,1,left,1.108,,843.7868,845.3502,0,0,left,845.3549,845.3602,,1,,1,845.3605,845.3605,845.3637,846.8793,0,22,22,22,1,0.2,0.8,0.8,0.2,,,,,,,,,,,,,,,1.0128,,0.2,0.8,0.2,0.8,0.8,0.2,0.6,0.4,1,0,,,,,,,,,,,,
,,66c856fd76895ebe2db7c327,66fc9875c4b9a29d76467140,2024-10-02_03h21.34.849,mdp,2024.2.1,Linux aarch64,30.06253006,66fa4ebf79326e780c390304,,,,,,,,,,,,,,,,,,,,,846.8811,846.8811,846.8862,848.7282,0,1,left,1.2689,,848.732,850.3494,0,0,left,850.3538,850.3586,,0,,1,850.3588,850.3588,850.3629,851.8592,0,23,23,23,1,0.2,0.8,0.8,0.2,,,,,,,,,,,,,,,1.0273,,0.2,0.8,0.2,0.8,0.8,0.2,0.6,0.4,1,0,,,,,,,,,,,,
,,66c856fd76895ebe2db7c327,66fc9875c4b9a29d76467140,2024-10-02_03h21.34.849,mdp,2024.2.1,Linux aarch64,30.06253006,66fa4ebf79326e780c390304,,,,,,,,,,,,,,,,,,,,,851.8614,851.8615,851.8672,853.3596,1,0,right,0.9451,,853.3637,854.6629,1,1,right,854.667,854.6716,,1,,0,854.672,854.6721,854.677,856.1548,0,24,24,24,1,0.2,0.8,0.8,0.2,,,,,,,,,,,,,,,0.7499,,0.2,0.8,0.2,0.8,0.8,0.2,0.6,0.4,1,0,,,,,,,,,,,,
,,66c856fd76895ebe2db7c327,66fc9875c4b9a29d76467140,2024-10-02_03h21.34.849,mdp,2024.2.1,Linux aarch64,30.06253006,66fa4ebf79326e780c390304,,,,,,,,,,,,,,,,,,,,,856.1564,856.1565,856.1606,856.8006,0,0,left,0.1087,,856.8053,858.3527,0,1,left,858.3592,858.3651,,0,,0,858.3654,858.3655,858.3701,859.8666,0,25,25,25,1,0.2,0.8,0.8,0.2,,,,,,,,,,,,,,,1.0001,,0.2,0.8,0.2,0.8,0.8,0.2,0.6,0.4,1,0,,,,,,,,,,,,
,,66c856fd76895ebe2db7c327,66fc9875c4b9a29d76467140,2024-10-02_03h21.34.849,mdp,2024.2.1,Linux aarch64,30.06253006,66fa4ebf79326e780c390304,,,,,,,,,,,,,,,,,,,,,859.8697,859.8699,859.875,861.3478,0,1,left,0.9466,0.0007,861.352,862.6971,1,1,right,862.7017,862.7067,,1,,0,862.7074,862.7075,862.7142,864.1728,0,26,26,26,1,0.2,0.8,0.8,0.2,,,,,,,,,,,,,,,0.7875,,0.2,0.8,0.2,0.8,0.8,0.2,0.6,0.4,1,0,,,,,,,,,,,,
,,66c856fd76895ebe2db7c327,66fc9875c4b9a29d76467140,2024-10-02_03h21.34.849,mdp,2024.2.1,Linux aarch64,30.06253006,66fa4ebf79326e780c390304,,,,,,,,,,,,,,,,,,,,,864.1747,864.1747,864.1794,865.7058,0,0,left,0.9505,,865.7111,867.3817,1,1,right,867.3873,867.3921,,1,,0,867.3928,867.3928,867.3968,868.8625,0,27,27,27,1,0.2,0.8,0.8,0.2,,,,,,,,,,,,,,,1.1102,,0.2,0.8,0.2,0.8,0.8,0.2,0.6,0.4,1,0,,,,,,,,,,,,
,,66c856fd76895ebe2db7c327,66fc9875c4b9a29d76467140,2024-10-02_03h21.34.849,mdp,2024.2.1,Linux aarch64,30.06253006,66fa4ebf79326e780c390304,,,,,,,,,,,,,,,,,,,,,868.8642,868.8644,868.8687,870.0425,0,1,left,0.6266,0.001,870.0466,871.5371,0,0,left,871.5425,871.5478,,1,,1,871.5481,871.5481,871.5522,873.0147,0,28,28,28,1,0.2,0.8,0.8,0.2,,,,,,,,,,,,,,,0.9321,,0.2,0.8,0.2,0.8,0.8,0.2,0.6,0.4,1,0,,,,,,,,,,,,
,,66c856fd76895ebe2db7c327,66fc9875c4b9a29d76467140,2024-10-02_03h21.34.849,mdp,2024.2.1,Linux aarch64,30.06253006,66fa4ebf79326e780c390304,,,,,,,,,,,,,,,,,,,,,873.0165,873.0166,873.0219,875.0832,0,1,left,1.5029,0.0015,875.0874,876.4459,0,0,left,876.4524,876.4575,,0,,1,876.4581,876.4582,876.4637,877.9533,0,29,29,29,1,0.2,0.8,0.8,0.2,,,,,,,,,,,,,,,0.7854,0.0009,0.8,0.2,0.8,0.2,0.8,0.2,0.6,0.4,1,0,,,,,,,,,,,,
,,66c856fd76895ebe2db7c327,66fc9875c4b9a29d76467140,2024-10-02_03h21.34.849,mdp,2024.2.1,Linux aarch64,30.06253006,66fa4ebf79326e780c390304,,,,,,,,,,,,,,,,,,,,,877.9551,877.9552,877.9606,879.3028,0,1,left,0.7883,,879.3079,881.5196,0,0,left,881.5239,881.5293,,0,,1,881.5296,881.5297,881.535,883.0247,0,30,30,30,1,0.2,0.8,0.8,0.2,,,,,,,,,,,,,,,1.6434,,0.8,0.2,0.8,0.2,0.8,0.2,0.6,0.4,1,0,,,,,,,,,,,,
,,66c856fd76895ebe2db7c327,66fc9875c4b9a29d76467140,2024-10-02_03h21.34.849,mdp,2024.2.1,Linux aarch64,30.06253006,66fa4ebf79326e780c390304,,,,,,,,,,,,,,,,,,,,,883.0263,883.0265,883.0319,884.2101,0,1,left,0.6369,,884.2161,885.2863,0,0,left,885.2905,885.2965,,0,,1,885.2968,885.2969,885.3012,886.77,0,31,31,31,1,0.2,0.8,0.8,0.2,,,,,,,,,,,,,,,0.5197,,0.8,0.2,0.8,0.2,0.8,0.2,0.6,0.4,1,0,,,,,,,,,,,,
,,66c856fd76895ebe2db7c327,66fc9875c4b9a29d76467140,2024-10-02_03h21.34.849,mdp,2024.2.1,Linux aarch64,30.06253006,66fa4ebf79326e780c390304,,,,,,,,,,,,,,,,,,,,,886.7721,886.7723,886.7777,887.9256,0,1,left,0.5671,,887.9302,889.0702,0,0,left,889.0746,889.079,,0,,1,889.0793,889.0793,889.0834,890.5701,0,32,32,32,1,0.2,0.8,0.8,0.2,,,,,,,,,,,,,,,0.5887,0.001,0.8,0.2,0.8,0.2,0.8,0.2,0.6,0.4,1,0,,,,,,,,,,,,
,,66c856fd76895ebe2db7c327,66fc9875c4b9a29d76467140,2024-10-02_03h21.34.849,mdp,2024.2.1,Linux aarch64,30.06253006,66fa4ebf79326e780c390304,,,,,,,,,,,,,,,,,,,,,890.5717,890.5717,890.5757,891.166,0,1,left,0.0021,,891.17,892.4195,0,0,left,892.4237,892.4308,,0,,1,892.4311,892.4313,892.4361,893.9372,0,33,33,33,1,0.2,0.8,0.8,0.2,,,,,,,,,,,,,,,0.675,,0.8,0.2,0.8,0.2,0.8,0.2,0.6,0.4,1,0,,,,,,,,,,,,
,,66c856fd76895ebe2db7c327,66fc9875c4b9a29d76467140,2024-10-02_03h21.34.849,mdp,2024.2.1,Linux aarch64,30.06253006,66fa4ebf79326e780c390304,,,,,,,,,,,,,,,,,,,,,893.9394,893.9394,893.9454,896.0153,0,0,left,1.4912,,896.0218,897.0845,0,1,left,897.0903,897.0949,,0,,0,897.0951,897.0952,897.0992,898.5818,0,34,34,34,1,0.2,0.8,0.8,0.2,,,,,,,,,,,,,,,0.4989,,0.8,0.2,0.8,0.2,0.8,0.2,0.6,0.4,1,0,,,,,,,,,,,,
,,66c856fd76895ebe2db7c327,66fc9875c4b9a29d76467140,2024-10-02_03h21.34.849,mdp,2024.2.1,Linux aarch64,30.06253006,66fa4ebf79326e780c390304,,,,,,,,,,,,,,,,,,,,,898.5833,898.5834,898.5911,900.3252,0,1,left,1.1798,0.001,900.3303,901.6571,1,1,right,901.6631,901.6694,,0,,0,901.6699,901.6699,901.6753,903.1699,0,35,35,35,1,0.2,0.8,0.8,0.2,,,,,,,,,,,,,,,0.7518,,0.8,0.2,0.8,0.2,0.8,0.2,0.6,0.4,1,0,,,,,,,,,,,,
,,66c856fd76895ebe2db7c327,66fc9875c4b9a29d76467140,2024-10-02_03h21.34.849,mdp,2024.2.1,Linux aarch64,30.06253006,66fa4ebf79326e780c390304,,,,,,,,,,,,,,,,,,,,,903.1714,903.1715,903.1752,904.3591,0,1,left,0.6167,0.001,904.3635,905.879,0,0,left,905.8841,905.8891,,1,,1,905.8894,905.8895,905.8937,907.3856,0,36,36,36,1,0.2,0.8,0.8,0.2,,,,,,,,,,,,,,,0.9332,,0.8,0.2,0.8,0.2,0.4,0.6,0.4,0.6,1,0,,,,,,,,,,,,
,,66c856fd76895ebe2db7c327,66fc9875c4b9a29d76467140,2024-10-02_03h21.34.849,mdp,2024.2.1,Linux aarch64,30.06253006,66fa4ebf79326e780c390304,,,,,,,,,,,,,,,,,,,,,907.3886,907.3888,907.3962,908.7044,1,0,right,0.7657,,908.7096,910.9182,0,0,left,910.9436,910.9464,,0,,1,910.9465,910.9465,910.9489,912.4393,0,37,37,37,1,0.2,0.8,0.8,0.2,,,,,,,,,,,,,,,1.6579,,0.8,0.2,0.8,0.2,0.4,0.6,0.4,0.6,1,0,,,,,,,,,,,,
,,66c856fd76895ebe2db7c327,66fc9875c4b9a29d76467140,2024-10-02_03h21.34.849,mdp,2024.2.1,Linux aarch64,30.06253006,66fa4ebf79326e780c390304,,,,,,,,,,,,,,,,,,,,,912.4413,912.4413,912.446,914.135,1,1,right,1.1413,0.0011,914.1393,915.5611,0,1,left,915.5702,915.5755,,0,,0,915.5759,915.576,915.5801,917.0409,0,38,38,38,1,0.6,0.4,0.2,0.8,,,,,,,,,,,,,,,0.8364,,0.8,0.2,0.8,0.2,0.4,0.6,0.4,0.6,1,0,,,,,,,,,,,,
,,66c856fd76895ebe2db7c327,66fc9875c4b9a29d76467140,2024-10-02_03h21.34.849,mdp,2024.2.1,Linux aarch64,30.06253006,66fa4ebf79326e780c390304,,,,,,,,,,,,,,,,,,,,,917.0429,917.043,917.0467,918.3795,1,1,right,0.7849,0.0008,918.3836,919.5576,1,0,right,919.5621,919.5667,,0,,1,919.567,919.567,919.5716,921.0629,0,39,39,39,1,0.6,0.4,0.2,0.8,,,,,,,,,,,,,,,0.5837,,0.8,0.2,0.8,0.2,0.4,0.6,0.4,0.6,1,0,,,,,,,,,,,,
,,66c856fd76895ebe2db7c327,66fc9875c4b9a29d76467140,2024-10-02_03h21.34.849,mdp,2024.2.1,Linux aarch64,30.06253006,66fa4ebf79326e780c390304,,,,,,,,,,,,,,,,,,,,,921.0649,921.0651,921.0704,922.4516,1,0,right,0.8037,,922.4563,924.927,0,0,left,924.9319,924.9349,,0,,1,924.9351,924.9351,924.9373,926.4179,0,40,40,40,1,0.6,0.4,0.2,0.8,,,,,,,,,,,,,,,1.9033,0.0011,0.8,0.2,0.8,0.2,0.2,0.8,0.8,0.2,1,0,,,,,,,,,,,,
,,66c856fd76895ebe2db7c327,66fc9875c4b9a29d76467140,2024-10-02_03h21.34.849,mdp,2024.2.1,Linux aarch64,30.06253006,66fa4ebf79326e780c390304,,,,,,,,,,,,,,,,,,,,,926.4198,926.4199,926.4246,927.8169,1,1,right,0.8476,,927.8216,929.1665,0,1,left,929.1722,929.1779,,1,,0,929.1783,929.1784,929.1832,930.6434,0,41,41,41,1,0.6,0.4,0.2,0.8,,,,,,,,,,,,,,,0.7833,,0.8,0.2,0.8,0.2,0.2,0.8,0.8,0.2,1,0,,,,,,,,,,,,
,,66c856fd76895ebe2db7c327,66fc9875c4b9a29d76467140,2024-10-02_03h21.34.849,mdp,2024.2.1,Linux aarch64,30.06253006,66fa4ebf79326e780c390304,,,,,,,,,,,,,,,,,,,,,930.6442,930.6442,930.6464,931.6787,1,1,right,0.4815,,931.6833,933.2906,1,0,right,933.2966,933.3021,,0,,1,933.3023,933.3024,933.3068,934.7789,0,42,42,42,1,0.6,0.4,0.2,0.8,,,,,,,,,,,,,,,1.042,,0.8,0.2,0.8,0.2,0.2,0.8,0.8,0.2,1,0,,,,,,,,,,,,
,,66c856fd76895ebe2db7c327,66fc9875c4b9a29d76467140,2024-10-02_03h21.34.849,mdp,2024.2.1,Linux aarch64,30.06253006,66fa4ebf79326e780c390304,,,,,,,,,,,,,,,,,,,,,934.782,934.7822,934.7898,936.1754,1,0,right,0.808,,936.1806,937.482,1,0,right,937.4868,937.493,,0,,1,937.4933,937.4933,937.4976,938.9984,0,43,43,43,1,0.6,0.4,0.2,0.8,,,,,,,,,,,,,,,0.7425,,0.8,0.2,0.8,0.2,0.2,0.8,0.8,0.2,1,0,,,,,,,,,,,,
,,66c856fd76895ebe2db7c327,66fc9875c4b9a29d76467140,2024-10-02_03h21.34.849,mdp,2024.2.1,Linux aarch64,30.06253006,66fa4ebf79326e780c390304,,,,,,,,,,,,,,,,,,,,,939.0013,939.0014,939.0091,940.2826,1,0,right,0.7336,,940.2873,941.4832,0,0,left,941.4874,941.4928,,0,,1,941.4933,941.4933,941.4978,942.9902,0,44,44,44,1,0.6,0.4,0.2,0.8,,,,,,,,,,,,,,,0.6185,,0.8,0.2,0.8,0.2,0.2,0.8,0.8,0.2,1,0,,,,,,,,,,,,
,,66c856fd76895ebe2db7c327,66fc9875c4b9a29d76467140,2024-10-02_03h21.34.849,mdp,2024.2.1,Linux aarch64,30.06253006,66fa4ebf79326e780c390304,,,,,,,,,,,,,,,,,,,,,942.9917,942.9917,942.9959,944.0613,1,0,right,0.504,,944.0654,945.4461,0,0,left,945.451,945.4559,,0,,1,945.4563,945.4564,945.4606,946.9541,0,45,45,45,1,0.6,0.4,0.2,0.8,,,,,,,,,,,,,,,0.8138,0.001,0.8,0.2,0.8,0.2,0.4,0.6,0.4,0.6,1,0,,,,,,,,,,,,
,,66c856fd76895ebe2db7c327,66fc9875c4b9a29d76467140,2024-10-02_03h21.34.849,mdp,2024.2.1,Linux aarch64,30.06253006,66fa4ebf79326e780c390304,,,,,,,,,,,,,,,,,,,,,946.9556,946.9556,946.9599,948.0568,1,0,right,0.5295,,948.0611,950.2477,0,0,left,950.2521,950.259,,0,,1,950.2594,950.2594,950.2656,951.7295,0,46,46,46,1,0.6,0.4,0.2,0.8,,,,,,,,,,,,,,,1.6158,,0.8,0.2,0.8,0.2,0.4,0.6,0.4,0.6,1,0,,,,,,,,,,,,
,,66c856fd76895ebe2db7c327,66fc9875c4b9a29d76467140,2024-10-02_03h21.34.849,mdp,2024.2.1,Linux aarch64,30.06253006,66fa4ebf79326e780c390304,,,,,,,,,,,,,,,,,,,,,951.7313,951.7314,951.7362,952.9046,1,0,right,0.6178,,952.9086,954.2688,0,0,left,954.2728,954.2769,,0,,1,954.2771,954.2772,954.2813,955.7587,0,47,47,47,1,0.8,0.2,0.6,0.4,,,,,,,,,,,,,,,0.7831,,0.8,0.2,0.8,0.2,0.4,0.6,0.4,0.6,1,0,,,,,,,,,,,,
,,66c856fd76895ebe2db7c327,66fc9875c4b9a29d76467140,2024-10-02_03h21.34.849,mdp,2024.2.1,Linux aarch64,30.06253006,66fa4ebf79326e780c390304,,,,,,,,,,,,,,,,,,,,,955.7609,955.761,955.7671,956.8099,1,1,right,0.4695,,956.8158,958.1318,0,1,left,958.1357,958.1415,,1,,0,958.1418,958.1419,958.1465,959.6085,0,48,48,48,1,0.8,0.2,0.6,0.4,,,,,,,,,,,,,,,0.7419,,0.8,0.2,0.8,0.2,0.4,0.6,0.4,0.6,1,0,,,,,,,,,,,,
,,66c856fd76895ebe2db7c327,66fc9875c4b9a29d76467140,2024-10-02_03h21.34.849,mdp,2024.2.1,Linux aarch64,30.06253006,66fa4ebf79326e780c390304,,,,,,,,,,,,,,,,,,,,,959.6103,959.6106,959.6153,962.4226,0,0,left,2.2569,,962.4529,964.4149,1,0,right,964.4194,964.4242,,0,,1,964.4246,964.4247,964.4298,965.9096,0,49,49,49,1,0.8,0.2,0.6,0.4,,,,,,,,,,,,,,,1.4179,,0.8,0.2,0.8,0.2,0.4,0.6,0.4,0.6,1,0,,,,,,,,,,,,
,,66c856fd76895ebe2db7c327,66fc9875c4b9a29d76467140,2024-10-02_03h21.34.849,mdp,2024.2.1,Linux aarch64,30.06253006,66fa4ebf79326e780c390304,,,,,,,,,,,,,,,,,,,,,,,,,,,,,,,,,,,,,,,,,,,,,,,,,,,,,,,,965.91,1024.4642,0,1,1,7,1,imgs/kangaroo.png,imgs/bear.png,imgs/giraffe.png,imgs/cat.png,imgs/elephant.png,,,,,,,,,,,,,,,,,,,,,,,,
,,66c856fd76895ebe2db7c327,66fc9875c4b9a29d76467140,2024-10-02_03h21.34.849,mdp,2024.2.1,Linux aarch64,30.06253006,66fa4ebf79326e780c390304,,,,,,,,,,,,,,3,seqs/st3seq12.csv,1024.4985,1032.9784,space,7.9199,0.0011,1033.0162,1033.0162,1033.0187,1036.0685,0,0,left,2.4828,,1036.0736,1037.5912,1,0,right,1037.5958,1038.9001,0,1,left,0,1038.901,1038.9011,1038.907,1040.3783,0,0,0,0,1,0.8,0.2,0.4,0.6,,,,,,,,,,,,,,,0.9598,,0.6,0.4,0.6,0.4,0.6,0.4,0.2,0.8,,,0.7347,,0.2,0.8,0.8,0.2,0.8,0.2,0.2,0.8,1,0
,,66c856fd76895ebe2db7c327,66fc9875c4b9a29d76467140,2024-10-02_03h21.34.849,mdp,2024.2.1,Linux aarch64,30.06253006,66fa4ebf79326e780c390304,,,,,,,,,,,,,,,,,,,,,1040.3826,1040.3829,1040.388,1041.616,0,1,left,0.6663,,1041.6212,1042.8885,1,1,right,1042.8934,1044.3197,0,0,left,1,1044.32,1044.32,1044.3246,1045.8342,0,1,1,1,1,0.8,0.2,0.4,0.6,,,,,,,,,,,,,,,0.7165,,0.6,0.4,0.6,0.4,0.6,0.4,0.2,0.8,,,0.8822,,0.2,0.8,0.8,0.2,0.8,0.2,0.2,0.8,1,0
,,66c856fd76895ebe2db7c327,66fc9875c4b9a29d76467140,2024-10-02_03h21.34.849,mdp,2024.2.1,Linux aarch64,30.06253006,66fa4ebf79326e780c390304,,,,,,,,,,,,,,,,,,,,,1045.8361,1045.8362,1045.841,1046.9448,0,0,left,0.5317,,1046.9492,1048.1951,1,0,right,1048.1996,1049.7652,0,0,left,1,1049.7658,1049.7658,1049.7705,1051.2767,0,2,2,2,1,0.8,0.2,0.4,0.6,,,,,,,,,,,,,,,0.6869,,0.6,0.4,0.6,0.4,0.6,0.4,0.2,0.8,,,1.009,,0.2,0.8,0.8,0.2,0.8,0.2,0.2,0.8,1,0
,,66c856fd76895ebe2db7c327,66fc9875c4b9a29d76467140,2024-10-02_03h21.34.849,mdp,2024.2.1,Linux aarch64,30.06253006,66fa4ebf79326e780c390304,,,,,,,,,,,,,,,,,,,,,1051.2794,1051.2796,1051.285,1052.6375,1,1,right,0.7919,0.0008,1052.6427,1054.1033,1,1,right,1054.1081,1055.4415,1,1,right,0,1055.4419,1055.4419,1055.446,1056.948,0,3,3,3,1,0.8,0.2,0.4,0.6,,,,,,,,,,,,,,,0.9104,,0.6,0.4,0.6,0.4,0.6,0.4,0.2,0.8,,,0.762,,0.2,0.8,0.8,0.2,0.8,0.2,0.2,0.8,1,0
,,66c856fd76895ebe2db7c327,66fc9875c4b9a29d76467140,2024-10-02_03h21.34.849,mdp,2024.2.1,Linux aarch64,30.06253006,66fa4ebf79326e780c390304,,,,,,,,,,,,,,,,,,,,,1056.9505,1056.9506,1056.956,1058.0553,1,0,right,0.5355,,1058.0594,1059.9639,0,0,left,1059.9679,1061.0471,1,0,right,1,1061.0474,1061.0475,1061.0512,1062.5329,0,4,4,4,1,0.8,0.2,0.4,0.6,,,,,,,,,,,,,,,1.3432,,0.6,0.4,0.6,0.4,0.6,0.4,0.2,0.8,,,0.4965,,0.2,0.8,0.8,0.2,0.8,0.2,0.2,0.8,1,0
,,66c856fd76895ebe2db7c327,66fc9875c4b9a29d76467140,2024-10-02_03h21.34.849,mdp,2024.2.1,Linux aarch64,30.06253006,66fa4ebf79326e780c390304,,,,,,,,,,,,,,,,,,,,,1062.5346,1062.5347,1062.5389,1063.4853,1,0,right,0.363,,1063.4888,1064.8128,0,0,left,1064.8172,1065.9269,1,0,right,1,1065.9272,1065.9272,1065.9314,1067.3905,0,5,5,5,1,0.8,0.2,0.4,0.6,,,,,,,,,,,,,,,0.7813,,0.8,0.2,0.2,0.8,0.6,0.4,0.2,0.8,,,0.5326,,0.2,0.8,0.8,0.2,0.8,0.2,0.2,0.8,1,0
,,66c856fd76895ebe2db7c327,66fc9875c4b9a29d76467140,2024-10-02_03h21.34.849,mdp,2024.2.1,Linux aarch64,30.06253006,66fa4ebf79326e780c390304,,,,,,,,,,,,,,,,,,,,,1067.3929,1067.3931,1067.3988,1068.4522,1,1,right,0.4866,,1068.4565,1069.4973,0,0,left,1069.5005,1070.4569,1,0,right,1,1070.4573,1070.4573,1070.4609,1071.9361,0,6,6,6,1,0.8,0.2,0.4,0.6,,,,,,,,,,,,,,,0.5012,,0.8,0.2,0.2,0.8,0.6,0.4,0.2,0.8,,,0.4012,,0.2,0.8,0.8,0.2,0.8,0.2,0.2,0.8,1,0
,,66c856fd76895ebe2db7c327,66fc9875c4b9a29d76467140,2024-10-02_03h21.34.849,mdp,2024.2.1,Linux aarch64,30.06253006,66fa4ebf79326e780c390304,,,,,,,,,,,,,,,,,,,,,1071.938,1071.9382,1071.9423,1072.8692,1,1,right,0.3856,,1072.873,1073.8607,0,0,left,1073.8664,1074.8158,1,0,right,1,1074.8162,1074.8162,1074.8199,1076.3109,0,7,7,7,1,0.8,0.2,0.4,0.6,,,,,,,,,,,,,,,0.4457,,0.8,0.2,0.2,0.8,0.6,0.4,0.2,0.8,,,0.415,,0.2,0.8,0.8,0.2,0.8,0.2,0.2,0.8,1,0
,,66c856fd76895ebe2db7c327,66fc9875c4b9a29d76467140,2024-10-02_03h21.34.849,mdp,2024.2.1,Linux aarch64,30.06253006,66fa4ebf79326e780c390304,,,,,,,,,,,,,,,,,,,,,1076.3118,1076.3119,1076.3139,1077.7056,0,0,left,0.8453,,1077.711,1078.9935,1,0,right,1078.9973,1080.0971,0,0,left,1,1080.0974,1080.0975,1080.1017,1081.5966,0,8,8,8,1,0.8,0.2,0.4,0.6,,,,,,,,,,,,,,,0.7343,,0.2,0.8,0.6,0.4,0.6,0.4,0.2,0.8,,,0.5476,,0.2,0.8,0.8,0.2,0.8,0.2,0.2,0.8,1,0
,,66c856fd76895ebe2db7c327,66fc9875c4b9a29d76467140,2024-10-02_03h21.34.849,mdp,2024.2.1,Linux aarch64,30.06253006,66fa4ebf79326e780c390304,,,,,,,,,,,,,,,,,,,,,1081.5976,1081.5977,1081.5995,1082.4198,0,0,left,0.2852,,1082.4247,1083.2573,1,1,right,1083.2617,1084.3741,0,1,left,0,1084.3743,1084.3743,1084.3771,1085.8792,0,9,9,9,1,0.8,0.2,0.4,0.6,,,,,,,,,,,,,,,0.2925,,0.2,0.8,0.6,0.4,0.6,0.4,0.2,0.8,,,0.5737,,0.2,0.8,0.8,0.2,0.8,0.2,0.2,0.8,1,0
,,66c856fd76895ebe2db7c327,66fc9875c4b9a29d76467140,2024-10-02_03h21.34.849,mdp,2024.2.1,Linux aarch64,30.06253006,66fa4ebf79326e780c390304,,,,,,,,,,,,,,,,,,,,,1085.8814,1085.8816,1085.8865,1087.029,0,0,left,0.6011,,1087.0336,1088.7388,1,0,right,1088.7427,1089.7951,0,0,left,1,1089.7955,1089.7957,1089.8008,1091.2873,0,10,10,10,1,0.8,0.2,0.4,0.6,,,,,,,,,,,,,,,1.1555,,0.2,0.8,0.6,0.4,0.6,0.4,0.2,0.8,,,0.5103,,0.8,0.2,0.4,0.6,0.8,0.2,0.2,0.8,1,0
,,66c856fd76895ebe2db7c327,66fc9875c4b9a29d76467140,2024-10-02_03h21.34.849,mdp,2024.2.1,Linux aarch64,30.06253006,66fa4ebf79326e780c390304,,,,,,,,,,,,,,,,,,,,,1091.2882,1091.2883,1091.2903,1091.8728,0,0,left,0.0524,,1091.883,1092.8116,1,1,right,1092.8155,1093.9224,0,1,left,0,1093.9228,1093.923,1093.9278,1095.3989,0,11,11,11,1,0.8,0.2,0.4,0.6,,,,,,,,,,,,,,,0.392,,0.2,0.8,0.6,0.4,0.6,0.4,0.2,0.8,,,0.5684,,0.8,0.2,0.4,0.6,0.8,0.2,0.2,0.8,1,0
,,66c856fd76895ebe2db7c327,66fc9875c4b9a29d76467140,2024-10-02_03h21.34.849,mdp,2024.2.1,Linux aarch64,30.06253006,66fa4ebf79326e780c390304,,,,,,,,,,,,,,,,,,,,,1095.4014,1095.4015,1095.4071,1096.543,1,1,right,0.5864,,1096.547,1097.5163,0,0,left,1097.5201,1098.7295,1,0,right,1,1098.73,1098.73,1098.7343,1100.217,0,12,12,12,1,0.8,0.2,0.4,0.6,,,,,,,,,,,,,,,0.4188,,0.2,0.8,0.6,0.4,0.6,0.4,0.2,0.8,,,0.6583,,0.8,0.2,0.4,0.6,0.8,0.2,0.2,0.8,1,0
,,66c856fd76895ebe2db7c327,66fc9875c4b9a29d76467140,2024-10-02_03h21.34.849,mdp,2024.2.1,Linux aarch64,30.06253006,66fa4ebf79326e780c390304,,,,,,,,,,,,,,,,,,,,,1100.219,1100.2191,1100.224,1101.3298,1,1,right,0.5767,,1101.3336,1102.3928,0,0,left,1102.3976,1103.5284,1,1,right,0,1103.5293,1103.5295,1103.5345,1105.0373,0,13,13,13,1,0.8,0.2,0.4,0.6,,,,,,,,,,,,,,,0.501,,0.2,0.8,0.6,0.4,0.6,0.4,0.2,0.8,,,0.5657,,0.8,0.2,0.4,0.6,0.8,0.2,0.2,0.8,1,0
,,66c856fd76895ebe2db7c327,66fc9875c4b9a29d76467140,2024-10-02_03h21.34.849,mdp,2024.2.1,Linux aarch64,30.06253006,66fa4ebf79326e780c390304,,,,,,,,,,,,,,,,,,,,,1105.0395,1105.0395,1105.0441,1106.0207,1,1,right,0.4137,,1106.0248,1107.092,0,0,left,1107.0974,1108.2374,1,1,right,0,1108.2378,1108.2378,1108.2423,1109.7384,0,14,14,14,1,0.8,0.2,0.4,0.6,,,,,,,,,,,,,,,0.54,,0.2,0.8,0.6,0.4,0.6,0.4,0.2,0.8,,,0.6168,,0.8,0.2,0.4,0.6,0.8,0.2,0.2,0.8,1,0
,,66c856fd76895ebe2db7c327,66fc9875c4b9a29d76467140,2024-10-02_03h21.34.849,mdp,2024.2.1,Linux aarch64,30.06253006,66fa4ebf79326e780c390304,,,,,,,,,,,,,,,,,,,,,1109.741,1109.7411,1109.7446,1110.8135,0,1,left,0.5143,,1110.8173,1111.7218,1,0,right,1111.7262,1112.8748,0,0,left,1,1112.8752,1112.8753,1112.8793,1114.3689,0,15,15,15,1,0.8,0.2,0.4,0.6,,,,,,,,,,,,,,,0.3801,,0.2,0.8,0.6,0.4,0.6,0.4,0.2,0.8,,,0.6152,,0.8,0.2,0.4,0.6,0.8,0.2,0.2,0.8,1,0
,,66c856fd76895ebe2db7c327,66fc9875c4b9a29d76467140,2024-10-02_03h21.34.849,mdp,2024.2.1,Linux aarch64,30.06253006,66fa4ebf79326e780c390304,,,,,,,,,,,,,,,,,,,,,1114.3711,1114.3712,1114.376,1115.6072,1,0,right,0.6931,,1115.6119,1116.7699,0,1,left,1116.7739,1117.7926,1,0,right,1,1117.793,1117.793,1117.7969,1119.2783,0,16,16,16,1,0.6,0.4,0.6,0.4,,,,,,,,,,,,,,,0.6059,,0.2,0.8,0.6,0.4,0.6,0.4,0.2,0.8,,,0.4674,,0.8,0.2,0.4,0.6,0.8,0.2,0.2,0.8,1,0
,,66c856fd76895ebe2db7c327,66fc9875c4b9a29d76467140,2024-10-02_03h21.34.849,mdp,2024.2.1,Linux aarch64,30.06253006,66fa4ebf79326e780c390304,,,,,,,,,,,,,,,,,,,,,1119.2805,1119.2806,1119.2858,1120.251,1,1,right,0.424,,1120.2544,1121.3026,0,0,left,1121.3066,1122.277,1,1,right,0,1122.2775,1122.2776,1122.2816,1123.758,0,17,17,17,1,0.6,0.4,0.6,0.4,,,,,,,,,,,,,,,0.5019,,0.2,0.8,0.6,0.4,0.6,0.4,0.2,0.8,,,0.4135,,0.8,0.2,0.4,0.6,0.8,0.2,0.2,0.8,1,0
,,66c856fd76895ebe2db7c327,66fc9875c4b9a29d76467140,2024-10-02_03h21.34.849,mdp,2024.2.1,Linux aarch64,30.06253006,66fa4ebf79326e780c390304,,,,,,,,,,,,,,,,,,,,,1123.7601,1123.7602,1123.7638,1124.354,1,0,right,0.0322,,1124.3584,1125.3951,0,1,left,1125.399,1126.6237,0,0,left,1,1126.624,1126.624,1126.6269,1128.1313,0,18,18,18,1,0.6,0.4,0.6,0.4,,,,,,,,,,,,,,,0.4883,,0.2,0.8,0.6,0.4,0.6,0.4,0.2,0.8,,,0.6782,0.0006,0.8,0.2,0.4,0.6,0.8,0.2,0.2,0.8,1,0
,,66c856fd76895ebe2db7c327,66fc9875c4b9a29d76467140,2024-10-02_03h21.34.849,mdp,2024.2.1,Linux aarch64,30.06253006,66fa4ebf79326e780c390304,,,,,,,,,,,,,,,,,,,,,1128.1337,1128.1339,1128.139,1129.1785,1,0,right,0.4951,,1129.1831,1130.396,0,0,left,1130.4,1131.7157,0,1,left,0,1131.716,1131.716,1131.7202,1133.2043,0,19,19,19,1,0.6,0.4,0.6,0.4,,,,,,,,,,,,,,,0.6829,,0.2,0.8,0.6,0.4,0.6,0.4,0.2,0.8,,,0.7654,,0.2,0.8,0.2,0.8,0.8,0.2,0.2,0.8,1,0
,,66c856fd76895ebe2db7c327,66fc9875c4b9a29d76467140,2024-10-02_03h21.34.849,mdp,2024.2.1,Linux aarch64,30.06253006,66fa4ebf79326e780c390304,,,,,,,,,,,,,,,,,,,,,1133.2067,1133.207,1133.2114,1134.7469,0,0,left,0.997,,1134.7534,1135.7428,1,0,right,1135.7466,1137.5535,0,1,left,0,1137.5538,1137.5538,1137.5575,1139.0531,0,20,20,20,1,0.6,0.4,0.6,0.4,,,,,,,,,,,,,,,0.4462,,0.2,0.8,0.6,0.4,0.6,0.4,0.2,0.8,,,1.2643,,0.2,0.8,0.2,0.8,0.8,0.2,0.2,0.8,1,0
,,66c856fd76895ebe2db7c327,66fc9875c4b9a29d76467140,2024-10-02_03h21.34.849,mdp,2024.2.1,Linux aarch64,30.06253006,66fa4ebf79326e780c390304,,,,,,,,,,,,,,,,,,,,,1139.0553,1139.0555,1139.06,1140.3964,0,0,left,0.7583,,1140.403,1141.2633,1,0,right,1141.2673,1143.0267,1,1,right,0,1143.027,1143.027,1143.0301,1144.5134,0,21,21,21,1,0.6,0.4,0.6,0.4,,,,,,,,,,,,,,,0.3188,,0.2,0.8,0.6,0.4,0.6,0.4,0.2,0.8,,,1.2167,0.0007,0.2,0.8,0.2,0.8,0.8,0.2,0.2,0.8,1,0
,,66c856fd76895ebe2db7c327,66fc9875c4b9a29d76467140,2024-10-02_03h21.34.849,mdp,2024.2.1,Linux aarch64,30.06253006,66fa4ebf79326e780c390304,,,,,,,,,,,,,,,,,,,,,1144.5154,1144.5155,1144.5202,1145.0984,1,1,right,0.0307,,1145.1027,1145.9238,0,0,left,1145.9259,1146.5385,1,0,right,1,1146.5389,1146.539,1146.5437,1148.0389,0,22,22,22,1,0.6,0.4,0.6,0.4,,,,,,,,,,,,,,,0.2793,,0.2,0.8,0.6,0.4,0.6,0.4,0.2,0.8,,,0.0749,,0.2,0.8,0.2,0.8,0.8,0.2,0.2,0.8,1,0
,,66c856fd76895ebe2db7c327,66fc9875c4b9a29d76467140,2024-10-02_03h21.34.849,mdp,2024.2.1,Linux aarch64,30.06253006,66fa4ebf79326e780c390304,,,,,,,,,,,,,,,,,,,,,1148.0419,1148.0421,1148.0469,1149.2334,1,0,right,0.6586,,1149.2375,1150.0536,0,1,left,1150.0585,1150.8271,1,1,right,0,1150.8275,1150.8276,1150.832,1152.3313,0,23,23,23,1,0.4,0.6,0.8,0.2,,,,,,,,,,,,,,,0.275,,0.2,0.8,0.6,0.4,0.6,0.4,0.2,0.8,,,0.2341,,0.2,0.8,0.2,0.8,0.8,0.2,0.2,0.8,1,0
,,66c856fd76895ebe2db7c327,66fc9875c4b9a29d76467140,2024-10-02_03h21.34.849,mdp,2024.2.1,Linux aarch64,30.06253006,66fa4ebf79326e780c390304,,,,,,,,,,,,,,,,,,,,,1152.3337,1152.3338,1152.3456,1153.9284,1,0,right,1.0596,,1153.9325,1154.9943,0,1,left,1154.9983,1156.5068,1,1,right,0,1156.5072,1156.5072,1156.5113,1158.0178,0,24,24,24,1,0.4,0.6,0.8,0.2,,,,,,,,,,,,,,,0.5051,0.0015,0.2,0.8,0.6,0.4,0.6,0.4,0.2,0.8,,,0.9602,0.001,0.2,0.8,0.2,0.8,0.8,0.2,0.2,0.8,1,0
,,66c856fd76895ebe2db7c327,66fc9875c4b9a29d76467140,2024-10-02_03h21.34.849,mdp,2024.2.1,Linux aarch64,30.06253006,66fa4ebf79326e780c390304,,,,,,,,,,,,,,,,,,,,,1158.0206,1158.0208,1158.0257,1158.603,0,1,left,0.002,0.0009,1158.6085,1159.7053,1,1,right,1159.7091,1160.7737,0,0,left,1,1160.774,1160.7741,1160.7784,1162.2581,0,25,25,25,1,0.4,0.6,0.8,0.2,,,,,,,,,,,,,,,0.5456,,0.8,0.2,0.8,0.2,0.6,0.4,0.2,0.8,,,0.5231,,0.2,0.8,0.2,0.8,0.8,0.2,0.2,0.8,1,0
,,66c856fd76895ebe2db7c327,66fc9875c4b9a29d76467140,2024-10-02_03h21.34.849,mdp,2024.2.1,Linux aarch64,30.06253006,66fa4ebf79326e780c390304,,,,,,,,,,,,,,,,,,,,,1162.2631,1162.2632,1162.2674,1162.8072,0,0,left,0.0024,,1162.8127,1164.763,0,0,left,1164.7669,1165.5092,1,1,right,0,1165.5095,1165.5095,1165.5133,1166.9956,0,26,26,26,1,0.4,0.6,0.8,0.2,,,,,,,,,,,,,,,1.3753,,0.8,0.2,0.8,0.2,0.6,0.4,0.2,0.8,,,0.1762,,0.2,0.8,0.2,0.8,0.8,0.2,0.2,0.8,1,0
,,66c856fd76895ebe2db7c327,66fc9875c4b9a29d76467140,2024-10-02_03h21.34.849,mdp,2024.2.1,Linux aarch64,30.06253006,66fa4ebf79326e780c390304,,,,,,,,,,,,,,,,,,,,,1166.9989,1166.9991,1167.0042,1168.2184,1,0,right,0.6889,,1168.2231,1169.2695,0,0,left,1169.2739,1170.1859,1,1,right,0,1170.1863,1170.1864,1170.1906,1171.7041,0,27,27,27,1,0.4,0.6,0.8,0.2,,,,,,,,,,,,,,,0.5017,,0.8,0.2,0.8,0.2,0.6,0.4,0.2,0.8,,,0.3812,,0.2,0.8,0.2,0.8,0.8,0.2,0.2,0.8,1,0
,,66c856fd76895ebe2db7c327,66fc9875c4b9a29d76467140,2024-10-02_03h21.34.849,mdp,2024.2.1,Linux aarch64,30.06253006,66fa4ebf79326e780c390304,,,,,,,,,,,,,,,,,,,,,1171.706,1171.7062,1171.7113,1172.6157,0,1,left,0.3568,,1172.62,1173.2266,1,0,right,1173.2311,1174.0241,0,1,left,0,1174.0245,1174.0246,1174.0281,1175.4946,0,28,28,28,1,0.4,0.6,0.8,0.2,,,,,,,,,,,,,,,0.0347,,0.8,0.2,0.8,0.2,0.6,0.4,0.2,0.8,,,0.2502,,0.2,0.8,0.2,0.8,0.8,0.2,0.2,0.8,1,0
,,66c856fd76895ebe2db7c327,66fc9875c4b9a29d76467140,2024-10-02_03h21.34.849,mdp,2024.2.1,Linux aarch64,30.06253006,66fa4ebf79326e780c390304,,,,,,,,,,,,,,,,,,,,,1175.4964,1175.4965,1175.5004,1176.0749,1,0,right,0.0023,,1176.0802,1176.8909,0,1,left,1176.8939,1178.453,1,0,right,1,1178.4534,1178.4534,1178.4574,1179.9611,0,29,29,29,1,0.4,0.6,0.8,0.2,,,,,,,,,,,,,,,0.2525,0.0009,0.8,0.2,0.8,0.2,0.6,0.4,0.2,0.8,,,0.9774,0.0009,0.2,0.8,0.2,0.8,0.8,0.2,0.2,0.8,1,0
,,66c856fd76895ebe2db7c327,66fc9875c4b9a29d76467140,2024-10-02_03h21.34.849,mdp,2024.2.1,Linux aarch64,30.06253006,66fa4ebf79326e780c390304,,,,,,,,,,,,,,,,,,,,,1179.9631,1179.9633,1179.9704,1181.2257,1,0,right,0.71,,1181.2295,1181.9236,0,0,left,1181.9274,1182.4845,1,1,right,0,1182.4849,1182.4851,1182.4899,1183.9904,0,30,30,30,1,0.4,0.6,0.8,0.2,,,,,,,,,,,,,,,0.1262,,0.8,0.2,0.8,0.2,0.6,0.4,0.2,0.8,,,0.0023,,0.2,0.8,0.2,0.8,0.8,0.2,0.2,0.8,1,0
,,66c856fd76895ebe2db7c327,66fc9875c4b9a29d76467140,2024-10-02_03h21.34.849,mdp,2024.2.1,Linux aarch64,30.06253006,66fa4ebf79326e780c390304,,,,,,,,,,,,,,,,,,,,,1183.9926,1183.9927,1183.9971,1184.8651,1,1,right,0.3205,0.0008,1184.8696,1185.4282,0,0,left,1185.4337,1186.48,0,1,left,0,1186.4807,1186.4808,1186.4859,1187.9794,0,31,31,31,1,0.4,0.6,0.8,0.2,,,,,,,,,,,,,,,0.0025,,0.8,0.2,0.8,0.2,0.6,0.4,0.2,0.8,,,0.4807,0.0015,0.2,0.8,0.2,0.8,0.8,0.2,0.2,0.8,1,0
,,66c856fd76895ebe2db7c327,66fc9875c4b9a29d76467140,2024-10-02_03h21.34.849,mdp,2024.2.1,Linux aarch64,30.06253006,66fa4ebf79326e780c390304,,,,,,,,,,,,,,,,,,,,,1187.9813,1187.9814,1187.9852,1189.1147,0,0,left,0.5612,,1189.1191,1190.2767,1,1,right,1190.2805,1191.9769,0,0,left,1,1191.9773,1191.9774,1191.9819,1193.4808,0,32,32,32,1,0.4,0.6,0.8,0.2,,,,,,,,,,,,,,,0.5756,,0.8,0.2,0.8,0.2,0.6,0.4,0.2,0.8,,,1.13,,0.2,0.8,0.2,0.8,0.8,0.2,0.2,0.8,1,0
,,66c856fd76895ebe2db7c327,66fc9875c4b9a29d76467140,2024-10-02_03h21.34.849,mdp,2024.2.1,Linux aarch64,30.06253006,66fa4ebf79326e780c390304,,,,,,,,,,,,,,,,,,,,,1193.4835,1193.4837,1193.4883,1194.3657,0,1,left,0.3246,,1194.3699,1194.9361,1,1,right,1194.9383,1196.1693,0,1,left,0,1196.1696,1196.1697,1196.1736,1197.6354,0,33,33,33,1,0.4,0.6,0.8,0.2,,,,,,,,,,,,,,,0.0018,,0.8,0.2,0.8,0.2,0.6,0.4,0.2,0.8,,,0.6604,,0.2,0.8,0.2,0.8,0.8,0.2,0.2,0.8,1,0
,,66c856fd76895ebe2db7c327,66fc9875c4b9a29d76467140,2024-10-02_03h21.34.849,mdp,2024.2.1,Linux aarch64,30.06253006,66fa4ebf79326e780c390304,,,,,,,,,,,,,,,,,,,,,1197.6373,1197.6375,1197.6418,1198.6693,1,0,right,0.4819,,1198.6745,1200.3718,0,0,left,1200.3759,1202.3404,0,0,left,1,1202.3408,1202.3408,1202.3447,1203.8066,0,34,34,34,1,0.4,0.6,0.8,0.2,,,,,,,,,,,,,,,1.1443,,0.8,0.2,0.8,0.2,0.6,0.4,0.2,0.8,,,1.4173,,0.2,0.8,0.2,0.8,0.8,0.2,0.2,0.8,1,0
,,66c856fd76895ebe2db7c327,66fc9875c4b9a29d76467140,2024-10-02_03h21.34.849,mdp,2024.2.1,Linux aarch64,30.06253006,66fa4ebf79326e780c390304,,,,,,,,,,,,,,,,,,,,,1203.809,1203.8091,1203.8142,1205.8253,0,1,left,1.4438,,1205.8292,1207.356,0,0,left,1207.361,1208.6319,0,1,left,0,1208.6324,1208.6325,1208.6371,1210.1284,0,35,35,35,1,0.4,0.6,0.8,0.2,,,,,,,,,,,,,,,0.9401,0.0011,0.8,0.2,0.8,0.2,0.6,0.4,0.2,0.8,,,0.7302,,0.2,0.8,0.2,0.8,0.8,0.2,0.2,0.8,1,0
,,66c856fd76895ebe2db7c327,66fc9875c4b9a29d76467140,2024-10-02_03h21.34.849,mdp,2024.2.1,Linux aarch64,30.06253006,66fa4ebf79326e780c390304,,,,,,,,,,,,,,,,,,,,,1210.1309,1210.1311,1210.1372,1211.4032,0,0,left,0.7082,,1211.4064,1213.0265,0,0,left,1213.0304,1214.2457,0,1,left,0,1214.246,1214.246,1214.2498,1215.7461,0,36,36,36,1,0.4,0.6,0.8,0.2,,,,,,,,,,,,,,,1.0585,,0.8,0.2,0.8,0.2,0.6,0.4,0.2,0.8,,,0.6681,0.0009,0.2,0.8,0.2,0.8,0.8,0.2,0.2,0.8,1,0
,,66c856fd76895ebe2db7c327,66fc9875c4b9a29d76467140,2024-10-02_03h21.34.849,mdp,2024.2.1,Linux aarch64,30.06253006,66fa4ebf79326e780c390304,,,,,,,,,,,,,,,,,,,,,1215.748,1215.748,1215.7538,1216.9008,0,1,left,0.5867,,1216.9047,1218.2073,0,1,left,1218.2114,1220.1252,0,0,left,1,1220.1258,1220.1259,1220.1314,1221.6281,0,37,37,37,1,0.4,0.6,0.8,0.2,,,,,,,,,,,,,,,0.7152,,0.8,0.2,0.8,0.2,0.4,0.6,0.4,0.6,,,1.3545,,0.2,0.8,0.2,0.8,0.8,0.2,0.2,0.8,1,0
,,66c856fd76895ebe2db7c327,66fc9875c4b9a29d76467140,2024-10-02_03h21.34.849,mdp,2024.2.1,Linux aarch64,30.06253006,66fa4ebf79326e780c390304,,,,,,,,,,,,,,,,,,,,,1221.6305,1221.6306,1221.6347,1223.3158,0,1,left,1.1234,,1223.3208,1224.9467,0,0,left,1224.9515,1226.418,1,1,right,0,1226.4183,1226.4184,1226.4222,1227.8953,0,38,38,38,1,0.4,0.6,0.8,0.2,,,,,,,,,,,,,,,1.0564,0.001,0.8,0.2,0.8,0.2,0.4,0.6,0.4,0.6,,,0.8924,,0.2,0.8,0.2,0.8,0.8,0.2,0.2,0.8,1,0
,,66c856fd76895ebe2db7c327,66fc9875c4b9a29d76467140,2024-10-02_03h21.34.849,mdp,2024.2.1,Linux aarch64,30.06253006,66fa4ebf79326e780c390304,,,,,,,,,,,,,,,,,,,,,1227.8972,1227.8973,1227.9011,1228.7555,0,1,left,0.2985,,1228.7598,1230.2159,0,0,left,1230.22,1231.8366,0,1,left,0,1231.837,1231.837,1231.8406,1233.3351,0,39,39,39,1,0.2,0.8,0.2,0.8,,,,,,,,,,,,,,,0.8877,0.0009,0.8,0.2,0.8,0.2,0.4,0.6,0.4,0.6,,,1.0759,,0.2,0.8,0.2,0.8,0.8,0.2,0.2,0.8,1,0
,,66c856fd76895ebe2db7c327,66fc9875c4b9a29d76467140,2024-10-02_03h21.34.849,mdp,2024.2.1,Linux aarch64,30.06253006,66fa4ebf79326e780c390304,,,,,,,,,,,,,,,,,,,,,1233.3371,1233.3372,1233.3419,1234.3798,0,1,left,0.4903,,1234.3847,1237.5265,0,1,left,1237.5488,1239.0466,1,1,right,0,1239.047,1239.0471,1239.0509,1240.5377,0,40,40,40,1,0.2,0.8,0.2,0.8,,,,,,,,,,,,,,,2.5896,,0.8,0.2,0.8,0.2,0.4,0.6,0.4,0.6,,,0.9554,,0.2,0.8,0.2,0.8,0.8,0.2,0.2,0.8,1,0
,,66c856fd76895ebe2db7c327,66fc9875c4b9a29d76467140,2024-10-02_03h21.34.849,mdp,2024.2.1,Linux aarch64,30.06253006,66fa4ebf79326e780c390304,,,,,,,,,,,,,,,,,,,,,1240.5394,1240.5395,1240.5434,1241.5967,1,1,right,0.493,,1241.6014,1242.6696,1,1,right,1242.6735,1243.9509,1,0,right,1,1243.9512,1243.9512,1243.9552,1245.4305,0,41,41,41,1,0.2,0.8,0.2,0.8,,,,,,,,,,,,,,,0.5063,,0.8,0.2,0.8,0.2,0.4,0.6,0.4,0.6,,,0.7229,,0.2,0.8,0.2,0.8,0.6,0.4,0.8,0.2,1,0
,,66c856fd76895ebe2db7c327,66fc9875c4b9a29d76467140,2024-10-02_03h21.34.849,mdp,2024.2.1,Linux aarch64,30.06253006,66fa4ebf79326e780c390304,,,,,,,,,,,,,,,,,,,,,1245.4323,1245.4325,1245.4362,1246.43,1,1,right,0.441,,1246.4341,1247.7238,1,1,right,1247.728,1249.3111,0,0,left,1,1249.3116,1249.3116,1249.3161,1250.8078,0,42,42,42,1,0.2,0.8,0.2,0.8,,,,,,,,,,,,,,,0.7172,,0.8,0.2,0.8,0.2,0.4,0.6,0.4,0.6,,,1.0206,,0.2,0.8,0.2,0.8,0.8,0.2,0.6,0.4,1,0
,,66c856fd76895ebe2db7c327,66fc9875c4b9a29d76467140,2024-10-02_03h21.34.849,mdp,2024.2.1,Linux aarch64,30.06253006,66fa4ebf79326e780c390304,,,,,,,,,,,,,,,,,,,,,1250.8098,1250.81,1250.8149,1252.1527,1,0,right,0.772,,1252.1565,1253.8774,1,1,right,1253.8812,1254.8575,1,0,right,1,1254.8578,1254.8579,1254.8614,1256.3501,0,43,43,43,1,0.2,0.8,0.2,0.8,,,,,,,,,,,,,,,1.1533,,0.8,0.2,0.8,0.2,0.4,0.6,0.4,0.6,,,0.4366,,0.2,0.8,0.2,0.8,0.8,0.2,0.6,0.4,1,0
,,66c856fd76895ebe2db7c327,66fc9875c4b9a29d76467140,2024-10-02_03h21.34.849,mdp,2024.2.1,Linux aarch64,30.06253006,66fa4ebf79326e780c390304,,,,,,,,,,,,,,,,,,,,,1256.3526,1256.3528,1256.358,1257.3558,1,1,right,0.4309,,1257.36,1258.4762,1,1,right,1258.4804,1259.8933,0,0,left,1,1259.8937,1259.8938,1259.8983,1261.3678,0,44,44,44,1,0.2,0.8,0.2,0.8,,,,,,,,,,,,,,,0.5385,,0.8,0.2,0.8,0.2,0.4,0.6,0.4,0.6,,,0.8482,,0.2,0.8,0.2,0.8,0.8,0.2,0.6,0.4,1,0
,,66c856fd76895ebe2db7c327,66fc9875c4b9a29d76467140,2024-10-02_03h21.34.849,mdp,2024.2.1,Linux aarch64,30.06253006,66fa4ebf79326e780c390304,,,,,,,,,,,,,,,,,,,,,1261.3697,1261.3697,1261.3744,1262.4328,1,1,right,0.4718,,1262.438,1263.7741,1,1,right,1263.7781,1264.8728,0,0,left,1,1264.8732,1264.8733,1264.8768,1266.3713,0,45,45,45,1,0.2,0.8,0.2,0.8,,,,,,,,,,,,,,,0.78,,0.8,0.2,0.8,0.2,0.6,0.4,0.2,0.8,,,0.5233,,0.2,0.8,0.2,0.8,0.8,0.2,0.6,0.4,1,0
,,66c856fd76895ebe2db7c327,66fc9875c4b9a29d76467140,2024-10-02_03h21.34.849,mdp,2024.2.1,Linux aarch64,30.06253006,66fa4ebf79326e780c390304,,,,,,,,,,,,,,,,,,,,,1266.3735,1266.3736,1266.3783,1267.3833,1,1,right,0.4344,,1267.3872,1268.5752,1,1,right,1268.5785,1269.6271,1,1,right,0,1269.6274,1269.6275,1269.636,1271.1308,0,46,46,46,1,0.2,0.8,0.2,0.8,,,,,,,,,,,,,,,0.6406,,0.8,0.2,0.8,0.2,0.6,0.4,0.2,0.8,,,0.4818,,0.2,0.8,0.2,0.8,0.8,0.2,0.6,0.4,1,0
,,66c856fd76895ebe2db7c327,66fc9875c4b9a29d76467140,2024-10-02_03h21.34.849,mdp,2024.2.1,Linux aarch64,30.06253006,66fa4ebf79326e780c390304,,,,,,,,,,,,,,,,,,,,,1271.1337,1271.1339,1271.1405,1272.0598,0,1,left,0.3555,,1272.064,1273.2543,0,1,left,1273.2593,1274.6847,0,0,left,1,1274.685,1274.6851,1274.6896,1276.1641,0,47,47,47,1,0.2,0.8,0.2,0.8,,,,,,,,,,,,,,,0.6113,,0.8,0.2,0.8,0.2,0.6,0.4,0.2,0.8,,,0.8831,,0.2,0.8,0.2,0.8,0.8,0.2,0.6,0.4,1,0
,,66c856fd76895ebe2db7c327,66fc9875c4b9a29d76467140,2024-10-02_03h21.34.849,mdp,2024.2.1,Linux aarch64,30.06253006,66fa4ebf79326e780c390304,,,,,,,,,,,,,,,,,,,,,1276.1664,1276.1664,1276.1713,1277.0359,0,1,left,0.3219,,1277.0449,1278.7165,0,1,left,1278.7204,1280.6863,1,0,right,1,1280.6866,1280.6866,1280.6906,1282.1652,0,48,48,48,1,0.2,0.8,0.2,0.8,,,,,,,,,,,,,,,1.1293,,0.8,0.2,0.8,0.2,0.6,0.4,0.2,0.8,,,1.4058,,0.2,0.8,0.2,0.8,0.8,0.2,0.6,0.4,1,0
,,66c856fd76895ebe2db7c327,66fc9875c4b9a29d76467140,2024-10-02_03h21.34.849,mdp,2024.2.1,Linux aarch64,30.06253006,66fa4ebf79326e780c390304,,,,,,,,,,,,,,,,,,,,,1282.1673,1282.1673,1282.1718,1283.4228,1,0,right,0.6692,,1283.4276,1284.7162,1,0,right,1284.72,1287.1746,1,0,right,1,1287.1749,1287.1749,1287.1786,1288.6742,0,49,49,49,1,0.2,0.8,0.2,0.8,,,,,,,,,,,,,,,0.7498,,0.8,0.2,0.8,0.2,0.6,0.4,0.2,0.8,,,1.9044,,0.2,0.8,0.2,0.8,0.8,0.2,0.6,0.4,1,0
,,66c856fd76895ebe2db7c327,66fc9875c4b9a29d76467140,2024-10-02_03h21.34.849,mdp,2024.2.1,Linux aarch64,30.06253006,66fa4ebf79326e780c390304,,,,,,,,,,,,,,,,,,,,,,,,,,,,,,,,,,,,,,,,,,,,,,,,,,,,,,,,1288.6748,1347.1991,0,2,2,3,1,imgs/dog.png,imgs/lion.png,imgs/cat.png,imgs/giraffe.png,imgs/rabbit.png,,,,,,,,,,,,,,,,,,,,,,,,
,,66c856fd76895ebe2db7c327,66fc9875c4b9a29d76467140,2024-10-02_03h21.34.849,mdp,2024.2.1,Linux aarch64,30.06253006,66fa4ebf79326e780c390304,,,,,,,,,,,,,,3,seqs/st3seq31.csv,1347.2018,1380.9567,space,33.1933,0.0009,1381.0026,1381.0027,1381.0056,1391.637,1,1,right,10.0897,,1391.6617,1392.5046,1,1,right,1392.5086,1393.9428,0,0,left,1,1393.9432,1393.9432,1393.9475,1395.44,0,0,0,0,1,0.6,0.4,0.8,0.2,,,,,,,,,,,,,,,0.3339,,0.8,0.2,0.2,0.8,0.8,0.2,0.8,0.2,,,0.8756,,0.8,0.2,0.6,0.4,0.6,0.4,0.4,0.6,1,0
,,66c856fd76895ebe2db7c327,66fc9875c4b9a29d76467140,2024-10-02_03h21.34.849,mdp,2024.2.1,Linux aarch64,30.06253006,66fa4ebf79326e780c390304,,,,,,,,,,,,,,,,,,,,,1395.4419,1395.442,1395.4464,1396.3654,0,0,left,0.3867,,1396.3696,1397.3377,1,0,right,1397.3422,1398.3203,0,0,left,1,1398.3207,1398.3208,1398.3255,1399.8024,0,1,1,1,1,0.6,0.4,0.8,0.2,,,,,,,,,,,,,,,0.4278,,0.8,0.2,0.2,0.8,0.8,0.2,0.8,0.2,,,0.4046,,0.8,0.2,0.6,0.4,0.4,0.6,0.6,0.4,1,0
,,66c856fd76895ebe2db7c327,66fc9875c4b9a29d76467140,2024-10-02_03h21.34.849,mdp,2024.2.1,Linux aarch64,30.06253006,66fa4ebf79326e780c390304,,,,,,,,,,,,,,,,,,,,,1399.8041,1399.8042,1399.8098,1400.4885,0,0,left,0.1316,,1400.4916,1401.1152,1,1,right,1401.1206,1402.0267,0,0,left,1,1402.0271,1402.0271,1402.0313,1403.5197,0,2,2,2,1,0.6,0.4,0.8,0.2,,,,,,,,,,,,,,,0.0452,,0.8,0.2,0.2,0.8,0.8,0.2,0.8,0.2,,,0.3574,,0.8,0.2,0.6,0.4,0.4,0.6,0.6,0.4,1,0
,,66c856fd76895ebe2db7c327,66fc9875c4b9a29d76467140,2024-10-02_03h21.34.849,mdp,2024.2.1,Linux aarch64,30.06253006,66fa4ebf79326e780c390304,,,,,,,,,,,,,,,,,,,,,1403.5218,1403.5219,1403.5259,1404.4211,0,1,left,0.3206,0.0009,1404.4256,1405.3511,0,0,left,1405.3556,1406.4421,1,0,right,1,1406.4423,1406.4424,1406.4463,1407.9379,0,3,3,3,1,0.6,0.4,0.8,0.2,,,,,,,,,,,,,,,0.3759,,0.8,0.2,0.2,0.8,0.8,0.2,0.8,0.2,,,0.5326,,0.8,0.2,0.6,0.4,0.4,0.6,0.6,0.4,1,0
,,66c856fd76895ebe2db7c327,66fc9875c4b9a29d76467140,2024-10-02_03h21.34.849,mdp,2024.2.1,Linux aarch64,30.06253006,66fa4ebf79326e780c390304,,,,,,,,,,,,,,,,,,,,,1407.9401,1407.9403,1407.9451,1408.5784,1,0,right,0.0487,,1408.5824,1409.6244,0,0,left,1409.6289,1410.8001,0,1,left,0,1410.8006,1410.8007,1410.805,1412.3056,0,4,4,4,1,0.6,0.4,0.8,0.2,,,,,,,,,,,,,,,0.5015,,0.8,0.2,0.2,0.8,0.8,0.2,0.8,0.2,,,0.6131,,0.8,0.2,0.6,0.4,0.4,0.6,0.6,0.4,1,0
,,66c856fd76895ebe2db7c327,66fc9875c4b9a29d76467140,2024-10-02_03h21.34.849,mdp,2024.2.1,Linux aarch64,30.06253006,66fa4ebf79326e780c390304,,,,,,,,,,,,,,,,,,,,,1412.3075,1412.3077,1412.3118,1413.6359,1,0,right,0.7777,,1413.6415,1414.5978,1,1,right,1414.602,1416.7031,1,1,right,0,1416.7037,1416.7039,1416.7077,1418.1942,0,5,5,5,1,0.6,0.4,0.8,0.2,,,,,,,,,,,,,,,0.4233,,0.8,0.2,0.2,0.8,0.8,0.2,0.8,0.2,,,1.5185,0.0011,0.8,0.2,0.6,0.4,0.4,0.6,0.6,0.4,1,0
,,66c856fd76895ebe2db7c327,66fc9875c4b9a29d76467140,2024-10-02_03h21.34.849,mdp,2024.2.1,Linux aarch64,30.06253006,66fa4ebf79326e780c390304,,,,,,,,,,,,,,,,,,,,,1418.1965,1418.1966,1418.2012,1418.8527,0,0,left,0.0885,,1418.8564,1419.7001,0,0,left,1419.7021,1421.0292,0,0,left,1,1421.0295,1421.0295,1421.0332,1422.5053,0,6,6,6,1,0.6,0.4,0.8,0.2,,,,,,,,,,,,,,,0.2946,,0.8,0.2,0.2,0.8,0.8,0.2,0.8,0.2,,,0.7474,,0.8,0.2,0.6,0.4,0.4,0.6,0.6,0.4,1,0
,,66c856fd76895ebe2db7c327,66fc9875c4b9a29d76467140,2024-10-02_03h21.34.849,mdp,2024.2.1,Linux aarch64,30.06253006,66fa4ebf79326e780c390304,,,,,,,,,,,,,,,,,,,,,1422.5069,1422.507,1422.5108,1423.3412,0,0,left,0.2772,,1423.3451,1424.1865,0,0,left,1424.1902,1425.3529,0,0,left,1,1425.3533,1425.3533,1425.3574,1426.8566,0,7,7,7,1,0.6,0.4,0.8,0.2,,,,,,,,,,,,,,,0.2846,,0.8,0.2,0.2,0.8,0.8,0.2,0.8,0.2,,,0.5848,,0.8,0.2,0.6,0.4,0.4,0.6,0.6,0.4,1,0
,,66c856fd76895ebe2db7c327,66fc9875c4b9a29d76467140,2024-10-02_03h21.34.849,mdp,2024.2.1,Linux aarch64,30.06253006,66fa4ebf79326e780c390304,,,,,,,,,,,,,,,,,,,,,1426.8586,1426.8588,1426.8634,1427.8038,0,0,left,0.3628,,1427.8086,1428.608,0,0,left,1428.6127,1429.4331,0,0,left,1,1429.4334,1429.4334,1429.4376,1430.9321,0,8,8,8,1,0.6,0.4,0.8,0.2,,,,,,,,,,,,,,,0.2542,,0.8,0.2,0.2,0.8,0.8,0.2,0.8,0.2,,,0.2646,,0.8,0.2,0.6,0.4,0.4,0.6,0.6,0.4,1,0
,,66c856fd76895ebe2db7c327,66fc9875c4b9a29d76467140,2024-10-02_03h21.34.849,mdp,2024.2.1,Linux aarch64,30.06253006,66fa4ebf79326e780c390304,,,,,,,,,,,,,,,,,,,,,1430.9342,1430.9344,1430.9387,1431.64,0,0,left,0.1652,,1431.6431,1432.7467,0,1,left,1432.7514,1433.4748,1,0,right,1,1433.4751,1433.4752,1433.479,1434.9735,0,9,9,9,1,0.6,0.4,0.8,0.2,,,,,,,,,,,,,,,0.5351,,0.8,0.2,0.2,0.8,0.8,0.2,0.8,0.2,,,0.173,,0.8,0.2,0.6,0.4,0.4,0.6,0.6,0.4,1,0
,,66c856fd76895ebe2db7c327,66fc9875c4b9a29d76467140,2024-10-02_03h21.34.849,mdp,2024.2.1,Linux aarch64,30.06253006,66fa4ebf79326e780c390304,,,,,,,,,,,,,,,,,,,,,1434.976,1434.9762,1434.9811,1436.3703,0,1,left,0.8233,,1436.3744,1437.5631,0,0,left,1437.5669,1439.1096,0,0,left,1,1439.1099,1439.11,1439.1136,1440.6134,0,10,10,10,1,0.6,0.4,0.8,0.2,,,,,,,,,,,,,,,0.644,,0.8,0.2,0.2,0.8,0.8,0.2,0.8,0.2,,,0.9969,,0.8,0.2,0.6,0.4,0.4,0.6,0.6,0.4,1,0
,,66c856fd76895ebe2db7c327,66fc9875c4b9a29d76467140,2024-10-02_03h21.34.849,mdp,2024.2.1,Linux aarch64,30.06253006,66fa4ebf79326e780c390304,,,,,,,,,,,,,,,,,,,,,1440.6154,1440.6155,1440.62,1441.4037,0,0,left,0.237,,1441.4083,1442.579,0,0,left,1442.5825,1443.7636,0,0,left,1,1443.7648,1443.7649,1443.7708,1445.2444,0,11,11,11,1,0.6,0.4,0.8,0.2,,,,,,,,,,,,,,,0.6145,,0.8,0.2,0.2,0.8,0.8,0.2,0.8,0.2,,,0.6478,,0.8,0.2,0.6,0.4,0.4,0.6,0.6,0.4,1,0
,,66c856fd76895ebe2db7c327,66fc9875c4b9a29d76467140,2024-10-02_03h21.34.849,mdp,2024.2.1,Linux aarch64,30.06253006,66fa4ebf79326e780c390304,,,,,,,,,,,,,,,,,,,,,1445.2465,1445.2466,1445.251,1445.9443,0,0,left,0.1582,,1445.9481,1446.7337,0,1,left,1446.7379,1447.7735,0,1,left,0,1447.7738,1447.7738,1447.7775,1449.2421,0,12,12,12,1,0.6,0.4,0.8,0.2,,,,,,,,,,,,,,,0.249,,0.8,0.2,0.2,0.8,0.8,0.2,0.8,0.2,,,0.4447,,0.8,0.2,0.6,0.4,0.4,0.6,0.6,0.4,1,0
,,66c856fd76895ebe2db7c327,66fc9875c4b9a29d76467140,2024-10-02_03h21.34.849,mdp,2024.2.1,Linux aarch64,30.06253006,66fa4ebf79326e780c390304,,,,,,,,,,,,,,,,,,,,,1449.2441,1449.2443,1449.2485,1449.8492,1,0,right,0.0452,,1449.8527,1450.556,1,1,right,1450.5596,1451.6752,0,0,left,1,1451.6754,1451.6755,1451.6787,1453.1514,0,13,13,13,1,0.6,0.4,0.8,0.2,,,,,,,,,,,,,,,0.138,,0.8,0.2,0.2,0.8,0.8,0.2,0.8,0.2,,,0.5406,,0.8,0.2,0.6,0.4,0.4,0.6,0.6,0.4,1,0
,,66c856fd76895ebe2db7c327,66fc9875c4b9a29d76467140,2024-10-02_03h21.34.849,mdp,2024.2.1,Linux aarch64,30.06253006,66fa4ebf79326e780c390304,,,,,,,,,,,,,,,,,,,,,1453.1545,1453.1548,1453.1604,1453.8201,1,1,right,0.0946,,1453.8267,1454.5267,1,1,right,1454.5287,1455.5904,1,1,right,0,1455.5906,1455.5906,1455.5944,1457.0977,0,14,14,14,1,0.6,0.4,0.8,0.2,,,,,,,,,,,,,,,0.1328,0.0004,0.8,0.2,0.2,0.8,0.8,0.2,0.8,0.2,,,0.4905,,0.8,0.2,0.6,0.4,0.4,0.6,0.6,0.4,1,0
,,66c856fd76895ebe2db7c327,66fc9875c4b9a29d76467140,2024-10-02_03h21.34.849,mdp,2024.2.1,Linux aarch64,30.06253006,66fa4ebf79326e780c390304,,,,,,,,,,,,,,,,,,,,,1457.0997,1457.0998,1457.1049,1457.6962,0,1,left,0.0367,,1457.7009,1458.5948,0,0,left,1458.5989,1459.5784,0,1,left,0,1459.5787,1459.5787,1459.5824,1461.0605,0,15,15,15,1,0.6,0.4,0.8,0.2,,,,,,,,,,,,,,,0.3323,,0.8,0.2,0.2,0.8,0.8,0.2,0.8,0.2,,,0.4389,,0.8,0.2,0.6,0.4,0.4,0.6,0.6,0.4,1,0
,,66c856fd76895ebe2db7c327,66fc9875c4b9a29d76467140,2024-10-02_03h21.34.849,mdp,2024.2.1,Linux aarch64,30.06253006,66fa4ebf79326e780c390304,,,,,,,,,,,,,,,,,,,,,1461.0624,1461.0624,1461.0668,1462.5272,0,0,left,0.9362,,1462.5311,1464.8993,0,0,left,1464.9244,1465.4739,1,0,right,1,1465.4744,1465.4744,1465.4788,1466.9889,0,16,16,16,1,0.6,0.4,0.8,0.2,,,,,,,,,,,,,,,1.817,,0.8,0.2,0.2,0.8,0.2,0.8,0.2,0.8,,,0.0022,,0.8,0.2,0.6,0.4,0.4,0.6,0.6,0.4,1,0
,,66c856fd76895ebe2db7c327,66fc9875c4b9a29d76467140,2024-10-02_03h21.34.849,mdp,2024.2.1,Linux aarch64,30.06253006,66fa4ebf79326e780c390304,,,,,,,,,,,,,,,,,,,,,1466.9912,1466.9912,1466.9964,1468.8386,1,0,right,1.2729,,1468.8433,1470.0355,1,0,right,1470.04,1471.0216,1,1,right,0,1471.0218,1471.0219,1471.0255,1472.5159,0,17,17,17,1,0.6,0.4,0.8,0.2,,,,,,,,,,,,,,,0.6477,0.0009,0.8,0.2,0.2,0.8,0.2,0.8,0.2,0.8,,,0.4072,,0.6,0.4,0.2,0.8,0.4,0.6,0.6,0.4,1,0
,,66c856fd76895ebe2db7c327,66fc9875c4b9a29d76467140,2024-10-02_03h21.34.849,mdp,2024.2.1,Linux aarch64,30.06253006,66fa4ebf79326e780c390304,,,,,,,,,,,,,,,,,,,,,1472.5185,1472.5187,1472.5234,1474.1217,0,1,left,1.027,,1474.1258,1475.2023,0,0,left,1475.2064,1476.196,0,1,left,0,1476.1962,1476.1964,1476.201,1477.6976,0,18,18,18,1,0.6,0.4,0.8,0.2,,,,,,,,,,,,,,,0.529,0.0008,0.8,0.2,0.2,0.8,0.2,0.8,0.2,0.8,,,0.4495,,0.6,0.4,0.2,0.8,0.4,0.6,0.6,0.4,1,0
,,66c856fd76895ebe2db7c327,66fc9875c4b9a29d76467140,2024-10-02_03h21.34.849,mdp,2024.2.1,Linux aarch64,30.06253006,66fa4ebf79326e780c390304,,,,,,,,,,,,,,,,,,,,,1477.701,1477.7012,1477.7074,1478.5806,0,1,left,0.3107,,1478.5837,1479.7892,1,1,right,1479.793,1480.8212,0,0,left,1,1480.8215,1480.8215,1480.8254,1482.3042,0,19,19,19,1,0.6,0.4,0.8,0.2,,,,,,,,,,,,,,,0.6519,,0.8,0.2,0.2,0.8,0.2,0.8,0.2,0.8,,,0.4824,,0.6,0.4,0.2,0.8,0.4,0.6,0.6,0.4,1,0
,,66c856fd76895ebe2db7c327,66fc9875c4b9a29d76467140,2024-10-02_03h21.34.849,mdp,2024.2.1,Linux aarch64,30.06253006,66fa4ebf79326e780c390304,,,,,,,,,,,,,,,,,,,,,1482.3077,1482.3078,1482.3141,1483.111,0,1,left,0.2227,,1483.1157,1484.2555,0,1,left,1484.2599,1485.3228,0,1,left,0,1485.3232,1485.3233,1485.3279,1486.8116,0,20,20,20,1,0.6,0.4,0.8,0.2,,,,,,,,,,,,,,,0.5971,,0.8,0.2,0.2,0.8,0.2,0.8,0.2,0.8,,,0.4844,,0.6,0.4,0.2,0.8,0.4,0.6,0.6,0.4,1,0
,,66c856fd76895ebe2db7c327,66fc9875c4b9a29d76467140,2024-10-02_03h21.34.849,mdp,2024.2.1,Linux aarch64,30.06253006,66fa4ebf79326e780c390304,,,,,,,,,,,,,,,,,,,,,1486.8145,1486.8146,1486.8192,1493.3389,1,1,right,1.2849,0.0009,1493.3611,1494.4671,1,1,right,1494.4717,1495.4917,1,1,right,0,1495.492,1495.492,1495.4961,1496.9864,0,21,21,21,1,0.6,0.4,0.8,0.2,,,,,,,,,,,,,,,0.5704,,0.8,0.2,0.2,0.8,0.2,0.8,0.2,0.8,,,0.4644,,0.6,0.4,0.2,0.8,0.4,0.6,0.6,0.4,1,0
,,66c856fd76895ebe2db7c327,66fc9875c4b9a29d76467140,2024-10-02_03h21.34.849,mdp,2024.2.1,Linux aarch64,30.06253006,66fa4ebf79326e780c390304,,,,,,,,,,,,,,,,,,,,,1496.9888,1496.989,1496.9934,1497.9126,1,0,right,0.3758,,1497.9175,1499.0415,0,1,left,1499.0459,1500.1477,1,0,right,1,1500.148,1500.1481,1500.1529,1501.6455,0,22,22,22,1,0.6,0.4,0.8,0.2,,,,,,,,,,,,,,,0.5777,0.0012,0.8,0.2,0.2,0.8,0.2,0.8,0.2,0.8,,,0.5544,,0.6,0.4,0.2,0.8,0.4,0.6,0.6,0.4,1,0
,,66c856fd76895ebe2db7c327,66fc9875c4b9a29d76467140,2024-10-02_03h21.34.849,mdp,2024.2.1,Linux aarch64,30.06253006,66fa4ebf79326e780c390304,,,,,,,,,,,,,,,,,,,,,1501.6473,1501.6475,1501.6515,1502.6377,1,0,right,0.4199,,1502.6453,1503.4838,1,1,right,1503.4882,1504.3378,1,1,right,0,1504.3381,1504.3382,1504.342,1505.806,0,23,23,23,1,0.6,0.4,0.8,0.2,,,,,,,,,,,,,,,0.2985,,0.8,0.2,0.2,0.8,0.2,0.8,0.2,0.8,,,0.3089,,0.6,0.4,0.2,0.8,0.4,0.6,0.6,0.4,1,0
,,66c856fd76895ebe2db7c327,66fc9875c4b9a29d76467140,2024-10-02_03h21.34.849,mdp,2024.2.1,Linux aarch64,30.06253006,66fa4ebf79326e780c390304,,,,,,,,,,,,,,,,,,,,,1505.8078,1505.8079,1505.812,1506.5745,0,0,left,0.2096,,1506.579,1507.6795,0,0,left,1507.6828,1508.5715,0,0,left,1,1508.5719,1508.5719,1508.578,1510.0645,0,24,24,24,1,0.6,0.4,0.8,0.2,,,,,,,,,,,,,,,0.5328,0.0013,0.8,0.2,0.2,0.8,0.2,0.8,0.2,0.8,,,0.3105,,0.6,0.4,0.2,0.8,0.4,0.6,0.6,0.4,1,0
,,66c856fd76895ebe2db7c327,66fc9875c4b9a29d76467140,2024-10-02_03h21.34.849,mdp,2024.2.1,Linux aarch64,30.06253006,66fa4ebf79326e780c390304,,,,,,,,,,,,,,,,,,,,,1510.0665,1510.0666,1510.0705,1510.9935,0,1,left,0.3662,,1510.9974,1512.0731,0,1,left,1512.0781,1513.0889,0,0,left,1,1513.0892,1513.0893,1513.0936,1514.595,0,25,25,25,1,0.6,0.4,0.8,0.2,,,,,,,,,,,,,,,0.5211,,0.8,0.2,0.2,0.8,0.2,0.8,0.2,0.8,,,0.4614,,0.6,0.4,0.2,0.8,0.4,0.6,0.6,0.4,1,0
,,66c856fd76895ebe2db7c327,66fc9875c4b9a29d76467140,2024-10-02_03h21.34.849,mdp,2024.2.1,Linux aarch64,30.06253006,66fa4ebf79326e780c390304,,,,,,,,,,,,,,,,,,,,,1514.5975,1514.5976,1514.6021,1515.8833,0,0,left,0.728,,1515.888,1516.8871,0,0,left,1516.8915,1517.878,0,1,left,0,1517.8784,1517.8785,1517.8829,1519.3647,0,26,26,26,1,0.6,0.4,0.8,0.2,,,,,,,,,,,,,,,0.4633,,0.8,0.2,0.2,0.8,0.2,0.8,0.2,0.8,,,0.419,,0.6,0.4,0.2,0.8,0.4,0.6,0.6,0.4,1,0
,,66c856fd76895ebe2db7c327,66fc9875c4b9a29d76467140,2024-10-02_03h21.34.849,mdp,2024.2.1,Linux aarch64,30.06253006,66fa4ebf79326e780c390304,,,,,,,,,,,,,,,,,,,,,1519.3669,1519.367,1519.3709,1520.3057,1,1,right,0.3757,,1520.3099,1521.0711,1,1,right,1521.074,1522.824,1,0,right,1,1522.8246,1522.8247,1522.8298,1524.3068,0,27,27,27,1,0.6,0.4,0.8,0.2,,,,,,,,,,,,,,,0.2271,,0.8,0.2,0.2,0.8,0.2,0.8,0.2,0.8,,,1.2093,,0.6,0.4,0.2,0.8,0.4,0.6,0.6,0.4,1,0
,,66c856fd76895ebe2db7c327,66fc9875c4b9a29d76467140,2024-10-02_03h21.34.849,mdp,2024.2.1,Linux aarch64,30.06253006,66fa4ebf79326e780c390304,,,,,,,,,,,,,,,,,,,,,1524.3093,1524.3093,1524.3145,1525.4703,1,0,right,0.62,,1525.4738,1526.2085,1,1,right,1526.2121,1527.275,1,0,right,1,1527.2755,1527.2756,1527.2799,1528.7719,0,28,28,28,1,0.6,0.4,0.8,0.2,,,,,,,,,,,,,,,0.1786,,0.8,0.2,0.2,0.8,0.2,0.8,0.2,0.8,,,0.4903,,0.6,0.4,0.2,0.8,0.4,0.6,0.6,0.4,1,0
,,66c856fd76895ebe2db7c327,66fc9875c4b9a29d76467140,2024-10-02_03h21.34.849,mdp,2024.2.1,Linux aarch64,30.06253006,66fa4ebf79326e780c390304,,,,,,,,,,,,,,,,,,,,,1528.7737,1528.7739,1528.7775,1529.3597,1,1,right,0.0019,,1529.364,1530.3474,1,1,right,1530.3508,1531.4495,1,0,right,1,1531.4499,1531.4499,1531.4534,1532.9504,0,29,29,29,1,0.6,0.4,0.8,0.2,,,,,,,,,,,,,,,0.426,,0.8,0.2,0.2,0.8,0.2,0.8,0.2,0.8,,,0.5236,0.0009,0.6,0.4,0.2,0.8,0.4,0.6,0.6,0.4,1,0
,,66c856fd76895ebe2db7c327,66fc9875c4b9a29d76467140,2024-10-02_03h21.34.849,mdp,2024.2.1,Linux aarch64,30.06253006,66fa4ebf79326e780c390304,,,,,,,,,,,,,,,,,,,,,1532.9526,1532.9527,1532.9576,1533.8431,1,0,right,0.3077,,1533.847,1535.0409,1,1,right,1535.0455,1536.2554,1,0,right,1,1536.2557,1536.2557,1536.2603,1537.7592,0,30,30,30,1,0.6,0.4,0.8,0.2,,,,,,,,,,,,,,,0.6315,,0.8,0.2,0.2,0.8,0.2,0.8,0.2,0.8,,,0.6282,,0.6,0.4,0.2,0.8,0.4,0.6,0.6,0.4,1,0
,,66c856fd76895ebe2db7c327,66fc9875c4b9a29d76467140,2024-10-02_03h21.34.849,mdp,2024.2.1,Linux aarch64,30.06253006,66fa4ebf79326e780c390304,,,,,,,,,,,,,,,,,,,,,1537.7616,1537.7616,1537.7666,1538.7665,1,0,right,0.4448,,1538.7702,1539.7184,1,1,right,1539.7244,1540.7579,1,0,right,1,1540.7587,1540.7589,1540.7643,1542.2647,0,31,31,31,1,0.8,0.2,0.4,0.6,,,,,,,,,,,,,,,0.3989,,0.8,0.2,0.2,0.8,0.2,0.8,0.2,0.8,,,0.4854,,0.6,0.4,0.2,0.8,0.4,0.6,0.6,0.4,1,0
,,66c856fd76895ebe2db7c327,66fc9875c4b9a29d76467140,2024-10-02_03h21.34.849,mdp,2024.2.1,Linux aarch64,30.06253006,66fa4ebf79326e780c390304,,,,,,,,,,,,,,,,,,,,,1542.2667,1542.2668,1542.2748,1543.1594,1,1,right,0.3573,,1543.1635,1543.9784,1,1,right,1543.9825,1544.956,1,0,right,1,1544.9563,1544.9563,1544.9599,1546.4527,0,32,32,32,1,0.8,0.2,0.4,0.6,,,,,,,,,,,,,,,0.2483,,0.8,0.2,0.2,0.8,0.2,0.8,0.2,0.8,,,0.4132,,0.6,0.4,0.2,0.8,0.4,0.6,0.6,0.4,1,0
,,66c856fd76895ebe2db7c327,66fc9875c4b9a29d76467140,2024-10-02_03h21.34.849,mdp,2024.2.1,Linux aarch64,30.06253006,66fa4ebf79326e780c390304,,,,,,,,,,,,,,,,,,,,,1546.4548,1546.4549,1546.4594,1547.1255,1,0,right,0.1111,,1547.13,1548.0199,1,0,right,1548.0242,1548.8052,1,0,right,1,1548.8057,1548.8057,1548.8101,1550.2917,0,33,33,33,1,0.8,0.2,0.4,0.6,,,,,,,,,,,,,,,0.3426,,0.8,0.2,0.2,0.8,0.2,0.8,0.2,0.8,,,0.2121,,0.6,0.4,0.2,0.8,0.4,0.6,0.6,0.4,1,0
,,66c856fd76895ebe2db7c327,66fc9875c4b9a29d76467140,2024-10-02_03h21.34.849,mdp,2024.2.1,Linux aarch64,30.06253006,66fa4ebf79326e780c390304,,,,,,,,,,,,,,,,,,,,,1550.2936,1550.2937,1550.2975,1551.4582,1,0,right,0.5742,,1551.462,1553.0971,1,0,right,1553.1015,1554.1232,1,1,right,0,1554.1236,1554.1236,1554.128,1555.6239,0,34,34,34,1,0.8,0.2,0.4,0.6,,,,,,,,,,,,,,,1.0559,,0.8,0.2,0.2,0.8,0.2,0.8,0.2,0.8,,,0.4654,,0.6,0.4,0.2,0.8,0.4,0.6,0.6,0.4,1,0
,,66c856fd76895ebe2db7c327,66fc9875c4b9a29d76467140,2024-10-02_03h21.34.849,mdp,2024.2.1,Linux aarch64,30.06253006,66fa4ebf79326e780c390304,,,,,,,,,,,,,,,,,,,,,1555.6263,1555.6265,1555.6315,1556.5087,1,0,right,0.3156,,1556.5137,1557.2423,1,1,right,1557.2468,1558.8045,1,1,right,0,1558.8048,1558.8049,1558.8085,1560.2724,0,35,35,35,1,0.8,0.2,0.4,0.6,,,,,,,,,,,,,,,0.1693,,0.8,0.2,0.2,0.8,0.2,0.8,0.2,0.8,,,0.9735,,0.6,0.4,0.2,0.8,0.4,0.6,0.6,0.4,1,0
,,66c856fd76895ebe2db7c327,66fc9875c4b9a29d76467140,2024-10-02_03h21.34.849,mdp,2024.2.1,Linux aarch64,30.06253006,66fa4ebf79326e780c390304,,,,,,,,,,,,,,,,,,,,,1560.2758,1560.2761,1560.2832,1561.6259,1,1,right,0.7627,,1561.63,1562.4878,1,0,right,1562.4916,1563.4704,1,0,right,1,1563.4707,1563.4707,1563.4747,1564.9687,0,36,36,36,1,0.8,0.2,0.4,0.6,,,,,,,,,,,,,,,0.2976,,0.8,0.2,0.2,0.8,0.6,0.4,0.8,0.2,,,0.3996,,0.6,0.4,0.2,0.8,0.4,0.6,0.6,0.4,1,0
,,66c856fd76895ebe2db7c327,66fc9875c4b9a29d76467140,2024-10-02_03h21.34.849,mdp,2024.2.1,Linux aarch64,30.06253006,66fa4ebf79326e780c390304,,,,,,,,,,,,,,,,,,,,,1564.9707,1564.9708,1564.974,1566.0993,0,0,left,0.5673,,1566.1036,1566.9016,0,0,left,1566.9066,1567.5832,1,1,right,0,1567.5836,1567.5836,1567.588,1569.0976,0,37,37,37,1,0.8,0.2,0.4,0.6,,,,,,,,,,,,,,,0.2211,,0.8,0.2,0.2,0.8,0.6,0.4,0.8,0.2,,,0.1291,,0.6,0.4,0.2,0.8,0.4,0.6,0.6,0.4,1,0
,,66c856fd76895ebe2db7c327,66fc9875c4b9a29d76467140,2024-10-02_03h21.34.849,mdp,2024.2.1,Linux aarch64,30.06253006,66fa4ebf79326e780c390304,,,,,,,,,,,,,,,,,,,,,1569.1006,1569.1008,1569.1055,1570.1282,1,0,right,0.4617,,1570.1329,1571.0969,1,1,right,1571.1007,1572.0812,1,0,right,1,1572.0814,1572.0815,1572.0852,1573.5943,0,38,38,38,1,0.8,0.2,0.4,0.6,,,,,,,,,,,,,,,0.3993,,0.8,0.2,0.2,0.8,0.6,0.4,0.8,0.2,,,0.401,,0.6,0.4,0.2,0.8,0.4,0.6,0.6,0.4,1,0
,,66c856fd76895ebe2db7c327,66fc9875c4b9a29d76467140,2024-10-02_03h21.34.849,mdp,2024.2.1,Linux aarch64,30.06253006,66fa4ebf79326e780c390304,,,,,,,,,,,,,,,,,,,,,1573.5969,1573.597,1573.6018,1574.5286,1,0,right,0.3513,,1574.5332,1576.1407,1,1,right,1576.1449,1577.0477,1,0,right,1,1577.0481,1577.0481,1577.052,1578.5282,0,39,39,39,1,0.8,0.2,0.4,0.6,,,,,,,,,,,,,,,1.0591,,0.8,0.2,0.2,0.8,0.6,0.4,0.8,0.2,,,0.3597,,0.6,0.4,0.2,0.8,0.4,0.6,0.6,0.4,1,0
,,66c856fd76895ebe2db7c327,66fc9875c4b9a29d76467140,2024-10-02_03h21.34.849,mdp,2024.2.1,Linux aarch64,30.06253006,66fa4ebf79326e780c390304,,,,,,,,,,,,,,,,,,,,,1578.5305,1578.5307,1578.5356,1579.5395,1,0,right,0.4486,,1579.544,1580.3178,1,1,right,1580.322,1581.1336,1,0,right,1,1581.1338,1581.134,1581.1371,1582.6431,0,40,40,40,1,0.8,0.2,0.4,0.6,,,,,,,,,,,,,,,0.2382,,0.8,0.2,0.2,0.8,0.6,0.4,0.8,0.2,,,0.2623,,0.6,0.4,0.2,0.8,0.4,0.6,0.6,0.4,1,0
,,66c856fd76895ebe2db7c327,66fc9875c4b9a29d76467140,2024-10-02_03h21.34.849,mdp,2024.2.1,Linux aarch64,30.06253006,66fa4ebf79326e780c390304,,,,,,,,,,,,,,,,,,,,,1582.644,1582.6441,1582.646,1583.8002,1,1,right,0.6085,,1583.8049,1584.5702,1,0,right,1584.5739,1585.294,1,1,right,0,1585.2942,1585.2942,1585.2963,1586.7729,0,41,41,41,1,0.8,0.2,0.4,0.6,,,,,,,,,,,,,,,0.2034,,0.8,0.2,0.2,0.8,0.6,0.4,0.8,0.2,,,0.1844,,0.6,0.4,0.2,0.8,0.4,0.6,0.6,0.4,1,0
,,66c856fd76895ebe2db7c327,66fc9875c4b9a29d76467140,2024-10-02_03h21.34.849,mdp,2024.2.1,Linux aarch64,30.06253006,66fa4ebf79326e780c390304,,,,,,,,,,,,,,,,,,,,,1586.7753,1586.7755,1586.7814,1588.0591,0,0,left,0.7208,,1588.063,1588.7555,0,0,left,1588.7599,1589.4577,0,1,left,0,1589.458,1589.458,1589.4616,1590.9509,0,42,42,42,1,0.8,0.2,0.4,0.6,,,,,,,,,,,,,,,0.1403,,0.8,0.2,0.2,0.8,0.6,0.4,0.8,0.2,,,0.1654,,0.6,0.4,0.2,0.8,0.4,0.6,0.6,0.4,1,0
,,66c856fd76895ebe2db7c327,66fc9875c4b9a29d76467140,2024-10-02_03h21.34.849,mdp,2024.2.1,Linux aarch64,30.06253006,66fa4ebf79326e780c390304,,,,,,,,,,,,,,,,,,,,,1590.9536,1590.9537,1590.9588,1591.8971,1,0,right,0.3996,,1591.9016,1592.5446,1,1,right,1592.549,1593.3931,1,1,right,0,1593.3935,1593.3936,1593.398,1594.8824,0,43,43,43,1,0.8,0.2,0.4,0.6,,,,,,,,,,,,,,,0.0864,,0.8,0.2,0.2,0.8,0.6,0.4,0.8,0.2,,,0.288,,0.6,0.4,0.2,0.8,0.4,0.6,0.6,0.4,1,0
,,66c856fd76895ebe2db7c327,66fc9875c4b9a29d76467140,2024-10-02_03h21.34.849,mdp,2024.2.1,Linux aarch64,30.06253006,66fa4ebf79326e780c390304,,,,,,,,,,,,,,,,,,,,,1594.8846,1594.8849,1594.8919,1595.5609,0,0,left,0.1155,,1595.5654,1596.3082,0,1,left,1596.3145,1596.9448,0,1,left,0,1596.9452,1596.9452,1596.9489,1598.4411,0,44,44,44,1,0.8,0.2,0.4,0.6,,,,,,,,,,,,,,,0.2036,,0.8,0.2,0.2,0.8,0.6,0.4,0.8,0.2,,,0.092,,0.6,0.4,0.2,0.8,0.4,0.6,0.6,0.4,1,0
,,66c856fd76895ebe2db7c327,66fc9875c4b9a29d76467140,2024-10-02_03h21.34.849,mdp,2024.2.1,Linux aarch64,30.06253006,66fa4ebf79326e780c390304,,,,,,,,,,,,,,,,,,,,,1598.4426,1598.4427,1598.4459,1599.1384,0,0,left,0.1316,,1599.1422,1600.5854,1,1,right,1600.5893,1601.5661,1,0,right,1,1601.5663,1601.5664,1601.57,1603.0535,0,45,45,45,1,0.8,0.2,0.4,0.6,,,,,,,,,,,,,,,0.8906,,0.2,0.8,0.8,0.2,0.6,0.4,0.8,0.2,,,0.4471,,0.6,0.4,0.2,0.8,0.4,0.6,0.6,0.4,1,0
,,66c856fd76895ebe2db7c327,66fc9875c4b9a29d76467140,2024-10-02_03h21.34.849,mdp,2024.2.1,Linux aarch64,30.06253006,66fa4ebf79326e780c390304,,,,,,,,,,,,,,,,,,,,,1603.0569,1603.0571,1603.0629,1603.8651,1,1,right,0.2216,,1603.869,1604.6078,1,0,right,1604.6127,1605.7373,1,1,right,0,1605.7377,1605.7377,1605.742,1607.2025,0,46,46,46,1,0.8,0.2,0.4,0.6,,,,,,,,,,,,,,,0.1692,,0.2,0.8,0.8,0.2,0.6,0.4,0.8,0.2,,,0.5753,,0.6,0.4,0.2,0.8,0.4,0.6,0.6,0.4,1,0
,,66c856fd76895ebe2db7c327,66fc9875c4b9a29d76467140,2024-10-02_03h21.34.849,mdp,2024.2.1,Linux aarch64,30.06253006,66fa4ebf79326e780c390304,,,,,,,,,,,,,,,,,,,,,1607.2051,1607.2052,1607.2096,1608.4537,0,0,left,0.6903,,1608.4576,1609.2943,0,1,left,1609.2986,1610.5063,0,1,left,0,1610.5067,1610.5067,1610.511,1612.0098,0,47,47,47,1,0.8,0.2,0.4,0.6,,,,,,,,,,,,,,,0.2689,,0.2,0.8,0.8,0.2,0.6,0.4,0.8,0.2,,,0.6312,,0.6,0.4,0.2,0.8,0.4,0.6,0.6,0.4,1,0
,,66c856fd76895ebe2db7c327,66fc9875c4b9a29d76467140,2024-10-02_03h21.34.849,mdp,2024.2.1,Linux aarch64,30.06253006,66fa4ebf79326e780c390304,,,,,,,,,,,,,,,,,,,,,1612.0123,1612.0126,1612.0183,1613.4771,1,0,right,0.8884,,1613.4809,1614.1636,1,1,right,1614.1674,1615.1929,1,0,right,1,1615.1932,1615.1933,1615.1973,1616.6746,0,48,48,48,1,0.8,0.2,0.4,0.6,,,,,,,,,,,,,,,0.1283,,0.2,0.8,0.8,0.2,0.6,0.4,0.8,0.2,,,0.4456,,0.6,0.4,0.2,0.8,0.4,0.6,0.6,0.4,1,0
,,66c856fd76895ebe2db7c327,66fc9875c4b9a29d76467140,2024-10-02_03h21.34.849,mdp,2024.2.1,Linux aarch64,30.06253006,66fa4ebf79326e780c390304,,,,,,,,,,,,,,,,,,,,,1616.6766,1616.6766,1616.6805,1617.6795,1,1,right,0.431,,1617.6839,1618.6766,1,1,right,1618.6809,1619.6209,1,0,right,1,1619.6212,1619.6212,1619.6251,1621.1242,0,49,49,49,1,0.8,0.2,0.4,0.6,,,,,,,,,,,,,,,0.4406,,0.2,0.8,0.8,0.2,0.6,0.4,0.8,0.2,,,0.386,,0.6,0.4,0.2,0.8,0.4,0.6,0.6,0.4,1,0
,,66c856fd76895ebe2db7c327,66fc9875c4b9a29d76467140,2024-10-02_03h21.34.849,mdp,2024.2.1,Linux aarch64,30.06253006,66fa4ebf79326e780c390304,,,,,,,,,,,,,,,,,,,,,,,,,,,,,,,,,,,,,,,,,,,,,,,,,,,,,,,,1621.125,1679.6395,0,3,3,0,1,imgs/kangaroo.png,imgs/lion.png,imgs/horse.png,imgs/rabbit.png,imgs/bear.png,,,,,,,,,,,,,,,,,,,,,,,,
,,66c856fd76895ebe2db7c327,66fc9875c4b9a29d76467140,2024-10-02_03h21.34.849,mdp,2024.2.1,Linux aarch64,30.06253006,66fa4ebf79326e780c390304,,,,,,,,,,,,,,1,seqs/st1seq12.csv,1679.6757,1681.5535,space,1.3043,,1681.5713,1681.5713,1681.5745,1686.5914,0,1,left,4.4426,,1686.5954,1686.5982,1,1,,1686.6005,1686.6028,1,0,,0,1686.6029,1686.6029,1686.605,1688.113,0,0,0,0,1,0.8,0.2,0.6,0.4,1,0,,,,,,,,,,,,,,,,,,,,,,,,,,,,,,,,,,,,
,,66c856fd76895ebe2db7c327,66fc9875c4b9a29d76467140,2024-10-02_03h21.34.849,mdp,2024.2.1,Linux aarch64,30.06253006,66fa4ebf79326e780c390304,,,,,,,,,,,,,,,,,,,,,1688.115,1688.1153,1688.1199,1688.6895,1,1,right,0.0324,,1688.6935,1688.6974,1,0,,1688.7017,1688.7062,1,1,,0,1688.7066,1688.7066,1688.7106,1690.199,0,1,1,1,1,0.8,0.2,0.6,0.4,1,0,,,,,,,,,,,,,,,,,,,,,,,,,,,,,,,,,,,,
,,66c856fd76895ebe2db7c327,66fc9875c4b9a29d76467140,2024-10-02_03h21.34.849,mdp,2024.2.1,Linux aarch64,30.06253006,66fa4ebf79326e780c390304,,,,,,,,,,,,,,,,,,,,,1690.2008,1690.201,1690.2054,1691.8913,1,0,right,1.1119,,1691.8958,1691.9001,1,1,,1691.9041,1691.9088,1,0,,1,1691.9093,1691.9093,1691.9141,1693.4054,0,2,2,2,1,0.8,0.2,0.6,0.4,1,0,,,,,,,,,,,,,,,,,,,,,,,,,,,,,,,,,,,,
,,66c856fd76895ebe2db7c327,66fc9875c4b9a29d76467140,2024-10-02_03h21.34.849,mdp,2024.2.1,Linux aarch64,30.06253006,66fa4ebf79326e780c390304,,,,,,,,,,,,,,,,,,,,,1693.4066,1693.4066,1693.4098,1694.5552,1,1,right,0.5869,,1694.5591,1694.5634,1,0,,1694.5671,1694.5719,1,1,,0,1694.5722,1694.5728,1694.5756,1696.0602,0,3,3,3,1,0.8,0.2,0.6,0.4,1,0,,,,,,,,,,,,,,,,,,,,,,,,,,,,,,,,,,,,
,,66c856fd76895ebe2db7c327,66fc9875c4b9a29d76467140,2024-10-02_03h21.34.849,mdp,2024.2.1,Linux aarch64,30.06253006,66fa4ebf79326e780c390304,,,,,,,,,,,,,,,,,,,,,1696.0621,1696.0622,1696.0663,1697.3973,0,0,left,0.7806,,1697.4012,1697.4049,1,1,,1697.4088,1697.4137,1,0,,1,1697.4139,1697.4139,1697.4165,1698.9081,0,4,4,4,1,0.8,0.2,0.6,0.4,1,0,,,,,,,,,,,,,,,,,,,,,,,,,,,,,,,,,,,,
,,66c856fd76895ebe2db7c327,66fc9875c4b9a29d76467140,2024-10-02_03h21.34.849,mdp,2024.2.1,Linux aarch64,30.06253006,66fa4ebf79326e780c390304,,,,,,,,,,,,,,,,,,,,,1698.9101,1698.9102,1698.9146,1700.0129,0,1,left,0.551,,1700.0166,1700.0206,1,0,,1700.0243,1700.0302,1,0,,0,1700.0306,1700.0309,1700.0347,1701.5299,0,5,5,5,1,0.8,0.2,0.6,0.4,1,0,,,,,,,,,,,,,,,,,,,,,,,,,,,,,,,,,,,,
,,66c856fd76895ebe2db7c327,66fc9875c4b9a29d76467140,2024-10-02_03h21.34.849,mdp,2024.2.1,Linux aarch64,30.06253006,66fa4ebf79326e780c390304,,,,,,,,,,,,,,,,,,,,,1701.5317,1701.5317,1701.5369,1702.7623,1,0,right,0.6786,0.0012,1702.7662,1702.7706,1,0,,1702.7746,1702.777,1,1,,1,1702.7772,1702.7772,1702.7792,1704.2596,0,6,6,6,1,0.8,0.2,0.6,0.4,1,0,,,,,,,,,,,,,,,,,,,,,,,,,,,,,,,,,,,,
,,66c856fd76895ebe2db7c327,66fc9875c4b9a29d76467140,2024-10-02_03h21.34.849,mdp,2024.2.1,Linux aarch64,30.06253006,66fa4ebf79326e780c390304,,,,,,,,,,,,,,,,,,,,,1704.2612,1704.2613,1704.2652,1705.5718,1,0,right,0.7423,0.0011,1705.5762,1705.5805,1,0,,1705.5843,1705.5867,1,1,,1,1705.5868,1705.5868,1705.5889,1707.0697,0,7,7,7,1,0.8,0.2,0.6,0.4,1,0,,,,,,,,,,,,,,,,,,,,,,,,,,,,,,,,,,,,
,,66c856fd76895ebe2db7c327,66fc9875c4b9a29d76467140,2024-10-02_03h21.34.849,mdp,2024.2.1,Linux aarch64,30.06253006,66fa4ebf79326e780c390304,,,,,,,,,,,,,,,,,,,,,1707.0715,1707.0716,1707.0761,1708.568,0,0,left,0.9276,,1708.5717,1708.5764,1,0,,1708.5793,1708.5824,1,0,,1,1708.5825,1708.5826,1708.5855,1710.0721,0,8,8,8,1,0.8,0.2,0.6,0.4,1,0,,,,,,,,,,,,,,,,,,,,,,,,,,,,,,,,,,,,
,,66c856fd76895ebe2db7c327,66fc9875c4b9a29d76467140,2024-10-02_03h21.34.849,mdp,2024.2.1,Linux aarch64,30.06253006,66fa4ebf79326e780c390304,,,,,,,,,,,,,,,,,,,,,1710.0739,1710.074,1710.0786,1711.21,0,1,left,0.5885,,1711.2137,1711.2179,1,1,,1711.2223,1711.2269,1,1,,0,1711.2273,1711.2273,1711.2316,1712.7167,0,9,9,9,1,0.6,0.4,0.4,0.6,1,0,,,,,,,,,,,,,,,,,,,,,,,,,,,,,,,,,,,,
,,66c856fd76895ebe2db7c327,66fc9875c4b9a29d76467140,2024-10-02_03h21.34.849,mdp,2024.2.1,Linux aarch64,30.06253006,66fa4ebf79326e780c390304,,,,,,,,,,,,,,,,,,,,,1712.7182,1712.7183,1712.7218,1713.6826,1,0,right,0.428,,1713.6865,1713.6902,1,1,,1713.6938,1713.6993,1,1,,1,1713.6996,1713.6997,1713.7045,1715.201,0,10,10,10,1,0.6,0.4,0.4,0.6,1,0,,,,,,,,,,,,,,,,,,,,,,,,,,,,,,,,,,,,
,,66c856fd76895ebe2db7c327,66fc9875c4b9a29d76467140,2024-10-02_03h21.34.849,mdp,2024.2.1,Linux aarch64,30.06253006,66fa4ebf79326e780c390304,,,,,,,,,,,,,,,,,,,,,1715.2027,1715.2028,1715.2088,1716.1965,1,1,right,0.4453,,1716.2003,1716.2041,1,0,,1716.2084,1716.2142,1,1,,0,1716.2144,1716.2145,1716.2169,1717.7149,0,11,11,11,1,0.6,0.4,0.4,0.6,1,0,,,,,,,,,,,,,,,,,,,,,,,,,,,,,,,,,,,,
,,66c856fd76895ebe2db7c327,66fc9875c4b9a29d76467140,2024-10-02_03h21.34.849,mdp,2024.2.1,Linux aarch64,30.06253006,66fa4ebf79326e780c390304,,,,,,,,,,,,,,,,,,,,,1717.7167,1717.7168,1717.7218,1719.0935,0,1,left,0.7928,0.0008,1719.0973,1719.1013,1,0,,1719.1059,1719.1101,1,0,,0,1719.1104,1719.1104,1719.1135,1720.6083,0,12,12,12,1,0.6,0.4,0.4,0.6,1,0,,,,,,,,,,,,,,,,,,,,,,,,,,,,,,,,,,,,
,,66c856fd76895ebe2db7c327,66fc9875c4b9a29d76467140,2024-10-02_03h21.34.849,mdp,2024.2.1,Linux aarch64,30.06253006,66fa4ebf79326e780c390304,,,,,,,,,,,,,,,,,,,,,1720.61,1720.6101,1720.6145,1721.3722,1,1,right,0.1768,,1721.3762,1721.3807,1,0,,1721.3865,1721.3931,1,1,,0,1721.3933,1721.3933,1721.3957,1722.8832,0,13,13,13,1,0.6,0.4,0.4,0.6,1,0,,,,,,,,,,,,,,,,,,,,,,,,,,,,,,,,,,,,
,,66c856fd76895ebe2db7c327,66fc9875c4b9a29d76467140,2024-10-02_03h21.34.849,mdp,2024.2.1,Linux aarch64,30.06253006,66fa4ebf79326e780c390304,,,,,,,,,,,,,,,,,,,,,1722.8847,1722.8848,1722.8885,1723.7825,0,0,left,0.3535,,1723.7864,1723.7901,1,1,,1723.7943,1723.7986,1,1,,1,1723.7989,1723.7989,1723.803,1725.2991,0,14,14,14,1,0.6,0.4,0.4,0.6,1,0,,,,,,,,,,,,,,,,,,,,,,,,,,,,,,,,,,,,
,,66c856fd76895ebe2db7c327,66fc9875c4b9a29d76467140,2024-10-02_03h21.34.849,mdp,2024.2.1,Linux aarch64,30.06253006,66fa4ebf79326e780c390304,,,,,,,,,,,,,,,,,,,,,1725.3008,1725.3009,1725.3053,1726.3936,0,0,left,0.5162,,1726.3978,1726.4023,1,1,,1726.4075,1726.4135,1,1,,1,1726.4142,1726.4145,1726.4195,1727.8835,0,15,15,15,1,0.6,0.4,0.4,0.6,1,0,,,,,,,,,,,,,,,,,,,,,,,,,,,,,,,,,,,,
,,66c856fd76895ebe2db7c327,66fc9875c4b9a29d76467140,2024-10-02_03h21.34.849,mdp,2024.2.1,Linux aarch64,30.06253006,66fa4ebf79326e780c390304,,,,,,,,,,,,,,,,,,,,,1727.8856,1727.8858,1727.8909,1729.1136,0,0,left,0.6565,,1729.1184,1729.1234,1,0,,1729.1274,1729.1316,1,0,,1,1729.1318,1729.1319,1729.1348,1730.615,0,16,16,16,1,0.8,0.2,0.8,0.2,1,0,,,,,,,,,,,,,,,,,,,,,,,,,,,,,,,,,,,,
,,66c856fd76895ebe2db7c327,66fc9875c4b9a29d76467140,2024-10-02_03h21.34.849,mdp,2024.2.1,Linux aarch64,30.06253006,66fa4ebf79326e780c390304,,,,,,,,,,,,,,,,,,,,,1730.6167,1730.6168,1730.6219,1732.8872,0,0,left,1.7224,,1732.8919,1732.8948,1,1,,1732.8967,1732.8987,1,0,,1,1732.8988,1732.8989,1732.901,1734.3898,0,17,17,17,1,0.8,0.2,0.8,0.2,1,0,,,,,,,,,,,,,,,,,,,,,,,,,,,,,,,,,,,,
,,66c856fd76895ebe2db7c327,66fc9875c4b9a29d76467140,2024-10-02_03h21.34.849,mdp,2024.2.1,Linux aarch64,30.06253006,66fa4ebf79326e780c390304,,,,,,,,,,,,,,,,,,,,,1734.3915,1734.3917,1734.3967,1735.4588,0,1,left,0.4828,,1735.467,1735.4718,1,0,,1735.4752,1735.4778,1,0,,0,1735.4779,1735.478,1735.4803,1736.966,0,18,18,18,1,0.8,0.2,0.8,0.2,1,0,,,,,,,,,,,,,,,,,,,,,,,,,,,,,,,,,,,,
,,66c856fd76895ebe2db7c327,66fc9875c4b9a29d76467140,2024-10-02_03h21.34.849,mdp,2024.2.1,Linux aarch64,30.06253006,66fa4ebf79326e780c390304,,,,,,,,,,,,,,,,,,,,,1736.9677,1736.9678,1736.9725,1738.0049,1,1,right,0.4869,,1738.0084,1738.012,1,0,,1738.0162,1738.0209,1,0,,0,1738.0211,1738.0214,1738.0266,1739.4975,0,19,19,19,1,0.8,0.2,0.8,0.2,1,0,,,,,,,,,,,,,,,,,,,,,,,,,,,,,,,,,,,,
,,66c856fd76895ebe2db7c327,66fc9875c4b9a29d76467140,2024-10-02_03h21.34.849,mdp,2024.2.1,Linux aarch64,30.06253006,66fa4ebf79326e780c390304,,,,,,,,,,,,,,,,,,,,,1739.4991,1739.4992,1739.5038,1740.3779,0,0,left,0.3216,,1740.3816,1740.3854,1,1,,1740.3891,1740.3946,1,0,,1,1740.3947,1740.3947,1740.3977,1741.8701,0,20,20,20,1,0.4,0.6,0.6,0.4,1,0,,,,,,,,,,,,,,,,,,,,,,,,,,,,,,,,,,,,
,,66c856fd76895ebe2db7c327,66fc9875c4b9a29d76467140,2024-10-02_03h21.34.849,mdp,2024.2.1,Linux aarch64,30.06253006,66fa4ebf79326e780c390304,,,,,,,,,,,,,,,,,,,,,1741.8719,1741.8721,1741.8766,1742.9016,0,1,left,0.4486,,1742.9114,1742.9157,1,0,,1742.9206,1742.9257,1,1,,0,1742.9261,1742.9262,1742.9322,1744.4301,0,21,21,21,1,0.4,0.6,0.6,0.4,1,0,,,,,,,,,,,,,,,,,,,,,,,,,,,,,,,,,,,,
,,66c856fd76895ebe2db7c327,66fc9875c4b9a29d76467140,2024-10-02_03h21.34.849,mdp,2024.2.1,Linux aarch64,30.06253006,66fa4ebf79326e780c390304,,,,,,,,,,,,,,,,,,,,,1744.4321,1744.4324,1744.4372,1745.3051,1,0,right,0.3073,,1745.309,1745.3129,1,1,,1745.3171,1745.3216,1,0,,1,1745.3219,1745.322,1745.3265,1746.829,0,22,22,22,1,0.6,0.4,0.4,0.6,1,0,,,,,,,,,,,,,,,,,,,,,,,,,,,,,,,,,,,,
,,66c856fd76895ebe2db7c327,66fc9875c4b9a29d76467140,2024-10-02_03h21.34.849,mdp,2024.2.1,Linux aarch64,30.06253006,66fa4ebf79326e780c390304,,,,,,,,,,,,,,,,,,,,,1746.8307,1746.8308,1746.8351,1748.2728,0,0,left,0.8746,0.001,1748.2773,1748.2818,1,0,,1748.2861,1748.2901,1,1,,1,1748.2904,1748.2905,1748.2937,1749.7953,0,23,23,23,1,0.6,0.4,0.4,0.6,1,0,,,,,,,,,,,,,,,,,,,,,,,,,,,,,,,,,,,,
,,66c856fd76895ebe2db7c327,66fc9875c4b9a29d76467140,2024-10-02_03h21.34.849,mdp,2024.2.1,Linux aarch64,30.06253006,66fa4ebf79326e780c390304,,,,,,,,,,,,,,,,,,,,,1749.797,1749.7971,1749.8013,1750.9251,0,1,left,0.5584,,1750.9287,1750.9325,1,1,,1750.9363,1750.9411,1,1,,0,1750.9413,1750.9413,1750.9446,1752.4216,0,24,24,24,1,0.6,0.4,0.4,0.6,1,0,,,,,,,,,,,,,,,,,,,,,,,,,,,,,,,,,,,,
,,66c856fd76895ebe2db7c327,66fc9875c4b9a29d76467140,2024-10-02_03h21.34.849,mdp,2024.2.1,Linux aarch64,30.06253006,66fa4ebf79326e780c390304,,,,,,,,,,,,,,,,,,,,,1752.4231,1752.4231,1752.4273,1753.2105,0,0,left,0.2266,,1753.2143,1753.2212,1,1,,1753.226,1753.2308,1,0,,1,1753.2312,1753.2313,1753.2371,1754.7079,0,25,25,25,1,0.6,0.4,0.4,0.6,1,0,,,,,,,,,,,,,,,,,,,,,,,,,,,,,,,,,,,,
,,66c856fd76895ebe2db7c327,66fc9875c4b9a29d76467140,2024-10-02_03h21.34.849,mdp,2024.2.1,Linux aarch64,30.06253006,66fa4ebf79326e780c390304,,,,,,,,,,,,,,,,,,,,,1754.7097,1754.7099,1754.7145,1755.987,0,1,left,0.7308,,1755.991,1755.996,1,0,,1756.0002,1756.0045,1,1,,0,1756.0048,1756.0049,1756.0095,1757.4841,0,26,26,26,1,0.6,0.4,0.4,0.6,1,0,,,,,,,,,,,,,,,,,,,,,,,,,,,,,,,,,,,,
,,66c856fd76895ebe2db7c327,66fc9875c4b9a29d76467140,2024-10-02_03h21.34.849,mdp,2024.2.1,Linux aarch64,30.06253006,66fa4ebf79326e780c390304,,,,,,,,,,,,,,,,,,,,,1757.4857,1757.4858,1757.4901,1758.3453,0,0,left,0.3154,,1758.35,1758.3532,1,1,,1758.3562,1758.3593,1,0,,1,1758.3595,1758.3595,1758.3626,1759.8578,0,27,27,27,1,0.6,0.4,0.4,0.6,1,0,,,,,,,,,,,,,,,,,,,,,,,,,,,,,,,,,,,,
,,66c856fd76895ebe2db7c327,66fc9875c4b9a29d76467140,2024-10-02_03h21.34.849,mdp,2024.2.1,Linux aarch64,30.06253006,66fa4ebf79326e780c390304,,,,,,,,,,,,,,,,,,,,,1759.8593,1759.8593,1759.8633,1761.1795,1,1,right,0.7507,,1761.1836,1761.1879,1,1,,1761.192,1761.1959,1,1,,0,1761.1962,1761.1964,1761.202,1762.6975,0,28,28,28,1,0.6,0.4,0.4,0.6,1,0,,,,,,,,,,,,,,,,,,,,,,,,,,,,,,,,,,,,
,,66c856fd76895ebe2db7c327,66fc9875c4b9a29d76467140,2024-10-02_03h21.34.849,mdp,2024.2.1,Linux aarch64,30.06253006,66fa4ebf79326e780c390304,,,,,,,,,,,,,,,,,,,,,1762.6998,1762.7,1762.7059,1764.0301,0,0,left,0.7807,,1764.0338,1764.0376,1,0,,1764.0415,1764.0462,1,0,,1,1764.0464,1764.0464,1764.0496,1765.5265,0,29,29,29,1,0.8,0.2,0.6,0.4,1,0,,,,,,,,,,,,,,,,,,,,,,,,,,,,,,,,,,,,
,,66c856fd76895ebe2db7c327,66fc9875c4b9a29d76467140,2024-10-02_03h21.34.849,mdp,2024.2.1,Linux aarch64,30.06253006,66fa4ebf79326e780c390304,,,,,,,,,,,,,,,,,,,,,1765.5286,1765.5289,1765.5363,1766.6562,1,1,right,0.5879,0.0009,1766.66,1766.6639,1,1,,1766.6684,1766.6747,1,0,,0,1766.6748,1766.6749,1766.6772,1768.1815,0,30,30,30,1,0.8,0.2,0.6,0.4,1,0,,,,,,,,,,,,,,,,,,,,,,,,,,,,,,,,,,,,
,,66c856fd76895ebe2db7c327,66fc9875c4b9a29d76467140,2024-10-02_03h21.34.849,mdp,2024.2.1,Linux aarch64,30.06253006,66fa4ebf79326e780c390304,,,,,,,,,,,,,,,,,,,,,1768.1845,1768.1847,1768.1894,1768.843,0,0,left,0.0868,,1768.8477,1768.8529,1,1,,1768.8571,1768.8619,1,0,,1,1768.8621,1768.8622,1768.8669,1770.3661,0,31,31,31,1,0.8,0.2,0.6,0.4,1,0,,,,,,,,,,,,,,,,,,,,,,,,,,,,,,,,,,,,
,,66c856fd76895ebe2db7c327,66fc9875c4b9a29d76467140,2024-10-02_03h21.34.849,mdp,2024.2.1,Linux aarch64,30.06253006,66fa4ebf79326e780c390304,,,,,,,,,,,,,,,,,,,,,1770.3677,1770.3678,1770.372,1771.4314,0,1,left,0.4819,0.001,1771.4345,1771.4375,1,0,,1771.4404,1771.4436,1,0,,0,1771.4438,1771.4439,1771.4467,1772.9236,0,32,32,32,1,0.8,0.2,0.6,0.4,1,0,,,,,,,,,,,,,,,,,,,,,,,,,,,,,,,,,,,,
