init_exp.started,init_exp.stopped,participant,session,date,expName,psychopyVersion,OS,frameRate,study_id,disp_instruction.started,disp_instruction.stopped,instruction.thisRepN,instruction.thisTrialN,instruction.thisN,instruction.thisIndex,instruction.ran,instimg_path,consent.started,consent.stopped,key_resp_3.keys,key_resp_3.rt,key_resp_3.duration,n_steps,sequence_path,init_block.started,init_block.stopped,key_resp.keys,key_resp.rt,key_resp.duration,init_trials.started,init_trials.stopped,step0.started,step0.stopped,act0,s1,res0.keys,res0.rt,res0.duration,step1.started,step1.stopped,act1,s2,res1.keys,step2.started,step2.stopped,act2,s3,res2.keys,rew,reward_comp.started,reward_comp.stopped,reward_disp.started,reward_disp.stopped,trials.thisRepN,trials.thisTrialN,trials.thisN,trials.thisIndex,trials.ran,s00a0s10,s00a0s11,s00a1s10,s00a1s11,rew10,rew11,break_block.started,break_block.stopped,block.thisRepN,block.thisTrialN,block.thisN,block.thisIndex,block.ran,s00path,s10path,s11path,s20path,s21path,res1.rt,res1.duration,s10a0s20,s10a0s21,s10a1s20,s10a1s21,s11a0s20,s11a0s21,s11a1s20,s11a1s21,rew20,rew21,res2.rt,res2.duration,s20a0s30,s20a0s31,s20a1s30,s20a1s31,s21a0s30,s21a0s31,s21a1s30,s21a1s31,rew30,rew31
0.0002,0.001,66ce71d5f8614777651a8931,66fc98db46fcc5b0e60e50b2,2024-10-01_21h55.17.267,mdp,2024.2.1,Win32,149.2537313,66fa4ebf79326e780c390304,,,,,,,,,,,,,,,,,,,,,,,,,,,,,,,,,,,,,,,,,,,,,,,,,,,,,,,,,,,,,,,,,,,,,,,,,,,,,,,,,,,,,,,,,,,
,,66ce71d5f8614777651a8931,66fc98db46fcc5b0e60e50b2,2024-10-01_21h55.17.267,mdp,2024.2.1,Win32,149.2537313,66fa4ebf79326e780c390304,0.0036,29.3557,0,0,0,0,1,rlnn_exp/rlnn_exp.001.png,,,,,,,,,,,,,,,,,,,,,,,,,,,,,,,,,,,,,,,,,,,,,,,,,,,,,,,,,,,,,,,,,,,,,,,,,,,,,,,,,,,
,,66ce71d5f8614777651a8931,66fc98db46fcc5b0e60e50b2,2024-10-01_21h55.17.267,mdp,2024.2.1,Win32,149.2537313,66fa4ebf79326e780c390304,29.3577,104.4274,0,1,1,1,1,rlnn_exp/rlnn_exp.002.png,,,,,,,,,,,,,,,,,,,,,,,,,,,,,,,,,,,,,,,,,,,,,,,,,,,,,,,,,,,,,,,,,,,,,,,,,,,,,,,,,,,
,,66ce71d5f8614777651a8931,66fc98db46fcc5b0e60e50b2,2024-10-01_21h55.17.267,mdp,2024.2.1,Win32,149.2537313,66fa4ebf79326e780c390304,104.455,131.014,0,2,2,2,1,rlnn_exp/rlnn_exp.003.png,,,,,,,,,,,,,,,,,,,,,,,,,,,,,,,,,,,,,,,,,,,,,,,,,,,,,,,,,,,,,,,,,,,,,,,,,,,,,,,,,,,
,,66ce71d5f8614777651a8931,66fc98db46fcc5b0e60e50b2,2024-10-01_21h55.17.267,mdp,2024.2.1,Win32,149.2537313,66fa4ebf79326e780c390304,131.022,160.1935,0,3,3,3,1,rlnn_exp/rlnn_exp.004.png,,,,,,,,,,,,,,,,,,,,,,,,,,,,,,,,,,,,,,,,,,,,,,,,,,,,,,,,,,,,,,,,,,,,,,,,,,,,,,,,,,,
,,66ce71d5f8614777651a8931,66fc98db46fcc5b0e60e50b2,2024-10-01_21h55.17.267,mdp,2024.2.1,Win32,149.2537313,66fa4ebf79326e780c390304,,,,,,,,,160.2171,197.3633,y,27.1284,,,,,,,,,,,,,,,,,,,,,,,,,,,,,,,,,,,,,,,,,,,,,,,,,,,,,,,,,,,,,,,,,,,,,,,,,,,,,,,
,,66ce71d5f8614777651a8931,66fc98db46fcc5b0e60e50b2,2024-10-01_21h55.17.267,mdp,2024.2.1,Win32,149.2537313,66fa4ebf79326e780c390304,,,,,,,,,,,,,,1,seqs/st1seq44.csv,197.3996,200.6254,space,2.7179,,200.634,200.6343,200.6351,229.6064,1,1,right,28.4483,,229.6133,229.6148,,1,,229.6153,229.6163,,0,,0,229.6164,229.6165,229.6166,231.1158,0,0,0,0,1,0.4,0.6,0.6,0.4,1,0,,,,,,,,,,,,,,,,,,,,,,,,,,,,,,,,,,,,
,,66ce71d5f8614777651a8931,66fc98db46fcc5b0e60e50b2,2024-10-01_21h55.17.267,mdp,2024.2.1,Win32,149.2537313,66fa4ebf79326e780c390304,,,,,,,,,,,,,,,,,,,,,231.1169,231.1169,231.1185,233.5868,0,0,left,1.9521,,233.5876,233.5882,,1,,233.5886,233.5888,,1,,1,233.5889,233.5889,233.5892,235.0852,0,1,1,1,1,0.4,0.6,0.6,0.4,1,0,,,,,,,,,,,,,,,,,,,,,,,,,,,,,,,,,,,,
,,66ce71d5f8614777651a8931,66fc98db46fcc5b0e60e50b2,2024-10-01_21h55.17.267,mdp,2024.2.1,Win32,149.2537313,66fa4ebf79326e780c390304,,,,,,,,,,,,,,,,,,,,,235.0863,235.0863,235.0897,237.096,0,1,left,1.4978,,237.0981,237.1007,,1,,237.1031,237.1043,,1,,0,237.1045,237.1045,237.1056,238.6002,0,2,2,2,1,0.4,0.6,0.6,0.4,1,0,,,,,,,,,,,,,,,,,,,,,,,,,,,,,,,,,,,,
,,66ce71d5f8614777651a8931,66fc98db46fcc5b0e60e50b2,2024-10-01_21h55.17.267,mdp,2024.2.1,Win32,149.2537313,66fa4ebf79326e780c390304,,,,,,,,,,,,,,,,,,,,,238.6005,238.6005,238.6016,244.0475,0,1,left,4.936,,244.0706,244.072,,1,,244.0734,244.0744,,1,,0,244.0744,244.0744,244.0755,245.5718,0,3,3,3,1,0.4,0.6,0.6,0.4,1,0,,,,,,,,,,,,,,,,,,,,,,,,,,,,,,,,,,,,
,,66ce71d5f8614777651a8931,66fc98db46fcc5b0e60e50b2,2024-10-01_21h55.17.267,mdp,2024.2.1,Win32,149.2537313,66fa4ebf79326e780c390304,,,,,,,,,,,,,,,,,,,,,245.5721,245.5721,245.5729,246.5584,1,1,right,0.4775,,246.5592,246.5598,,1,,246.5602,246.5605,,1,,0,246.5605,246.5605,246.5608,248.0579,0,4,4,4,1,0.8,0.2,0.4,0.6,1,0,,,,,,,,,,,,,,,,,,,,,,,,,,,,,,,,,,,,
,,66ce71d5f8614777651a8931,66fc98db46fcc5b0e60e50b2,2024-10-01_21h55.17.267,mdp,2024.2.1,Win32,149.2537313,66fa4ebf79326e780c390304,,,,,,,,,,,,,,,,,,,,,248.0582,248.0582,248.0594,254.265,1,1,right,5.6943,,254.288,254.2894,,0,,254.2908,254.2918,,1,,0,254.2919,254.2919,254.2929,255.7891,0,5,5,5,1,0.8,0.2,0.4,0.6,1,0,,,,,,,,,,,,,,,,,,,,,,,,,,,,,,,,,,,,
,,66ce71d5f8614777651a8931,66fc98db46fcc5b0e60e50b2,2024-10-01_21h55.17.267,mdp,2024.2.1,Win32,149.2537313,66fa4ebf79326e780c390304,,,,,,,,,,,,,,,,,,,,,255.79,255.79,255.7925,256.6672,1,0,right,0.3601,,256.6693,256.6708,,0,,256.6721,256.6739,,0,,1,256.6741,256.6741,256.6754,258.1713,0,6,6,6,1,0.6,0.4,0.6,0.4,1,0,,,,,,,,,,,,,,,,,,,,,,,,,,,,,,,,,,,,
,,66ce71d5f8614777651a8931,66fc98db46fcc5b0e60e50b2,2024-10-01_21h55.17.267,mdp,2024.2.1,Win32,149.2537313,66fa4ebf79326e780c390304,,,,,,,,,,,,,,,,,,,,,258.1724,258.1725,258.1757,260.6532,0,0,left,1.9687,,260.6556,260.6571,,0,,260.6585,260.66,,1,,1,260.6601,260.6602,260.6617,262.1566,0,7,7,7,1,0.6,0.4,0.6,0.4,1,0,,,,,,,,,,,,,,,,,,,,,,,,,,,,,,,,,,,,
,,66ce71d5f8614777651a8931,66fc98db46fcc5b0e60e50b2,2024-10-01_21h55.17.267,mdp,2024.2.1,Win32,149.2537313,66fa4ebf79326e780c390304,,,,,,,,,,,,,,,,,,,,,262.1575,262.1576,262.1598,268.5393,1,0,right,5.8684,,268.5661,268.5675,,0,,268.5688,268.5699,,0,,1,268.57,268.5701,268.5711,270.0694,0,8,8,8,1,0.6,0.4,0.6,0.4,1,0,,,,,,,,,,,,,,,,,,,,,,,,,,,,,,,,,,,,
,,66ce71d5f8614777651a8931,66fc98db46fcc5b0e60e50b2,2024-10-01_21h55.17.267,mdp,2024.2.1,Win32,149.2537313,66fa4ebf79326e780c390304,,,,,,,,,,,,,,,,,,,,,270.0703,270.0703,270.0724,276.6049,0,0,left,6.0249,,276.6316,276.6333,,1,,276.6347,276.6363,,1,,1,276.6364,276.6365,276.6377,278.1333,0,9,9,9,1,0.6,0.4,0.6,0.4,1,0,,,,,,,,,,,,,,,,,,,,,,,,,,,,,,,,,,,,
,,66ce71d5f8614777651a8931,66fc98db46fcc5b0e60e50b2,2024-10-01_21h55.17.267,mdp,2024.2.1,Win32,149.2537313,66fa4ebf79326e780c390304,,,,,,,,,,,,,,,,,,,,,278.1342,278.1342,278.136,279.303,1,0,right,0.6553,,279.305,279.3068,,1,,279.3089,279.3105,,0,,1,279.3106,279.3106,279.3119,280.8115,0,10,10,10,1,0.6,0.4,0.6,0.4,1,0,,,,,,,,,,,,,,,,,,,,,,,,,,,,,,,,,,,,
,,66ce71d5f8614777651a8931,66fc98db46fcc5b0e60e50b2,2024-10-01_21h55.17.267,mdp,2024.2.1,Win32,149.2537313,66fa4ebf79326e780c390304,,,,,,,,,,,,,,,,,,,,,280.8122,280.8122,280.8142,282.2123,0,0,left,0.8896,,282.2145,282.2163,,0,,282.2181,282.2197,,0,,1,282.2199,282.2199,282.2211,283.7185,0,11,11,11,1,0.8,0.2,0.4,0.6,1,0,,,,,,,,,,,,,,,,,,,,,,,,,,,,,,,,,,,,
,,66ce71d5f8614777651a8931,66fc98db46fcc5b0e60e50b2,2024-10-01_21h55.17.267,mdp,2024.2.1,Win32,149.2537313,66fa4ebf79326e780c390304,,,,,,,,,,,,,,,,,,,,,283.7192,283.7192,283.7214,284.8305,1,1,right,0.6004,,284.8327,284.8346,,1,,284.836,284.8375,,1,,0,284.8376,284.8376,284.8389,286.3357,0,12,12,12,1,0.8,0.2,0.4,0.6,1,0,,,,,,,,,,,,,,,,,,,,,,,,,,,,,,,,,,,,
,,66ce71d5f8614777651a8931,66fc98db46fcc5b0e60e50b2,2024-10-01_21h55.17.267,mdp,2024.2.1,Win32,149.2537313,66fa4ebf79326e780c390304,,,,,,,,,,,,,,,,,,,,,286.3368,286.3368,286.3387,287.1362,1,0,right,0.2803,,287.1382,287.14,,1,,287.1415,287.1432,,0,,1,287.1433,287.1433,287.1446,288.6449,0,13,13,13,1,0.8,0.2,0.4,0.6,1,0,,,,,,,,,,,,,,,,,,,,,,,,,,,,,,,,,,,,
,,66ce71d5f8614777651a8931,66fc98db46fcc5b0e60e50b2,2024-10-01_21h55.17.267,mdp,2024.2.1,Win32,149.2537313,66fa4ebf79326e780c390304,,,,,,,,,,,,,,,,,,,,,288.6458,288.6458,288.6478,289.5324,1,0,right,0.3709,,289.5346,289.5367,,1,,289.539,289.5408,,0,,1,289.5409,289.5409,289.5426,291.038,0,14,14,14,1,0.8,0.2,0.4,0.6,1,0,,,,,,,,,,,,,,,,,,,,,,,,,,,,,,,,,,,,
,,66ce71d5f8614777651a8931,66fc98db46fcc5b0e60e50b2,2024-10-01_21h55.17.267,mdp,2024.2.1,Win32,149.2537313,66fa4ebf79326e780c390304,,,,,,,,,,,,,,,,,,,,,291.0388,291.0388,291.041,291.9835,0,0,left,0.4281,,291.9856,291.9875,,0,,291.9898,291.9918,,0,,1,291.9918,291.9918,291.9934,293.4919,0,15,15,15,1,0.8,0.2,0.4,0.6,1,0,,,,,,,,,,,,,,,,,,,,,,,,,,,,,,,,,,,,
,,66ce71d5f8614777651a8931,66fc98db46fcc5b0e60e50b2,2024-10-01_21h55.17.267,mdp,2024.2.1,Win32,149.2537313,66fa4ebf79326e780c390304,,,,,,,,,,,,,,,,,,,,,293.4927,293.4928,293.495,294.9184,0,1,left,0.9151,,294.9207,294.9221,,0,,294.9236,294.9255,,0,,0,294.9256,294.9257,294.9273,296.4268,0,16,16,16,1,0.8,0.2,0.4,0.6,1,0,,,,,,,,,,,,,,,,,,,,,,,,,,,,,,,,,,,,
,,66ce71d5f8614777651a8931,66fc98db46fcc5b0e60e50b2,2024-10-01_21h55.17.267,mdp,2024.2.1,Win32,149.2537313,66fa4ebf79326e780c390304,,,,,,,,,,,,,,,,,,,,,296.4275,296.4275,296.4299,297.5103,0,0,left,0.5701,,297.5133,297.5146,,1,,297.5162,297.5176,,0,,1,297.5177,297.5177,297.519,299.0213,0,17,17,17,1,0.8,0.2,0.4,0.6,1,0,,,,,,,,,,,,,,,,,,,,,,,,,,,,,,,,,,,,
,,66ce71d5f8614777651a8931,66fc98db46fcc5b0e60e50b2,2024-10-01_21h55.17.267,mdp,2024.2.1,Win32,149.2537313,66fa4ebf79326e780c390304,,,,,,,,,,,,,,,,,,,,,299.022,299.0221,299.0241,300.2245,1,1,right,0.6895,,300.227,300.2284,,1,,300.23,300.2315,,1,,0,300.2316,300.2316,300.2337,301.7319,0,18,18,18,1,0.8,0.2,0.4,0.6,1,0,,,,,,,,,,,,,,,,,,,,,,,,,,,,,,,,,,,,
,,66ce71d5f8614777651a8931,66fc98db46fcc5b0e60e50b2,2024-10-01_21h55.17.267,mdp,2024.2.1,Win32,149.2537313,66fa4ebf79326e780c390304,,,,,,,,,,,,,,,,,,,,,301.733,301.733,301.7359,302.9389,0,0,left,0.6927,,302.9409,302.9433,,0,,302.9459,302.9471,,0,,1,302.9472,302.9473,302.9483,304.443,0,19,19,19,1,0.6,0.4,0.6,0.4,1,0,,,,,,,,,,,,,,,,,,,,,,,,,,,,,,,,,,,,
,,66ce71d5f8614777651a8931,66fc98db46fcc5b0e60e50b2,2024-10-01_21h55.17.267,mdp,2024.2.1,Win32,149.2537313,66fa4ebf79326e780c390304,,,,,,,,,,,,,,,,,,,,,304.4437,304.4437,304.446,305.6908,0,0,left,0.7375,,305.693,305.6948,,1,,305.6964,305.6986,,0,,1,305.6988,305.6988,305.7005,307.1975,0,20,20,20,1,0.6,0.4,0.6,0.4,1,0,,,,,,,,,,,,,,,,,,,,,,,,,,,,,,,,,,,,
,,66ce71d5f8614777651a8931,66fc98db46fcc5b0e60e50b2,2024-10-01_21h55.17.267,mdp,2024.2.1,Win32,149.2537313,66fa4ebf79326e780c390304,,,,,,,,,,,,,,,,,,,,,307.1991,307.1992,307.2016,315.5219,0,0,left,7.8111,,315.5487,315.5503,,0,,315.552,315.5531,,0,,1,315.5531,315.5531,315.5543,317.0538,0,21,21,21,1,0.6,0.4,0.6,0.4,1,0,,,,,,,,,,,,,,,,,,,,,,,,,,,,,,,,,,,,
,,66ce71d5f8614777651a8931,66fc98db46fcc5b0e60e50b2,2024-10-01_21h55.17.267,mdp,2024.2.1,Win32,149.2537313,66fa4ebf79326e780c390304,,,,,,,,,,,,,,,,,,,,,317.0544,317.0544,317.0562,318.9326,1,0,right,1.3676,,318.9359,318.9381,,0,,318.9404,318.9429,,1,,1,318.9431,318.9432,318.9451,320.4384,0,22,22,22,1,0.8,0.2,0.8,0.2,1,0,,,,,,,,,,,,,,,,,,,,,,,,,,,,,,,,,,,,
,,66ce71d5f8614777651a8931,66fc98db46fcc5b0e60e50b2,2024-10-01_21h55.17.267,mdp,2024.2.1,Win32,149.2537313,66fa4ebf79326e780c390304,,,,,,,,,,,,,,,,,,,,,320.4393,320.4393,320.4413,321.2928,1,1,right,0.339,,321.2952,321.2965,,0,,321.298,321.2992,,0,,0,321.2993,321.2993,321.3008,322.793,0,23,23,23,1,0.6,0.4,0.6,0.4,1,0,,,,,,,,,,,,,,,,,,,,,,,,,,,,,,,,,,,,
,,66ce71d5f8614777651a8931,66fc98db46fcc5b0e60e50b2,2024-10-01_21h55.17.267,mdp,2024.2.1,Win32,149.2537313,66fa4ebf79326e780c390304,,,,,,,,,,,,,,,,,,,,,322.7938,322.7938,322.7958,323.67,1,0,right,0.3622,,323.6723,323.6741,,0,,323.6759,323.6775,,1,,1,323.6776,323.6776,323.6787,325.1737,0,24,24,24,1,0.6,0.4,0.6,0.4,1,0,,,,,,,,,,,,,,,,,,,,,,,,,,,,,,,,,,,,
,,66ce71d5f8614777651a8931,66fc98db46fcc5b0e60e50b2,2024-10-01_21h55.17.267,mdp,2024.2.1,Win32,149.2537313,66fa4ebf79326e780c390304,,,,,,,,,,,,,,,,,,,,,325.1746,325.1746,325.1766,325.9566,1,0,right,0.2743,,325.9591,325.9614,,0,,325.9634,325.965,,0,,1,325.9652,325.9652,325.9665,327.4673,0,25,25,25,1,0.6,0.4,0.6,0.4,1,0,,,,,,,,,,,,,,,,,,,,,,,,,,,,,,,,,,,,
,,66ce71d5f8614777651a8931,66fc98db46fcc5b0e60e50b2,2024-10-01_21h55.17.267,mdp,2024.2.1,Win32,149.2537313,66fa4ebf79326e780c390304,,,,,,,,,,,,,,,,,,,,,327.4681,327.4681,327.4704,328.0029,0,0,left,0.0219,,328.0047,328.006,,0,,328.0076,328.0088,,1,,1,328.0089,328.0089,328.0103,329.5088,0,26,26,26,1,0.6,0.4,0.6,0.4,1,0,,,,,,,,,,,,,,,,,,,,,,,,,,,,,,,,,,,,
,,66ce71d5f8614777651a8931,66fc98db46fcc5b0e60e50b2,2024-10-01_21h55.17.267,mdp,2024.2.1,Win32,149.2537313,66fa4ebf79326e780c390304,,,,,,,,,,,,,,,,,,,,,329.5094,329.5094,329.5118,330.5376,1,0,right,0.5177,,330.5397,330.5412,,1,,330.5434,330.5452,,1,,1,330.5452,330.5452,330.5465,332.0459,0,27,27,27,1,0.6,0.4,0.6,0.4,1,0,,,,,,,,,,,,,,,,,,,,,,,,,,,,,,,,,,,,
,,66ce71d5f8614777651a8931,66fc98db46fcc5b0e60e50b2,2024-10-01_21h55.17.267,mdp,2024.2.1,Win32,149.2537313,66fa4ebf79326e780c390304,,,,,,,,,,,,,,,,,,,,,332.0464,332.0464,332.0482,332.8497,0,0,left,0.2927,,332.8516,332.8531,,1,,332.8547,332.8559,,1,,1,332.8559,332.856,332.8573,334.3554,0,28,28,28,1,0.6,0.4,0.6,0.4,1,0,,,,,,,,,,,,,,,,,,,,,,,,,,,,,,,,,,,,
,,66ce71d5f8614777651a8931,66fc98db46fcc5b0e60e50b2,2024-10-01_21h55.17.267,mdp,2024.2.1,Win32,149.2537313,66fa4ebf79326e780c390304,,,,,,,,,,,,,,,,,,,,,334.3562,334.3562,334.3588,335.043,0,1,left,0.1703,,335.0444,335.045,,0,,335.0458,335.0466,,0,,0,335.0466,335.0466,335.0473,336.5419,0,29,29,29,1,0.6,0.4,0.6,0.4,1,0,,,,,,,,,,,,,,,,,,,,,,,,,,,,,,,,,,,,
,,66ce71d5f8614777651a8931,66fc98db46fcc5b0e60e50b2,2024-10-01_21h55.17.267,mdp,2024.2.1,Win32,149.2537313,66fa4ebf79326e780c390304,,,,,,,,,,,,,,,,,,,,,336.5429,336.5429,336.5459,337.2786,1,0,right,0.2216,,337.2808,337.282,,0,,337.2834,337.2848,,0,,1,337.2849,337.2849,337.2863,338.7861,0,30,30,30,1,0.6,0.4,0.6,0.4,1,0,,,,,,,,,,,,,,,,,,,,,,,,,,,,,,,,,,,,
,,66ce71d5f8614777651a8931,66fc98db46fcc5b0e60e50b2,2024-10-01_21h55.17.267,mdp,2024.2.1,Win32,149.2537313,66fa4ebf79326e780c390304,,,,,,,,,,,,,,,,,,,,,338.7873,338.7874,338.7902,339.4057,0,1,left,0.1053,,339.4079,339.4094,,1,,339.4115,339.4131,,0,,0,339.4133,339.4133,339.4147,340.9143,0,31,31,31,1,0.6,0.4,0.6,0.4,1,0,,,,,,,,,,,,,,,,,,,,,,,,,,,,,,,,,,,,
,,66ce71d5f8614777651a8931,66fc98db46fcc5b0e60e50b2,2024-10-01_21h55.17.267,mdp,2024.2.1,Win32,149.2537313,66fa4ebf79326e780c390304,,,,,,,,,,,,,,,,,,,,,340.9148,340.9148,340.9173,341.537,0,0,left,0.1123,,341.539,341.5414,,1,,341.5432,341.5453,,1,,1,341.5453,341.5454,341.5469,343.0432,0,32,32,32,1,0.6,0.4,0.6,0.4,1,0,,,,,,,,,,,,,,,,,,,,,,,,,,,,,,,,,,,,
,,66ce71d5f8614777651a8931,66fc98db46fcc5b0e60e50b2,2024-10-01_21h55.17.267,mdp,2024.2.1,Win32,149.2537313,66fa4ebf79326e780c390304,,,,,,,,,,,,,,,,,,,,,343.044,343.044,343.0459,344.0373,1,0,right,0.4806,,344.0402,344.0423,,0,,344.0448,344.046,,1,,1,344.0461,344.0461,344.0475,345.5429,0,33,33,33,1,0.6,0.4,0.6,0.4,1,0,,,,,,,,,,,,,,,,,,,,,,,,,,,,,,,,,,,,
,,66ce71d5f8614777651a8931,66fc98db46fcc5b0e60e50b2,2024-10-01_21h55.17.267,mdp,2024.2.1,Win32,149.2537313,66fa4ebf79326e780c390304,,,,,,,,,,,,,,,,,,,,,345.5436,345.5436,345.5467,346.7858,1,1,right,0.7292,,346.7878,346.7894,,1,,346.7912,346.7926,,0,,0,346.7926,346.7926,346.7944,348.2961,0,34,34,34,1,0.8,0.2,0.4,0.6,1,0,,,,,,,,,,,,,,,,,,,,,,,,,,,,,,,,,,,,
,,66ce71d5f8614777651a8931,66fc98db46fcc5b0e60e50b2,2024-10-01_21h55.17.267,mdp,2024.2.1,Win32,149.2537313,66fa4ebf79326e780c390304,,,,,,,,,,,,,,,,,,,,,348.297,348.297,348.2995,349.2312,0,0,left,0.4195,,349.2335,349.2348,,0,,349.2364,349.2378,,0,,1,349.2379,349.2379,349.2391,350.7352,0,35,35,35,1,0.8,0.2,0.4,0.6,1,0,,,,,,,,,,,,,,,,,,,,,,,,,,,,,,,,,,,,
,,66ce71d5f8614777651a8931,66fc98db46fcc5b0e60e50b2,2024-10-01_21h55.17.267,mdp,2024.2.1,Win32,149.2537313,66fa4ebf79326e780c390304,,,,,,,,,,,,,,,,,,,,,350.736,350.736,350.738,351.5412,1,1,right,0.2977,,351.5436,351.5451,,1,,351.5471,351.549,,1,,0,351.549,351.549,351.5503,353.0498,0,36,36,36,1,0.8,0.2,0.4,0.6,1,0,,,,,,,,,,,,,,,,,,,,,,,,,,,,,,,,,,,,
,,66ce71d5f8614777651a8931,66fc98db46fcc5b0e60e50b2,2024-10-01_21h55.17.267,mdp,2024.2.1,Win32,149.2537313,66fa4ebf79326e780c390304,,,,,,,,,,,,,,,,,,,,,353.0505,353.0506,353.0528,353.9182,0,0,left,0.3553,,353.9205,353.9222,,0,,353.9237,353.9249,,1,,1,353.925,353.925,353.9263,355.4274,0,37,37,37,1,0.8,0.2,0.4,0.6,1,0,,,,,,,,,,,,,,,,,,,,,,,,,,,,,,,,,,,,
,,66ce71d5f8614777651a8931,66fc98db46fcc5b0e60e50b2,2024-10-01_21h55.17.267,mdp,2024.2.1,Win32,149.2537313,66fa4ebf79326e780c390304,,,,,,,,,,,,,,,,,,,,,355.4281,355.4281,355.4306,356.3286,0,1,left,0.3849,,356.3311,356.3328,,1,,356.3345,356.3361,,0,,0,356.3362,356.3362,356.3373,357.826,0,38,38,38,1,0.4,0.6,0.8,0.2,1,0,,,,,,,,,,,,,,,,,,,,,,,,,,,,,,,,,,,,
,,66ce71d5f8614777651a8931,66fc98db46fcc5b0e60e50b2,2024-10-01_21h55.17.267,mdp,2024.2.1,Win32,149.2537313,66fa4ebf79326e780c390304,,,,,,,,,,,,,,,,,,,,,357.8268,357.8268,357.8288,358.6816,0,0,left,0.3424,,358.6837,358.685,,1,,358.6874,358.6889,,1,,1,358.689,358.6891,358.6903,360.18,0,39,39,39,1,0.6,0.4,0.6,0.4,1,0,,,,,,,,,,,,,,,,,,,,,,,,,,,,,,,,,,,,
,,66ce71d5f8614777651a8931,66fc98db46fcc5b0e60e50b2,2024-10-01_21h55.17.267,mdp,2024.2.1,Win32,149.2537313,66fa4ebf79326e780c390304,,,,,,,,,,,,,,,,,,,,,360.181,360.181,360.1877,360.9115,1,0,right,0.2231,,360.9132,360.9145,,0,,360.9162,360.9174,,0,,1,360.9174,360.9174,360.9188,362.4157,0,40,40,40,1,0.6,0.4,0.6,0.4,1,0,,,,,,,,,,,,,,,,,,,,,,,,,,,,,,,,,,,,
,,66ce71d5f8614777651a8931,66fc98db46fcc5b0e60e50b2,2024-10-01_21h55.17.267,mdp,2024.2.1,Win32,149.2537313,66fa4ebf79326e780c390304,,,,,,,,,,,,,,,,,,,,,362.4165,362.4166,362.4193,363.233,1,0,right,0.3016,,363.2358,363.2371,,0,,363.2387,363.2412,,0,,1,363.2413,363.2413,363.2431,364.7397,0,41,41,41,1,0.6,0.4,0.6,0.4,1,0,,,,,,,,,,,,,,,,,,,,,,,,,,,,,,,,,,,,
,,66ce71d5f8614777651a8931,66fc98db46fcc5b0e60e50b2,2024-10-01_21h55.17.267,mdp,2024.2.1,Win32,149.2537313,66fa4ebf79326e780c390304,,,,,,,,,,,,,,,,,,,,,364.7405,364.7405,364.7426,365.8554,1,1,right,0.6045,,365.8573,365.8586,,1,,365.8603,365.8616,,0,,0,365.8617,365.8617,365.8632,367.3575,0,42,42,42,1,0.8,0.2,0.8,0.2,1,0,,,,,,,,,,,,,,,,,,,,,,,,,,,,,,,,,,,,
,,66ce71d5f8614777651a8931,66fc98db46fcc5b0e60e50b2,2024-10-01_21h55.17.267,mdp,2024.2.1,Win32,149.2537313,66fa4ebf79326e780c390304,,,,,,,,,,,,,,,,,,,,,367.358,367.358,367.36,368.0848,1,0,right,0.2133,,368.0867,368.088,,0,,368.0894,368.0906,,0,,1,368.0907,368.0907,368.0922,369.5906,0,43,43,43,1,0.8,0.2,0.8,0.2,1,0,,,,,,,,,,,,,,,,,,,,,,,,,,,,,,,,,,,,
,,66ce71d5f8614777651a8931,66fc98db46fcc5b0e60e50b2,2024-10-01_21h55.17.267,mdp,2024.2.1,Win32,149.2537313,66fa4ebf79326e780c390304,,,,,,,,,,,,,,,,,,,,,369.5913,369.5913,369.5935,370.2683,0,0,left,0.1637,,370.2706,370.2721,,0,,370.2737,370.2757,,0,,1,370.2757,370.2757,370.2773,371.7714,0,44,44,44,1,0.8,0.2,0.8,0.2,1,0,,,,,,,,,,,,,,,,,,,,,,,,,,,,,,,,,,,,
,,66ce71d5f8614777651a8931,66fc98db46fcc5b0e60e50b2,2024-10-01_21h55.17.267,mdp,2024.2.1,Win32,149.2537313,66fa4ebf79326e780c390304,,,,,,,,,,,,,,,,,,,,,371.7722,371.7723,371.7743,372.3814,1,0,right,0.0987,,372.3841,372.3862,,0,,372.3879,372.3893,,0,,1,372.3894,372.3894,372.3905,373.8895,0,45,45,45,1,0.8,0.2,0.8,0.2,1,0,,,,,,,,,,,,,,,,,,,,,,,,,,,,,,,,,,,,
,,66ce71d5f8614777651a8931,66fc98db46fcc5b0e60e50b2,2024-10-01_21h55.17.267,mdp,2024.2.1,Win32,149.2537313,66fa4ebf79326e780c390304,,,,,,,,,,,,,,,,,,,,,373.8904,373.8904,373.8936,374.8372,0,0,left,0.4343,,374.8396,374.8413,,0,,374.8429,374.8442,,0,,1,374.8442,374.8443,374.8457,376.3432,0,46,46,46,1,0.8,0.2,0.8,0.2,1,0,,,,,,,,,,,,,,,,,,,,,,,,,,,,,,,,,,,,
,,66ce71d5f8614777651a8931,66fc98db46fcc5b0e60e50b2,2024-10-01_21h55.17.267,mdp,2024.2.1,Win32,149.2537313,66fa4ebf79326e780c390304,,,,,,,,,,,,,,,,,,,,,376.3439,376.3439,376.3466,377.1541,1,0,right,0.2995,,377.1563,377.158,,0,,377.1598,377.1616,,0,,1,377.1617,377.1617,377.163,378.6605,0,47,47,47,1,0.8,0.2,0.8,0.2,1,0,,,,,,,,,,,,,,,,,,,,,,,,,,,,,,,,,,,,
,,66ce71d5f8614777651a8931,66fc98db46fcc5b0e60e50b2,2024-10-01_21h55.17.267,mdp,2024.2.1,Win32,149.2537313,66fa4ebf79326e780c390304,,,,,,,,,,,,,,,,,,,,,378.6616,378.6616,378.6632,380.0356,1,0,right,0.8618,,380.0374,380.0393,,0,,380.0414,380.0431,,0,,1,380.0432,380.0432,380.0443,381.5417,0,48,48,48,1,0.8,0.2,0.8,0.2,1,0,,,,,,,,,,,,,,,,,,,,,,,,,,,,,,,,,,,,
,,66ce71d5f8614777651a8931,66fc98db46fcc5b0e60e50b2,2024-10-01_21h55.17.267,mdp,2024.2.1,Win32,149.2537313,66fa4ebf79326e780c390304,,,,,,,,,,,,,,,,,,,,,381.5426,381.5426,381.545,383.737,0,0,left,1.6763,,383.7393,383.7407,,0,,383.7425,383.7442,,0,,1,383.7444,383.7444,383.7456,385.2431,0,49,49,49,1,0.8,0.2,0.8,0.2,1,0,,,,,,,,,,,,,,,,,,,,,,,,,,,,,,,,,,,,
,,66ce71d5f8614777651a8931,66fc98db46fcc5b0e60e50b2,2024-10-01_21h55.17.267,mdp,2024.2.1,Win32,149.2537313,66fa4ebf79326e780c390304,,,,,,,,,,,,,,,,,,,,,,,,,,,,,,,,,,,,,,,,,,,,,,,,,,,,,,,,385.2457,443.7499,0,0,0,1,1,imgs/dog.png,imgs/lion.png,imgs/cat.png,imgs/giraffe.png,imgs/rabbit.png,,,,,,,,,,,,,,,,,,,,,,,,
,,66ce71d5f8614777651a8931,66fc98db46fcc5b0e60e50b2,2024-10-01_21h55.17.267,mdp,2024.2.1,Win32,149.2537313,66fa4ebf79326e780c390304,,,,,,,,,,,,,,2,seqs/st2seq3.csv,443.7718,446.555,space,2.287,,446.5678,446.5678,446.5733,450.16,1,0,right,3.0736,,450.1846,453.6523,0,0,left,453.654,453.655,,0,,1,453.6551,453.6551,453.6559,455.1521,0,0,0,0,1,0.4,0.6,0.8,0.2,,,,,,,,,,,,,,,2.9722,,0.4,0.6,0.4,0.6,0.2,0.8,0.8,0.2,1,0,,,,,,,,,,,,
,,66ce71d5f8614777651a8931,66fc98db46fcc5b0e60e50b2,2024-10-01_21h55.17.267,mdp,2024.2.1,Win32,149.2537313,66fa4ebf79326e780c390304,,,,,,,,,,,,,,,,,,,,,455.1528,455.1528,455.1545,457.374,1,0,right,1.709,,457.3759,459.1309,0,0,left,459.133,459.1342,,1,,1,459.1343,459.1343,459.1353,460.6306,0,1,1,1,1,0.4,0.6,0.8,0.2,,,,,,,,,,,,,,,1.2442,,0.4,0.6,0.4,0.6,0.2,0.8,0.8,0.2,1,0,,,,,,,,,,,,
,,66ce71d5f8614777651a8931,66fc98db46fcc5b0e60e50b2,2024-10-01_21h55.17.267,mdp,2024.2.1,Win32,149.2537313,66fa4ebf79326e780c390304,,,,,,,,,,,,,,,,,,,,,460.6314,460.6314,460.6343,461.5423,1,0,right,0.3926,,461.544,462.5962,0,0,left,462.5984,462.5997,,1,,1,462.5998,462.5999,462.6011,464.0959,0,2,2,2,1,0.4,0.6,0.8,0.2,,,,,,,,,,,,,,,0.5421,,0.4,0.6,0.4,0.6,0.2,0.8,0.8,0.2,1,0,,,,,,,,,,,,
,,66ce71d5f8614777651a8931,66fc98db46fcc5b0e60e50b2,2024-10-01_21h55.17.267,mdp,2024.2.1,Win32,149.2537313,66fa4ebf79326e780c390304,,,,,,,,,,,,,,,,,,,,,464.0966,464.0967,464.0993,465.3318,1,0,right,0.7196,,465.3329,466.4849,0,0,left,466.4868,466.488,,1,,1,466.4881,466.4881,466.4893,467.9847,0,3,3,3,1,0.4,0.6,0.8,0.2,,,,,,,,,,,,,,,0.6458,,0.4,0.6,0.4,0.6,0.2,0.8,0.8,0.2,1,0,,,,,,,,,,,,
,,66ce71d5f8614777651a8931,66fc98db46fcc5b0e60e50b2,2024-10-01_21h55.17.267,mdp,2024.2.1,Win32,149.2537313,66fa4ebf79326e780c390304,,,,,,,,,,,,,,,,,,,,,467.9853,467.9853,467.9871,469.9362,1,0,right,1.4384,,469.9382,471.0077,1,0,right,471.0097,471.011,,1,,1,471.0111,471.0111,471.0125,472.5126,0,4,4,4,1,0.4,0.6,0.8,0.2,,,,,,,,,,,,,,,0.5659,,0.4,0.6,0.4,0.6,0.2,0.8,0.8,0.2,1,0,,,,,,,,,,,,
,,66ce71d5f8614777651a8931,66fc98db46fcc5b0e60e50b2,2024-10-01_21h55.17.267,mdp,2024.2.1,Win32,149.2537313,66fa4ebf79326e780c390304,,,,,,,,,,,,,,,,,,,,,472.5132,472.5132,472.5153,474.7069,1,0,right,1.6741,,474.7086,475.4709,1,0,right,475.4726,475.4737,,1,,1,475.4738,475.4738,475.4747,476.9705,0,5,5,5,1,0.4,0.6,0.8,0.2,,,,,,,,,,,,,,,0.2492,,0.4,0.6,0.4,0.6,0.2,0.8,0.8,0.2,1,0,,,,,,,,,,,,
,,66ce71d5f8614777651a8931,66fc98db46fcc5b0e60e50b2,2024-10-01_21h55.17.267,mdp,2024.2.1,Win32,149.2537313,66fa4ebf79326e780c390304,,,,,,,,,,,,,,,,,,,,,476.9711,476.9711,476.9732,477.5484,1,0,right,0.0648,,477.5502,478.3137,0,0,left,478.315,478.3159,,0,,1,478.3159,478.3159,478.3166,479.8128,0,6,6,6,1,0.4,0.6,0.8,0.2,,,,,,,,,,,,,,,0.254,,0.4,0.6,0.4,0.6,0.2,0.8,0.8,0.2,1,0,,,,,,,,,,,,
,,66ce71d5f8614777651a8931,66fc98db46fcc5b0e60e50b2,2024-10-01_21h55.17.267,mdp,2024.2.1,Win32,149.2537313,66fa4ebf79326e780c390304,,,,,,,,,,,,,,,,,,,,,479.8132,479.8132,479.8155,480.8224,1,0,right,0.5,,480.8245,481.5954,1,1,right,481.5975,481.5987,,1,,0,481.5988,481.5988,481.6001,483.0955,0,7,7,7,1,0.4,0.6,0.8,0.2,,,,,,,,,,,,,,,0.2644,,0.4,0.6,0.4,0.6,0.2,0.8,0.8,0.2,1,0,,,,,,,,,,,,
,,66ce71d5f8614777651a8931,66fc98db46fcc5b0e60e50b2,2024-10-01_21h55.17.267,mdp,2024.2.1,Win32,149.2537313,66fa4ebf79326e780c390304,,,,,,,,,,,,,,,,,,,,,483.0961,483.0961,483.0981,483.8954,1,0,right,0.2839,,483.8977,484.6304,0,1,left,484.6328,484.634,,0,,0,484.634,484.634,484.6351,486.1302,0,8,8,8,1,0.4,0.6,0.8,0.2,,,,,,,,,,,,,,,0.2159,,0.4,0.6,0.4,0.6,0.2,0.8,0.8,0.2,1,0,,,,,,,,,,,,
,,66ce71d5f8614777651a8931,66fc98db46fcc5b0e60e50b2,2024-10-01_21h55.17.267,mdp,2024.2.1,Win32,149.2537313,66fa4ebf79326e780c390304,,,,,,,,,,,,,,,,,,,,,486.1308,486.1308,486.1328,486.9574,1,0,right,0.3138,,486.9598,487.8388,1,0,right,487.8411,487.8426,,0,,1,487.8427,487.8427,487.8437,489.3388,0,9,9,9,1,0.4,0.6,0.8,0.2,,,,,,,,,,,,,,,0.3685,,0.4,0.6,0.4,0.6,0.2,0.8,0.8,0.2,1,0,,,,,,,,,,,,
,,66ce71d5f8614777651a8931,66fc98db46fcc5b0e60e50b2,2024-10-01_21h55.17.267,mdp,2024.2.1,Win32,149.2537313,66fa4ebf79326e780c390304,,,,,,,,,,,,,,,,,,,,,489.3394,489.3394,489.3415,490.1896,1,0,right,0.3317,,490.1916,491.0258,1,1,right,491.0283,491.0299,,1,,0,491.0301,491.0301,491.0312,492.527,0,10,10,10,1,0.4,0.6,0.8,0.2,,,,,,,,,,,,,,,0.3276,,0.4,0.6,0.4,0.6,0.2,0.8,0.8,0.2,1,0,,,,,,,,,,,,
,,66ce71d5f8614777651a8931,66fc98db46fcc5b0e60e50b2,2024-10-01_21h55.17.267,mdp,2024.2.1,Win32,149.2537313,66fa4ebf79326e780c390304,,,,,,,,,,,,,,,,,,,,,492.528,492.528,492.5299,493.0952,1,0,right,0.0579,,493.0983,493.7765,1,1,right,493.7785,493.7797,,1,,0,493.7798,493.7799,493.7808,495.2758,0,11,11,11,1,0.4,0.6,0.8,0.2,,,,,,,,,,,,,,,0.175,,0.4,0.6,0.4,0.6,0.2,0.8,0.8,0.2,1,0,,,,,,,,,,,,
,,66ce71d5f8614777651a8931,66fc98db46fcc5b0e60e50b2,2024-10-01_21h55.17.267,mdp,2024.2.1,Win32,149.2537313,66fa4ebf79326e780c390304,,,,,,,,,,,,,,,,,,,,,495.2763,495.2764,495.2778,496.0821,1,0,right,0.2951,,496.0838,496.9286,1,1,right,496.9311,496.9322,,1,,0,496.9323,496.9323,496.9332,498.4282,0,12,12,12,1,0.4,0.6,0.8,0.2,,,,,,,,,,,,,,,0.3335,,0.4,0.6,0.4,0.6,0.2,0.8,0.8,0.2,1,0,,,,,,,,,,,,
,,66ce71d5f8614777651a8931,66fc98db46fcc5b0e60e50b2,2024-10-01_21h55.17.267,mdp,2024.2.1,Win32,149.2537313,66fa4ebf79326e780c390304,,,,,,,,,,,,,,,,,,,,,498.4288,498.4288,498.4313,499.1727,1,0,right,0.2321,,499.1743,499.8295,0,1,left,499.8311,499.833,,1,,0,499.8331,499.8331,499.8347,501.3311,0,13,13,13,1,0.4,0.6,0.8,0.2,,,,,,,,,,,,,,,0.1394,,0.4,0.6,0.4,0.6,0.2,0.8,0.8,0.2,1,0,,,,,,,,,,,,
,,66ce71d5f8614777651a8931,66fc98db46fcc5b0e60e50b2,2024-10-01_21h55.17.267,mdp,2024.2.1,Win32,149.2537313,66fa4ebf79326e780c390304,,,,,,,,,,,,,,,,,,,,,501.3317,501.3317,501.3338,502.3311,1,0,right,0.4842,,502.3327,503.0469,1,0,right,503.0488,503.0505,,0,,1,503.0505,503.0505,503.0515,504.5463,0,14,14,14,1,0.4,0.6,0.8,0.2,,,,,,,,,,,,,,,0.2013,,0.4,0.6,0.4,0.6,0.2,0.8,0.8,0.2,1,0,,,,,,,,,,,,
,,66ce71d5f8614777651a8931,66fc98db46fcc5b0e60e50b2,2024-10-01_21h55.17.267,mdp,2024.2.1,Win32,149.2537313,66fa4ebf79326e780c390304,,,,,,,,,,,,,,,,,,,,,504.5469,504.5469,504.5491,505.3939,1,0,right,0.3353,,505.396,511.4702,1,1,right,511.4864,511.4873,,1,,0,511.4873,511.4873,511.4881,512.9886,0,15,15,15,1,0.4,0.6,0.8,0.2,,,,,,,,,,,,,,,5.5655,,0.4,0.6,0.4,0.6,0.2,0.8,0.8,0.2,1,0,,,,,,,,,,,,
,,66ce71d5f8614777651a8931,66fc98db46fcc5b0e60e50b2,2024-10-01_21h55.17.267,mdp,2024.2.1,Win32,149.2537313,66fa4ebf79326e780c390304,,,,,,,,,,,,,,,,,,,,,512.9898,512.9898,512.9933,514.13,1,0,right,0.6295,,514.1323,516.3305,1,0,right,516.3321,516.3334,,0,,1,516.3334,516.3335,516.3348,517.8305,0,16,16,16,1,0.4,0.6,0.8,0.2,,,,,,,,,,,,,,,1.6879,,0.4,0.6,0.4,0.6,0.2,0.8,0.8,0.2,1,0,,,,,,,,,,,,
,,66ce71d5f8614777651a8931,66fc98db46fcc5b0e60e50b2,2024-10-01_21h55.17.267,mdp,2024.2.1,Win32,149.2537313,66fa4ebf79326e780c390304,,,,,,,,,,,,,,,,,,,,,517.8309,517.831,517.8327,518.6172,1,1,right,0.2681,,518.6197,519.7052,0,1,left,519.7069,519.7079,,1,,0,519.708,519.708,519.7091,521.2058,0,17,17,17,1,0.4,0.6,0.8,0.2,,,,,,,,,,,,,,,0.5677,,0.4,0.6,0.4,0.6,0.2,0.8,0.8,0.2,1,0,,,,,,,,,,,,
,,66ce71d5f8614777651a8931,66fc98db46fcc5b0e60e50b2,2024-10-01_21h55.17.267,mdp,2024.2.1,Win32,149.2537313,66fa4ebf79326e780c390304,,,,,,,,,,,,,,,,,,,,,521.2064,521.2064,521.2086,522.1251,1,1,right,0.4036,,522.1268,523.6509,1,0,right,523.6527,523.6536,,0,,1,523.6537,523.6538,523.6548,525.1493,0,18,18,18,1,0.6,0.4,0.4,0.6,,,,,,,,,,,,,,,1.0158,,0.4,0.6,0.4,0.6,0.2,0.8,0.8,0.2,1,0,,,,,,,,,,,,
,,66ce71d5f8614777651a8931,66fc98db46fcc5b0e60e50b2,2024-10-01_21h55.17.267,mdp,2024.2.1,Win32,149.2537313,66fa4ebf79326e780c390304,,,,,,,,,,,,,,,,,,,,,525.1497,525.1497,525.1502,525.9068,1,1,right,0.2463,,525.9086,527.4843,1,0,right,527.4862,527.4879,,1,,1,527.488,527.488,527.4898,528.9882,0,19,19,19,1,0.6,0.4,0.4,0.6,,,,,,,,,,,,,,,1.0636,,0.4,0.6,0.4,0.6,0.2,0.8,0.8,0.2,1,0,,,,,,,,,,,,
,,66ce71d5f8614777651a8931,66fc98db46fcc5b0e60e50b2,2024-10-01_21h55.17.267,mdp,2024.2.1,Win32,149.2537313,66fa4ebf79326e780c390304,,,,,,,,,,,,,,,,,,,,,528.9889,528.9889,528.9918,529.7256,1,0,right,0.2274,,529.7279,530.9924,0,1,left,530.9945,530.9962,,0,,0,530.9964,530.9964,530.9984,532.4997,0,20,20,20,1,0.6,0.4,0.4,0.6,,,,,,,,,,,,,,,0.7453,,0.4,0.6,0.4,0.6,0.2,0.8,0.8,0.2,1,0,,,,,,,,,,,,
,,66ce71d5f8614777651a8931,66fc98db46fcc5b0e60e50b2,2024-10-01_21h55.17.267,mdp,2024.2.1,Win32,149.2537313,66fa4ebf79326e780c390304,,,,,,,,,,,,,,,,,,,,,532.5005,532.5006,532.5022,533.323,1,0,right,0.312,,533.3259,534.5682,1,1,right,534.5697,534.5706,,1,,0,534.5707,534.5707,534.5716,536.0663,0,21,21,21,1,0.6,0.4,0.4,0.6,,,,,,,,,,,,,,,0.7331,,0.4,0.6,0.4,0.6,0.2,0.8,0.8,0.2,1,0,,,,,,,,,,,,
,,66ce71d5f8614777651a8931,66fc98db46fcc5b0e60e50b2,2024-10-01_21h55.17.267,mdp,2024.2.1,Win32,149.2537313,66fa4ebf79326e780c390304,,,,,,,,,,,,,,,,,,,,,536.0672,536.0672,536.0693,536.9146,1,1,right,0.3377,,536.9169,538.0382,1,0,right,538.0406,538.0418,,0,,1,538.0419,538.0419,538.043,539.538,0,22,22,22,1,0.6,0.4,0.4,0.6,,,,,,,,,,,,,,,0.6052,,0.4,0.6,0.4,0.6,0.2,0.8,0.8,0.2,1,0,,,,,,,,,,,,
,,66ce71d5f8614777651a8931,66fc98db46fcc5b0e60e50b2,2024-10-01_21h55.17.267,mdp,2024.2.1,Win32,149.2537313,66fa4ebf79326e780c390304,,,,,,,,,,,,,,,,,,,,,539.5387,539.5387,539.5404,540.3992,1,1,right,0.3471,,540.4011,542.4683,1,0,right,542.4697,542.4706,,1,,1,542.4707,542.4707,542.4715,543.9682,0,23,23,23,1,0.6,0.4,0.4,0.6,,,,,,,,,,,,,,,1.5573,,0.4,0.6,0.4,0.6,0.2,0.8,0.8,0.2,1,0,,,,,,,,,,,,
,,66ce71d5f8614777651a8931,66fc98db46fcc5b0e60e50b2,2024-10-01_21h55.17.267,mdp,2024.2.1,Win32,149.2537313,66fa4ebf79326e780c390304,,,,,,,,,,,,,,,,,,,,,543.9689,543.9689,543.9716,544.8017,1,1,right,0.3204,,544.8031,546.0934,1,0,right,546.0955,546.0965,,0,,1,546.0966,546.0966,546.0976,547.5933,0,24,24,24,1,0.6,0.4,0.4,0.6,,,,,,,,,,,,,,,0.7769,,0.4,0.6,0.4,0.6,0.2,0.8,0.8,0.2,1,0,,,,,,,,,,,,
,,66ce71d5f8614777651a8931,66fc98db46fcc5b0e60e50b2,2024-10-01_21h55.17.267,mdp,2024.2.1,Win32,149.2537313,66fa4ebf79326e780c390304,,,,,,,,,,,,,,,,,,,,,547.594,547.5941,547.5962,548.4405,1,1,right,0.3337,,548.4424,549.8297,1,0,right,549.8322,549.8332,,0,,1,549.8333,549.8333,549.8348,551.3301,0,25,25,25,1,0.6,0.4,0.4,0.6,,,,,,,,,,,,,,,0.8744,,0.4,0.6,0.4,0.6,0.2,0.8,0.8,0.2,1,0,,,,,,,,,,,,
,,66ce71d5f8614777651a8931,66fc98db46fcc5b0e60e50b2,2024-10-01_21h55.17.267,mdp,2024.2.1,Win32,149.2537313,66fa4ebf79326e780c390304,,,,,,,,,,,,,,,,,,,,,551.3308,551.3308,551.333,552.3571,1,1,right,0.5134,,552.3594,553.5906,1,0,right,553.5929,553.5948,,1,,1,553.5949,553.595,553.5966,555.0936,0,26,26,26,1,0.6,0.4,0.4,0.6,,,,,,,,,,,,,,,0.7269,,0.4,0.6,0.4,0.6,0.2,0.8,0.8,0.2,1,0,,,,,,,,,,,,
,,66ce71d5f8614777651a8931,66fc98db46fcc5b0e60e50b2,2024-10-01_21h55.17.267,mdp,2024.2.1,Win32,149.2537313,66fa4ebf79326e780c390304,,,,,,,,,,,,,,,,,,,,,555.0942,555.0942,555.0967,556.1207,1,0,right,0.5146,,556.1225,558.1626,1,1,right,558.1644,558.1655,,0,,0,558.1655,558.1655,558.1666,559.6627,0,27,27,27,1,0.6,0.4,0.4,0.6,,,,,,,,,,,,,,,1.5219,,0.4,0.6,0.4,0.6,0.6,0.4,0.6,0.4,1,0,,,,,,,,,,,,
,,66ce71d5f8614777651a8931,66fc98db46fcc5b0e60e50b2,2024-10-01_21h55.17.267,mdp,2024.2.1,Win32,149.2537313,66fa4ebf79326e780c390304,,,,,,,,,,,,,,,,,,,,,559.6633,559.6634,559.6653,560.683,1,1,right,0.5032,,560.6846,561.7451,1,0,right,561.746,561.7472,,0,,1,561.7472,561.7472,561.7479,563.2451,0,28,28,28,1,0.6,0.4,0.4,0.6,,,,,,,,,,,,,,,0.5484,,0.4,0.6,0.4,0.6,0.6,0.4,0.6,0.4,1,0,,,,,,,,,,,,
,,66ce71d5f8614777651a8931,66fc98db46fcc5b0e60e50b2,2024-10-01_21h55.17.267,mdp,2024.2.1,Win32,149.2537313,66fa4ebf79326e780c390304,,,,,,,,,,,,,,,,,,,,,563.2454,563.2454,563.2465,564.0577,1,1,right,0.2958,,564.0591,565.1688,1,0,right,565.1696,565.1701,,1,,1,565.1701,565.1701,565.1707,566.6685,0,29,29,29,1,0.6,0.4,0.4,0.6,,,,,,,,,,,,,,,0.5981,,0.4,0.6,0.4,0.6,0.6,0.4,0.6,0.4,1,0,,,,,,,,,,,,
,,66ce71d5f8614777651a8931,66fc98db46fcc5b0e60e50b2,2024-10-01_21h55.17.267,mdp,2024.2.1,Win32,149.2537313,66fa4ebf79326e780c390304,,,,,,,,,,,,,,,,,,,,,566.6687,566.6687,566.6694,567.4949,1,0,right,0.3125,,567.4955,568.5434,1,1,right,568.544,568.5452,,1,,0,568.5453,568.5453,568.546,570.0456,0,30,30,30,1,0.4,0.6,0.6,0.4,,,,,,,,,,,,,,,0.5349,,0.4,0.6,0.4,0.6,0.6,0.4,0.6,0.4,1,0,,,,,,,,,,,,
,,66ce71d5f8614777651a8931,66fc98db46fcc5b0e60e50b2,2024-10-01_21h55.17.267,mdp,2024.2.1,Win32,149.2537313,66fa4ebf79326e780c390304,,,,,,,,,,,,,,,,,,,,,570.0466,570.0466,570.0491,570.8282,1,1,right,0.2647,,570.8289,572.0247,0,0,left,572.0277,572.0293,,1,,1,572.0295,572.0296,572.0317,573.5298,0,31,31,31,1,0.4,0.6,0.6,0.4,,,,,,,,,,,,,,,0.6829,,0.4,0.6,0.4,0.6,0.6,0.4,0.6,0.4,1,0,,,,,,,,,,,,
,,66ce71d5f8614777651a8931,66fc98db46fcc5b0e60e50b2,2024-10-01_21h55.17.267,mdp,2024.2.1,Win32,149.2537313,66fa4ebf79326e780c390304,,,,,,,,,,,,,,,,,,,,,573.5305,573.5305,573.5321,574.4816,1,1,right,0.4335,,574.4834,575.5886,1,0,right,575.5899,575.5909,,0,,1,575.5909,575.5909,575.5919,577.0926,0,32,32,32,1,0.4,0.6,0.6,0.4,,,,,,,,,,,,,,,0.5956,,0.2,0.8,0.2,0.8,0.6,0.4,0.6,0.4,1,0,,,,,,,,,,,,
,,66ce71d5f8614777651a8931,66fc98db46fcc5b0e60e50b2,2024-10-01_21h55.17.267,mdp,2024.2.1,Win32,149.2537313,66fa4ebf79326e780c390304,,,,,,,,,,,,,,,,,,,,,577.0937,577.0937,577.0962,577.6065,1,0,right,0.0012,,577.6089,578.5925,1,1,right,578.5953,578.5967,,1,,0,578.5967,578.5967,578.5978,580.0925,0,33,33,33,1,0.4,0.6,0.6,0.4,,,,,,,,,,,,,,,0.4656,,0.2,0.8,0.2,0.8,0.8,0.2,0.4,0.6,1,0,,,,,,,,,,,,
,,66ce71d5f8614777651a8931,66fc98db46fcc5b0e60e50b2,2024-10-01_21h55.17.267,mdp,2024.2.1,Win32,149.2537313,66fa4ebf79326e780c390304,,,,,,,,,,,,,,,,,,,,,580.0933,580.0933,580.0953,580.6787,1,1,right,0.0746,,580.6808,582.3293,0,0,left,582.3313,582.3325,,0,,1,582.3325,582.3325,582.3336,583.828,0,34,34,34,1,0.4,0.6,0.6,0.4,,,,,,,,,,,,,,,1.1352,,0.2,0.8,0.2,0.8,0.8,0.2,0.4,0.6,1,0,,,,,,,,,,,,
,,66ce71d5f8614777651a8931,66fc98db46fcc5b0e60e50b2,2024-10-01_21h55.17.267,mdp,2024.2.1,Win32,149.2537313,66fa4ebf79326e780c390304,,,,,,,,,,,,,,,,,,,,,583.8286,583.8286,583.8302,584.7453,1,1,right,0.4032,,584.7471,586.2117,1,1,right,586.2135,586.2145,,1,,0,586.2145,586.2145,586.2154,587.7106,0,35,35,35,1,0.4,0.6,0.6,0.4,,,,,,,,,,,,,,,0.9557,,0.2,0.8,0.2,0.8,0.8,0.2,0.4,0.6,1,0,,,,,,,,,,,,
,,66ce71d5f8614777651a8931,66fc98db46fcc5b0e60e50b2,2024-10-01_21h55.17.267,mdp,2024.2.1,Win32,149.2537313,66fa4ebf79326e780c390304,,,,,,,,,,,,,,,,,,,,,587.7113,587.7113,587.7136,588.4948,1,0,right,0.2745,,588.4969,589.6615,1,1,right,589.6639,589.665,,1,,0,589.665,589.665,589.6662,591.1585,0,36,36,36,1,0.4,0.6,0.6,0.4,,,,,,,,,,,,,,,0.6469,,0.2,0.8,0.2,0.8,0.8,0.2,0.4,0.6,1,0,,,,,,,,,,,,
,,66ce71d5f8614777651a8931,66fc98db46fcc5b0e60e50b2,2024-10-01_21h55.17.267,mdp,2024.2.1,Win32,149.2537313,66fa4ebf79326e780c390304,,,,,,,,,,,,,,,,,,,,,591.1592,591.1592,591.1608,591.95,1,0,right,0.2844,,591.9517,592.7726,0,1,left,592.7747,592.7757,,1,,0,592.7758,592.7758,592.7769,594.2722,0,37,37,37,1,0.4,0.6,0.6,0.4,,,,,,,,,,,,,,,0.3142,,0.2,0.8,0.2,0.8,0.8,0.2,0.4,0.6,1,0,,,,,,,,,,,,
,,66ce71d5f8614777651a8931,66fc98db46fcc5b0e60e50b2,2024-10-01_21h55.17.267,mdp,2024.2.1,Win32,149.2537313,66fa4ebf79326e780c390304,,,,,,,,,,,,,,,,,,,,,594.2729,594.2729,594.2751,595.2468,1,0,right,0.461,,595.2483,596.0152,1,1,right,596.0172,596.0184,,1,,0,596.0185,596.0186,596.0197,597.5154,0,38,38,38,1,0.4,0.6,0.6,0.4,,,,,,,,,,,,,,,0.2561,,0.2,0.8,0.2,0.8,0.8,0.2,0.4,0.6,1,0,,,,,,,,,,,,
,,66ce71d5f8614777651a8931,66fc98db46fcc5b0e60e50b2,2024-10-01_21h55.17.267,mdp,2024.2.1,Win32,149.2537313,66fa4ebf79326e780c390304,,,,,,,,,,,,,,,,,,,,,597.5162,597.5162,597.518,598.3001,1,0,right,0.2698,,598.3019,599.0442,0,0,left,599.0463,599.0474,,1,,1,599.0474,599.0475,599.0486,600.5441,0,39,39,39,1,0.4,0.6,0.6,0.4,,,,,,,,,,,,,,,0.2292,,0.2,0.8,0.2,0.8,0.8,0.2,0.4,0.6,1,0,,,,,,,,,,,,
,,66ce71d5f8614777651a8931,66fc98db46fcc5b0e60e50b2,2024-10-01_21h55.17.267,mdp,2024.2.1,Win32,149.2537313,66fa4ebf79326e780c390304,,,,,,,,,,,,,,,,,,,,,600.545,600.5452,600.5475,601.3328,1,1,right,0.2783,,601.3348,602.1054,0,0,left,602.1068,602.1079,,0,,1,602.108,602.108,602.1089,603.6052,0,40,40,40,1,0.4,0.6,0.6,0.4,,,,,,,,,,,,,,,0.2603,,0.2,0.8,0.2,0.8,0.8,0.2,0.4,0.6,1,0,,,,,,,,,,,,
,,66ce71d5f8614777651a8931,66fc98db46fcc5b0e60e50b2,2024-10-01_21h55.17.267,mdp,2024.2.1,Win32,149.2537313,66fa4ebf79326e780c390304,,,,,,,,,,,,,,,,,,,,,603.6058,603.6058,603.6071,604.4594,1,0,right,0.3407,,604.4612,605.7454,1,1,right,605.7474,605.7485,,1,,0,605.7485,605.7485,605.7494,607.2443,0,41,41,41,1,0.4,0.6,0.6,0.4,,,,,,,,,,,,,,,0.7667,,0.2,0.8,0.2,0.8,0.8,0.2,0.4,0.6,1,0,,,,,,,,,,,,
,,66ce71d5f8614777651a8931,66fc98db46fcc5b0e60e50b2,2024-10-01_21h55.17.267,mdp,2024.2.1,Win32,149.2537313,66fa4ebf79326e780c390304,,,,,,,,,,,,,,,,,,,,,607.2449,607.2449,607.2465,607.7563,1,1,right,0.0006,,607.758,608.5978,0,0,left,608.5983,608.5992,,0,,1,608.5993,608.5993,608.6,610.098,0,42,42,42,1,0.4,0.6,0.6,0.4,,,,,,,,,,,,,,,0.3269,,0.2,0.8,0.2,0.8,0.8,0.2,0.4,0.6,1,0,,,,,,,,,,,,
,,66ce71d5f8614777651a8931,66fc98db46fcc5b0e60e50b2,2024-10-01_21h55.17.267,mdp,2024.2.1,Win32,149.2537313,66fa4ebf79326e780c390304,,,,,,,,,,,,,,,,,,,,,610.0986,610.0986,610.1003,610.6885,1,0,right,0.0746,,610.6905,611.4223,0,1,left,611.4238,611.4255,,1,,0,611.4256,611.4256,611.4272,612.9233,0,43,43,43,1,0.4,0.6,0.6,0.4,,,,,,,,,,,,,,,0.2151,,0.2,0.8,0.2,0.8,0.8,0.2,0.4,0.6,1,0,,,,,,,,,,,,
,,66ce71d5f8614777651a8931,66fc98db46fcc5b0e60e50b2,2024-10-01_21h55.17.267,mdp,2024.2.1,Win32,149.2537313,66fa4ebf79326e780c390304,,,,,,,,,,,,,,,,,,,,,612.9239,612.9239,612.9264,613.5502,1,0,right,0.1209,,613.5525,614.3066,1,1,right,614.3085,614.3096,,1,,0,614.3096,614.3096,614.3108,615.8064,0,44,44,44,1,0.4,0.6,0.6,0.4,,,,,,,,,,,,,,,0.2437,,0.2,0.8,0.2,0.8,0.8,0.2,0.4,0.6,1,0,,,,,,,,,,,,
,,66ce71d5f8614777651a8931,66fc98db46fcc5b0e60e50b2,2024-10-01_21h55.17.267,mdp,2024.2.1,Win32,149.2537313,66fa4ebf79326e780c390304,,,,,,,,,,,,,,,,,,,,,615.8071,615.8071,615.8091,616.5922,1,0,right,0.2711,,616.5947,617.3768,1,1,right,617.379,617.3802,,1,,0,617.3803,617.3803,617.3814,618.8772,0,45,45,45,1,0.4,0.6,0.6,0.4,,,,,,,,,,,,,,,0.2741,,0.2,0.8,0.2,0.8,0.8,0.2,0.4,0.6,1,0,,,,,,,,,,,,
,,66ce71d5f8614777651a8931,66fc98db46fcc5b0e60e50b2,2024-10-01_21h55.17.267,mdp,2024.2.1,Win32,149.2537313,66fa4ebf79326e780c390304,,,,,,,,,,,,,,,,,,,,,618.8785,618.8785,618.8805,619.3909,1,0,right,0.0014,,619.3936,620.1675,1,1,right,620.1696,620.1708,,1,,0,620.1709,620.1709,620.1719,621.6674,0,46,46,46,1,0.4,0.6,0.6,0.4,,,,,,,,,,,,,,,0.2641,,0.2,0.8,0.2,0.8,0.8,0.2,0.4,0.6,1,0,,,,,,,,,,,,
,,66ce71d5f8614777651a8931,66fc98db46fcc5b0e60e50b2,2024-10-01_21h55.17.267,mdp,2024.2.1,Win32,149.2537313,66fa4ebf79326e780c390304,,,,,,,,,,,,,,,,,,,,,621.668,621.668,621.6694,622.424,1,0,right,0.2449,,622.4263,622.9481,1,0,right,622.9504,622.9519,,1,,1,622.952,622.9521,622.954,624.4543,0,47,47,47,1,0.4,0.6,0.6,0.4,,,,,,,,,,,,,,,0.0178,,0.2,0.8,0.2,0.8,0.8,0.2,0.4,0.6,1,0,,,,,,,,,,,,
,,66ce71d5f8614777651a8931,66fc98db46fcc5b0e60e50b2,2024-10-01_21h55.17.267,mdp,2024.2.1,Win32,149.2537313,66fa4ebf79326e780c390304,,,,,,,,,,,,,,,,,,,,,624.455,624.455,624.4565,625.1657,1,0,right,0.2014,,625.1687,625.8002,0,1,left,625.8027,625.8042,,1,,0,625.8043,625.8043,625.8059,627.306,0,48,48,48,1,0.4,0.6,0.6,0.4,,,,,,,,,,,,,,,0.1286,,0.2,0.8,0.2,0.8,0.8,0.2,0.4,0.6,1,0,,,,,,,,,,,,
,,66ce71d5f8614777651a8931,66fc98db46fcc5b0e60e50b2,2024-10-01_21h55.17.267,mdp,2024.2.1,Win32,149.2537313,66fa4ebf79326e780c390304,,,,,,,,,,,,,,,,,,,,,627.3064,627.3065,627.3084,628.1476,1,0,right,0.3228,,628.1493,628.7166,0,1,left,628.7182,628.7194,,1,,0,628.7194,628.7195,628.7206,630.219,0,49,49,49,1,0.4,0.6,0.6,0.4,,,,,,,,,,,,,,,0.0573,,0.2,0.8,0.2,0.8,0.8,0.2,0.4,0.6,1,0,,,,,,,,,,,,
,,66ce71d5f8614777651a8931,66fc98db46fcc5b0e60e50b2,2024-10-01_21h55.17.267,mdp,2024.2.1,Win32,149.2537313,66fa4ebf79326e780c390304,,,,,,,,,,,,,,,,,,,,,,,,,,,,,,,,,,,,,,,,,,,,,,,,,,,,,,,,630.2195,688.7209,0,1,1,2,1,imgs/rabbit.png,imgs/elephant.png,imgs/kangaroo.png,imgs/horse.png,imgs/goat.png,,,,,,,,,,,,,,,,,,,,,,,,
,,66ce71d5f8614777651a8931,66fc98db46fcc5b0e60e50b2,2024-10-01_21h55.17.267,mdp,2024.2.1,Win32,149.2537313,66fa4ebf79326e780c390304,,,,,,,,,,,,,,3,seqs/st3seq37.csv,688.7403,695.878,space,6.6323,,695.9065,695.9065,695.9076,697.72,1,1,right,1.2995,,697.7215,700.3592,1,0,right,700.3609,702.3957,1,0,right,1,702.3958,702.3959,702.3976,703.8933,0,0,0,0,1,0.8,0.2,0.2,0.8,,,,,,,,,,,,,,,2.1155,,0.6,0.4,0.8,0.2,0.4,0.6,0.8,0.2,,,1.5165,,0.6,0.4,0.8,0.2,0.2,0.8,0.2,0.8,1,0
,,66ce71d5f8614777651a8931,66fc98db46fcc5b0e60e50b2,2024-10-01_21h55.17.267,mdp,2024.2.1,Win32,149.2537313,66fa4ebf79326e780c390304,,,,,,,,,,,,,,,,,,,,,703.8936,703.8936,703.8948,705.4696,1,1,right,1.0639,,705.4704,706.861,1,0,right,706.8636,707.9349,1,0,right,1,707.935,707.935,707.9355,709.4347,0,1,1,1,1,0.8,0.2,0.2,0.8,,,,,,,,,,,,,,,0.8812,,0.6,0.4,0.8,0.2,0.4,0.6,0.8,0.2,,,0.5584,,0.6,0.4,0.8,0.2,0.2,0.8,0.2,0.8,1,0
,,66ce71d5f8614777651a8931,66fc98db46fcc5b0e60e50b2,2024-10-01_21h55.17.267,mdp,2024.2.1,Win32,149.2537313,66fa4ebf79326e780c390304,,,,,,,,,,,,,,,,,,,,,709.435,709.435,709.4357,710.2961,1,1,right,0.3464,,710.2969,711.1014,1,0,right,711.1025,711.9207,1,0,right,1,711.9208,711.9208,711.9212,713.4167,0,2,2,2,1,0.8,0.2,0.2,0.8,,,,,,,,,,,,,,,0.2905,,0.6,0.4,0.8,0.2,0.4,0.6,0.8,0.2,,,0.313,,0.6,0.4,0.8,0.2,0.2,0.8,0.2,0.8,1,0
,,66ce71d5f8614777651a8931,66fc98db46fcc5b0e60e50b2,2024-10-01_21h55.17.267,mdp,2024.2.1,Win32,149.2537313,66fa4ebf79326e780c390304,,,,,,,,,,,,,,,,,,,,,713.4179,713.4179,713.4199,714.219,1,0,right,0.293,,714.2208,715.0324,1,0,right,715.0344,715.8994,0,0,left,1,715.8996,715.8996,715.9015,717.4002,0,3,3,3,1,0.8,0.2,0.2,0.8,,,,,,,,,,,,,,,0.2956,,0.6,0.4,0.8,0.2,0.4,0.6,0.8,0.2,,,0.3476,,0.6,0.4,0.8,0.2,0.2,0.8,0.2,0.8,1,0
,,66ce71d5f8614777651a8931,66fc98db46fcc5b0e60e50b2,2024-10-01_21h55.17.267,mdp,2024.2.1,Win32,149.2537313,66fa4ebf79326e780c390304,,,,,,,,,,,,,,,,,,,,,717.4009,717.4009,717.4032,718.5945,1,1,right,0.682,,718.5966,719.5815,1,0,right,719.5833,721.2336,1,0,right,1,721.2337,721.2337,721.2356,722.7333,0,4,4,4,1,0.8,0.2,0.2,0.8,,,,,,,,,,,,,,,0.4674,,0.6,0.4,0.8,0.2,0.4,0.6,0.8,0.2,,,1.1392,,0.6,0.4,0.8,0.2,0.2,0.8,0.2,0.8,1,0
,,66ce71d5f8614777651a8931,66fc98db46fcc5b0e60e50b2,2024-10-01_21h55.17.267,mdp,2024.2.1,Win32,149.2537313,66fa4ebf79326e780c390304,,,,,,,,,,,,,,,,,,,,,722.7339,722.7339,722.7355,723.7096,1,1,right,0.4634,,723.7111,724.6794,1,0,right,724.6808,725.6517,1,0,right,1,725.6518,725.6519,725.6539,727.1493,0,5,5,5,1,0.8,0.2,0.2,0.8,,,,,,,,,,,,,,,0.4595,,0.6,0.4,0.8,0.2,0.4,0.6,0.8,0.2,,,0.4632,,0.6,0.4,0.8,0.2,0.2,0.8,0.2,0.8,1,0
,,66ce71d5f8614777651a8931,66fc98db46fcc5b0e60e50b2,2024-10-01_21h55.17.267,mdp,2024.2.1,Win32,149.2537313,66fa4ebf79326e780c390304,,,,,,,,,,,,,,,,,,,,,727.1496,727.1496,727.1506,728.0255,1,0,right,0.3665,,728.0281,729.2603,1,0,right,729.2613,730.08,0,0,left,1,730.0802,730.0802,730.0815,731.5787,0,6,6,6,1,0.4,0.6,0.8,0.2,,,,,,,,,,,,,,,0.72,,0.6,0.4,0.8,0.2,0.4,0.6,0.8,0.2,,,0.3122,,0.6,0.4,0.8,0.2,0.2,0.8,0.2,0.8,1,0
,,66ce71d5f8614777651a8931,66fc98db46fcc5b0e60e50b2,2024-10-01_21h55.17.267,mdp,2024.2.1,Win32,149.2537313,66fa4ebf79326e780c390304,,,,,,,,,,,,,,,,,,,,,731.5796,731.5797,731.5819,732.3722,1,0,right,0.2783,,732.3742,733.8222,1,0,right,733.8243,734.9068,0,1,left,0,734.9069,734.9069,734.9093,736.407,0,7,7,7,1,0.4,0.6,0.8,0.2,,,,,,,,,,,,,,,0.9371,,0.8,0.2,0.2,0.8,0.4,0.6,0.8,0.2,,,0.5768,,0.6,0.4,0.8,0.2,0.2,0.8,0.2,0.8,1,0
,,66ce71d5f8614777651a8931,66fc98db46fcc5b0e60e50b2,2024-10-01_21h55.17.267,mdp,2024.2.1,Win32,149.2537313,66fa4ebf79326e780c390304,,,,,,,,,,,,,,,,,,,,,736.4078,736.4078,736.4098,737.273,1,1,right,0.3542,,737.2755,738.2546,1,1,right,738.2571,740.101,0,1,left,0,740.1011,740.1011,740.1028,741.6009,0,8,8,8,1,0.4,0.6,0.8,0.2,,,,,,,,,,,,,,,0.4679,,0.8,0.2,0.2,0.8,0.4,0.6,0.8,0.2,,,1.3204,,0.6,0.4,0.8,0.2,0.2,0.8,0.2,0.8,1,0
,,66ce71d5f8614777651a8931,66fc98db46fcc5b0e60e50b2,2024-10-01_21h55.17.267,mdp,2024.2.1,Win32,149.2537313,66fa4ebf79326e780c390304,,,,,,,,,,,,,,,,,,,,,741.6015,741.6015,741.6035,742.345,1,0,right,0.2305,,742.3474,743.1437,1,1,right,743.1459,744.483,1,0,right,1,744.4831,744.4831,744.4846,745.9789,0,9,9,9,1,0.4,0.6,0.8,0.2,,,,,,,,,,,,,,,0.2814,,0.8,0.2,0.2,0.8,0.4,0.6,0.8,0.2,,,0.8304,,0.6,0.4,0.8,0.2,0.2,0.8,0.2,0.8,1,0
,,66ce71d5f8614777651a8931,66fc98db46fcc5b0e60e50b2,2024-10-01_21h55.17.267,mdp,2024.2.1,Win32,149.2537313,66fa4ebf79326e780c390304,,,,,,,,,,,,,,,,,,,,,745.9797,745.9798,745.9816,747.0038,1,0,right,0.5133,,747.0062,748.7184,1,1,right,748.7204,749.6909,1,1,right,0,749.6911,749.6911,749.6932,751.191,0,10,10,10,1,0.4,0.6,0.8,0.2,,,,,,,,,,,,,,,1.2006,,0.2,0.8,0.4,0.6,0.4,0.6,0.8,0.2,,,0.4659,,0.6,0.4,0.8,0.2,0.2,0.8,0.2,0.8,1,0
,,66ce71d5f8614777651a8931,66fc98db46fcc5b0e60e50b2,2024-10-01_21h55.17.267,mdp,2024.2.1,Win32,149.2537313,66fa4ebf79326e780c390304,,,,,,,,,,,,,,,,,,,,,751.1919,751.1919,751.1938,752.0866,1,0,right,0.3844,,752.0895,753.0036,1,1,right,753.0064,754.1974,1,1,right,0,754.1975,754.1975,754.1992,755.6977,0,11,11,11,1,0.4,0.6,0.8,0.2,,,,,,,,,,,,,,,0.4051,,0.2,0.8,0.4,0.6,0.4,0.6,0.8,0.2,,,0.6829,,0.6,0.4,0.8,0.2,0.2,0.8,0.2,0.8,1,0
,,66ce71d5f8614777651a8931,66fc98db46fcc5b0e60e50b2,2024-10-01_21h55.17.267,mdp,2024.2.1,Win32,149.2537313,66fa4ebf79326e780c390304,,,,,,,,,,,,,,,,,,,,,755.6991,755.6991,755.7009,756.5177,1,0,right,0.306,,756.5202,757.3618,1,0,right,757.3639,758.6559,1,0,right,1,758.6561,758.6561,758.6579,760.156,0,12,12,12,1,0.4,0.6,0.8,0.2,,,,,,,,,,,,,,,0.3339,,0.2,0.8,0.4,0.6,0.4,0.6,0.8,0.2,,,0.7777,,0.6,0.4,0.8,0.2,0.2,0.8,0.2,0.8,1,0
,,66ce71d5f8614777651a8931,66fc98db46fcc5b0e60e50b2,2024-10-01_21h55.17.267,mdp,2024.2.1,Win32,149.2537313,66fa4ebf79326e780c390304,,,,,,,,,,,,,,,,,,,,,760.1571,760.1571,760.159,760.9898,1,0,right,0.3224,,760.9924,761.8121,1,1,right,761.8143,763.8294,1,0,right,1,763.8295,763.8296,763.8312,765.3291,0,13,13,13,1,0.4,0.6,0.8,0.2,,,,,,,,,,,,,,,0.3107,,0.2,0.8,0.4,0.6,0.4,0.6,0.8,0.2,,,1.5006,,0.6,0.4,0.8,0.2,0.6,0.4,0.6,0.4,1,0
,,66ce71d5f8614777651a8931,66fc98db46fcc5b0e60e50b2,2024-10-01_21h55.17.267,mdp,2024.2.1,Win32,149.2537313,66fa4ebf79326e780c390304,,,,,,,,,,,,,,,,,,,,,765.3296,765.3296,765.3309,766.5449,1,0,right,0.7023,,766.5468,767.5237,1,1,right,767.5259,770.5664,1,0,right,1,770.5666,770.5666,770.5687,772.0649,0,14,14,14,1,0.4,0.6,0.8,0.2,,,,,,,,,,,,,,,0.4667,,0.2,0.8,0.4,0.6,0.4,0.6,0.8,0.2,,,2.5313,,0.6,0.4,0.8,0.2,0.6,0.4,0.6,0.4,1,0
,,66ce71d5f8614777651a8931,66fc98db46fcc5b0e60e50b2,2024-10-01_21h55.17.267,mdp,2024.2.1,Win32,149.2537313,66fa4ebf79326e780c390304,,,,,,,,,,,,,,,,,,,,,772.0654,772.0655,772.0669,773.1834,1,1,right,0.6033,,773.1857,774.3516,1,1,right,774.3537,775.1494,0,0,left,1,775.1495,775.1495,775.1511,776.6482,0,15,15,15,1,0.4,0.6,0.8,0.2,,,,,,,,,,,,,,,0.6548,,0.2,0.8,0.4,0.6,0.4,0.6,0.8,0.2,,,0.2873,,0.6,0.4,0.8,0.2,0.6,0.4,0.6,0.4,1,0
,,66ce71d5f8614777651a8931,66fc98db46fcc5b0e60e50b2,2024-10-01_21h55.17.267,mdp,2024.2.1,Win32,149.2537313,66fa4ebf79326e780c390304,,,,,,,,,,,,,,,,,,,,,776.6491,776.6491,776.6506,777.7803,1,0,right,0.6193,,777.7818,778.7039,1,1,right,778.7054,779.5655,1,0,right,1,779.5656,779.5656,779.5681,781.0646,0,16,16,16,1,0.4,0.6,0.8,0.2,,,,,,,,,,,,,,,0.4038,,0.2,0.8,0.4,0.6,0.4,0.6,0.8,0.2,,,0.3492,,0.6,0.4,0.8,0.2,0.6,0.4,0.6,0.4,1,0
,,66ce71d5f8614777651a8931,66fc98db46fcc5b0e60e50b2,2024-10-01_21h55.17.267,mdp,2024.2.1,Win32,149.2537313,66fa4ebf79326e780c390304,,,,,,,,,,,,,,,,,,,,,781.0654,781.0654,781.0674,782.2482,1,0,right,0.6683,,782.2495,784.6442,1,0,right,784.6456,785.5831,1,0,right,1,785.5832,785.5832,785.5841,787.0804,0,17,17,17,1,0.4,0.6,0.8,0.2,,,,,,,,,,,,,,,1.8876,,0.2,0.8,0.4,0.6,0.4,0.6,0.8,0.2,,,0.4201,,0.6,0.4,0.8,0.2,0.6,0.4,0.6,0.4,1,0
,,66ce71d5f8614777651a8931,66fc98db46fcc5b0e60e50b2,2024-10-01_21h55.17.267,mdp,2024.2.1,Win32,149.2537313,66fa4ebf79326e780c390304,,,,,,,,,,,,,,,,,,,,,787.0812,787.0812,787.0828,787.7036,1,1,right,0.111,,787.7056,788.4273,1,0,right,788.4295,789.6205,1,0,right,1,789.6206,789.6206,789.623,791.12,0,18,18,18,1,0.4,0.6,0.8,0.2,,,,,,,,,,,,,,,0.2037,,0.2,0.8,0.4,0.6,0.4,0.6,0.8,0.2,,,0.6834,,0.2,0.8,0.6,0.4,0.6,0.4,0.6,0.4,1,0
,,66ce71d5f8614777651a8931,66fc98db46fcc5b0e60e50b2,2024-10-01_21h55.17.267,mdp,2024.2.1,Win32,149.2537313,66fa4ebf79326e780c390304,,,,,,,,,,,,,,,,,,,,,791.121,791.121,791.1231,792.1,1,1,right,0.4663,,792.1019,792.732,1,1,right,792.7336,793.9865,1,1,right,0,793.9866,793.9866,793.9883,795.4881,0,19,19,19,1,0.4,0.6,0.8,0.2,,,,,,,,,,,,,,,0.1184,,0.2,0.8,0.4,0.6,0.4,0.6,0.8,0.2,,,0.736,,0.2,0.8,0.6,0.4,0.6,0.4,0.6,0.4,1,0
,,66ce71d5f8614777651a8931,66fc98db46fcc5b0e60e50b2,2024-10-01_21h55.17.267,mdp,2024.2.1,Win32,149.2537313,66fa4ebf79326e780c390304,,,,,,,,,,,,,,,,,,,,,795.4888,795.4889,795.4912,796.4045,1,1,right,0.4042,,796.4061,797.0573,1,0,right,797.0597,797.8559,0,1,left,0,797.8559,797.8559,797.8579,799.3558,0,20,20,20,1,0.4,0.6,0.8,0.2,,,,,,,,,,,,,,,0.1387,,0.2,0.8,0.4,0.6,0.4,0.6,0.8,0.2,,,0.2757,,0.2,0.8,0.6,0.4,0.6,0.4,0.6,0.4,1,0
,,66ce71d5f8614777651a8931,66fc98db46fcc5b0e60e50b2,2024-10-01_21h55.17.267,mdp,2024.2.1,Win32,149.2537313,66fa4ebf79326e780c390304,,,,,,,,,,,,,,,,,,,,,799.3565,799.3565,799.3586,800.0228,1,1,right,0.1539,,800.025,800.6616,1,0,right,800.6636,801.315,1,1,right,0,801.3151,801.3151,801.3171,802.8141,0,21,21,21,1,0.4,0.6,0.8,0.2,,,,,,,,,,,,,,,0.1259,,0.2,0.8,0.4,0.6,0.4,0.6,0.8,0.2,,,0.1398,,0.2,0.8,0.6,0.4,0.6,0.4,0.6,0.4,1,0
,,66ce71d5f8614777651a8931,66fc98db46fcc5b0e60e50b2,2024-10-01_21h55.17.267,mdp,2024.2.1,Win32,149.2537313,66fa4ebf79326e780c390304,,,,,,,,,,,,,,,,,,,,,802.815,802.815,802.8169,804.3081,1,0,right,0.9857,,804.3097,805.01,1,1,right,805.0117,805.6483,0,1,left,0,805.6485,805.6486,805.6505,807.1515,0,22,22,22,1,0.4,0.6,0.8,0.2,,,,,,,,,,,,,,,0.1842,,0.2,0.8,0.4,0.6,0.4,0.6,0.8,0.2,,,0.1244,,0.2,0.8,0.6,0.4,0.6,0.4,0.6,0.4,1,0
,,66ce71d5f8614777651a8931,66fc98db46fcc5b0e60e50b2,2024-10-01_21h55.17.267,mdp,2024.2.1,Win32,149.2537313,66fa4ebf79326e780c390304,,,,,,,,,,,,,,,,,,,,,807.1522,807.1522,807.154,808.3839,1,0,right,0.7248,,808.3858,809.0281,1,1,right,809.0307,809.7177,1,1,right,0,809.7179,809.7179,809.7209,811.2168,0,23,23,23,1,0.4,0.6,0.8,0.2,,,,,,,,,,,,,,,0.1344,,0.2,0.8,0.4,0.6,0.4,0.6,0.8,0.2,,,0.1728,,0.2,0.8,0.6,0.4,0.2,0.8,0.4,0.6,1,0
,,66ce71d5f8614777651a8931,66fc98db46fcc5b0e60e50b2,2024-10-01_21h55.17.267,mdp,2024.2.1,Win32,149.2537313,66fa4ebf79326e780c390304,,,,,,,,,,,,,,,,,,,,,811.2177,811.2178,811.2199,812.1058,1,1,right,0.3777,,812.1075,813.0573,1,1,right,813.0597,813.6889,1,0,right,1,813.6891,813.6891,813.6916,815.1892,0,24,24,24,1,0.4,0.6,0.8,0.2,,,,,,,,,,,,,,,0.4393,,0.2,0.8,0.4,0.6,0.4,0.6,0.8,0.2,,,0.1198,,0.2,0.8,0.6,0.4,0.2,0.8,0.4,0.6,1,0
,,66ce71d5f8614777651a8931,66fc98db46fcc5b0e60e50b2,2024-10-01_21h55.17.267,mdp,2024.2.1,Win32,149.2537313,66fa4ebf79326e780c390304,,,,,,,,,,,,,,,,,,,,,815.1901,815.1902,815.1931,819.7026,1,1,right,4.0027,,819.7244,821.5087,1,1,right,821.5102,822.475,1,1,right,0,822.4751,822.4752,822.4779,823.9733,0,25,25,25,1,0.4,0.6,0.8,0.2,,,,,,,,,,,,,,,1.2939,,0.2,0.8,0.4,0.6,0.6,0.4,0.4,0.6,,,0.4551,,0.2,0.8,0.6,0.4,0.2,0.8,0.4,0.6,1,0
,,66ce71d5f8614777651a8931,66fc98db46fcc5b0e60e50b2,2024-10-01_21h55.17.267,mdp,2024.2.1,Win32,149.2537313,66fa4ebf79326e780c390304,,,,,,,,,,,,,,,,,,,,,823.9744,823.9744,823.9766,825.0358,1,0,right,0.5549,,825.0377,826.3216,1,1,right,826.3274,827.1014,1,1,right,0,827.1015,827.1015,827.1031,828.5979,0,26,26,26,1,0.4,0.6,0.8,0.2,,,,,,,,,,,,,,,0.7668,,0.2,0.8,0.4,0.6,0.6,0.4,0.4,0.6,,,0.2677,,0.2,0.8,0.6,0.4,0.2,0.8,0.4,0.6,1,0
,,66ce71d5f8614777651a8931,66fc98db46fcc5b0e60e50b2,2024-10-01_21h55.17.267,mdp,2024.2.1,Win32,149.2537313,66fa4ebf79326e780c390304,,,,,,,,,,,,,,,,,,,,,828.5985,828.5986,828.6003,829.4869,1,0,right,0.3761,,829.4891,830.3687,1,0,right,830.3706,831.2373,0,1,left,0,831.2374,831.2374,831.2398,832.7364,0,27,27,27,1,0.4,0.6,0.8,0.2,,,,,,,,,,,,,,,0.3681,,0.2,0.8,0.4,0.6,0.6,0.4,0.4,0.6,,,0.3564,,0.2,0.8,0.6,0.4,0.2,0.8,0.4,0.6,1,0
,,66ce71d5f8614777651a8931,66fc98db46fcc5b0e60e50b2,2024-10-01_21h55.17.267,mdp,2024.2.1,Win32,149.2537313,66fa4ebf79326e780c390304,,,,,,,,,,,,,,,,,,,,,832.737,832.737,832.7381,833.7499,1,1,right,0.5025,,833.7524,834.6053,1,0,right,834.6078,835.5793,1,1,right,0,835.5794,835.5794,835.5809,837.0796,0,28,28,28,1,0.4,0.6,0.8,0.2,,,,,,,,,,,,,,,0.3341,,0.2,0.8,0.4,0.6,0.6,0.4,0.4,0.6,,,0.4621,,0.2,0.8,0.6,0.4,0.2,0.8,0.4,0.6,1,0
,,66ce71d5f8614777651a8931,66fc98db46fcc5b0e60e50b2,2024-10-01_21h55.17.267,mdp,2024.2.1,Win32,149.2537313,66fa4ebf79326e780c390304,,,,,,,,,,,,,,,,,,,,,837.0807,837.0807,837.0827,838.0905,1,0,right,0.4983,,838.0926,838.7992,1,1,right,838.8007,839.5833,0,1,left,0,839.5833,839.5834,839.5852,841.0837,0,29,29,29,1,0.4,0.6,0.8,0.2,,,,,,,,,,,,,,,0.1878,,0.2,0.8,0.4,0.6,0.6,0.4,0.4,0.6,,,0.2659,,0.2,0.8,0.6,0.4,0.2,0.8,0.4,0.6,1,0
,,66ce71d5f8614777651a8931,66fc98db46fcc5b0e60e50b2,2024-10-01_21h55.17.267,mdp,2024.2.1,Win32,149.2537313,66fa4ebf79326e780c390304,,,,,,,,,,,,,,,,,,,,,841.0845,841.0845,841.0869,841.7991,1,0,right,0.2041,,841.801,842.6758,1,1,right,842.6779,843.4379,1,0,right,1,843.438,843.438,843.4401,844.9377,0,30,30,30,1,0.2,0.8,0.6,0.4,,,,,,,,,,,,,,,0.3619,,0.2,0.8,0.4,0.6,0.6,0.4,0.4,0.6,,,0.2519,,0.2,0.8,0.6,0.4,0.2,0.8,0.4,0.6,1,0
,,66ce71d5f8614777651a8931,66fc98db46fcc5b0e60e50b2,2024-10-01_21h55.17.267,mdp,2024.2.1,Win32,149.2537313,66fa4ebf79326e780c390304,,,,,,,,,,,,,,,,,,,,,844.9384,844.9384,844.9403,845.7139,1,1,right,0.2638,,845.7162,846.5159,1,0,right,846.5177,847.2788,1,0,right,1,847.279,847.279,847.2805,848.7749,0,31,31,31,1,0.2,0.8,0.6,0.4,,,,,,,,,,,,,,,0.2889,,0.2,0.8,0.4,0.6,0.6,0.4,0.4,0.6,,,0.247,,0.2,0.8,0.6,0.4,0.2,0.8,0.4,0.6,1,0
,,66ce71d5f8614777651a8931,66fc98db46fcc5b0e60e50b2,2024-10-01_21h55.17.267,mdp,2024.2.1,Win32,149.2537313,66fa4ebf79326e780c390304,,,,,,,,,,,,,,,,,,,,,848.7755,848.7755,848.7768,849.5487,1,0,right,0.2646,,849.5507,850.3086,1,1,right,850.3099,851.0696,1,1,right,0,851.0696,851.0696,851.0713,852.5693,0,32,32,32,1,0.2,0.8,0.6,0.4,,,,,,,,,,,,,,,0.2448,,0.2,0.8,0.4,0.6,0.6,0.4,0.4,0.6,,,0.2444,,0.2,0.8,0.6,0.4,0.2,0.8,0.4,0.6,1,0
,,66ce71d5f8614777651a8931,66fc98db46fcc5b0e60e50b2,2024-10-01_21h55.17.267,mdp,2024.2.1,Win32,149.2537313,66fa4ebf79326e780c390304,,,,,,,,,,,,,,,,,,,,,852.57,852.57,852.5717,853.7008,1,1,right,0.6185,,853.7014,854.723,1,0,right,854.7259,855.4726,1,0,right,1,855.4727,855.4728,855.4751,856.9719,0,33,33,33,1,0.2,0.8,0.6,0.4,,,,,,,,,,,,,,,0.5093,,0.2,0.8,0.4,0.6,0.6,0.4,0.4,0.6,,,0.2262,,0.2,0.8,0.6,0.4,0.6,0.4,0.2,0.8,1,0
,,66ce71d5f8614777651a8931,66fc98db46fcc5b0e60e50b2,2024-10-01_21h55.17.267,mdp,2024.2.1,Win32,149.2537313,66fa4ebf79326e780c390304,,,,,,,,,,,,,,,,,,,,,856.9726,856.9726,856.9742,857.8136,1,0,right,0.3296,,857.8147,858.6041,1,1,right,858.6065,859.3885,1,1,right,0,859.3887,859.3887,859.3908,860.8882,0,34,34,34,1,0.2,0.8,0.6,0.4,,,,,,,,,,,,,,,0.2784,,0.2,0.8,0.4,0.6,0.6,0.4,0.4,0.6,,,0.2666,,0.2,0.8,0.6,0.4,0.6,0.4,0.2,0.8,1,0
,,66ce71d5f8614777651a8931,66fc98db46fcc5b0e60e50b2,2024-10-01_21h55.17.267,mdp,2024.2.1,Win32,149.2537313,66fa4ebf79326e780c390304,,,,,,,,,,,,,,,,,,,,,860.8887,860.8887,860.8905,861.4891,1,0,right,0.0893,,861.491,862.1037,1,1,right,862.1057,862.958,1,1,right,0,862.9582,862.9582,862.96,864.4544,0,35,35,35,1,0.2,0.8,0.6,0.4,,,,,,,,,,,,,,,0.1044,,0.2,0.8,0.4,0.6,0.6,0.4,0.4,0.6,,,0.3455,,0.2,0.8,0.6,0.4,0.6,0.4,0.2,0.8,1,0
,,66ce71d5f8614777651a8931,66fc98db46fcc5b0e60e50b2,2024-10-01_21h55.17.267,mdp,2024.2.1,Win32,149.2537313,66fa4ebf79326e780c390304,,,,,,,,,,,,,,,,,,,,,864.4547,864.4547,864.4555,865.2646,1,0,right,0.3006,,865.2658,866.0206,0,1,left,866.0217,866.8721,1,1,right,0,866.8721,866.8721,866.873,868.3677,0,36,36,36,1,0.2,0.8,0.6,0.4,,,,,,,,,,,,,,,0.2396,,0.2,0.8,0.4,0.6,0.6,0.4,0.4,0.6,,,0.341,,0.2,0.8,0.6,0.4,0.6,0.4,0.2,0.8,1,0
,,66ce71d5f8614777651a8931,66fc98db46fcc5b0e60e50b2,2024-10-01_21h55.17.267,mdp,2024.2.1,Win32,149.2537313,66fa4ebf79326e780c390304,,,,,,,,,,,,,,,,,,,,,868.3685,868.3685,868.3699,870.215,1,0,right,1.3357,,870.2172,871.3057,1,1,right,871.3075,872.28,0,0,left,1,872.2802,872.2802,872.2818,873.7773,0,37,37,37,1,0.2,0.8,0.6,0.4,,,,,,,,,,,,,,,0.5794,,0.2,0.8,0.4,0.6,0.6,0.4,0.4,0.6,,,0.4638,,0.2,0.8,0.6,0.4,0.6,0.4,0.2,0.8,1,0
,,66ce71d5f8614777651a8931,66fc98db46fcc5b0e60e50b2,2024-10-01_21h55.17.267,mdp,2024.2.1,Win32,149.2537313,66fa4ebf79326e780c390304,,,,,,,,,,,,,,,,,,,,,873.7783,873.7783,873.7805,874.5624,1,1,right,0.2737,,874.5643,875.2426,0,0,left,875.2449,875.9797,1,0,right,1,875.9798,875.9798,875.9815,877.4785,0,38,38,38,1,0.2,0.8,0.6,0.4,,,,,,,,,,,,,,,0.1605,,0.2,0.8,0.4,0.6,0.6,0.4,0.4,0.6,,,0.215,,0.2,0.8,0.6,0.4,0.6,0.4,0.2,0.8,1,0
,,66ce71d5f8614777651a8931,66fc98db46fcc5b0e60e50b2,2024-10-01_21h55.17.267,mdp,2024.2.1,Win32,149.2537313,66fa4ebf79326e780c390304,,,,,,,,,,,,,,,,,,,,,877.4794,877.4794,877.4818,878.1937,1,0,right,0.2013,,878.196,878.8397,0,1,left,878.8414,879.4016,1,0,right,1,879.4017,879.4017,879.4027,880.8973,0,39,39,39,1,0.2,0.8,0.6,0.4,,,,,,,,,,,,,,,0.1275,,0.2,0.8,0.4,0.6,0.6,0.4,0.4,0.6,,,0.0487,,0.2,0.8,0.6,0.4,0.6,0.4,0.2,0.8,1,0
,,66ce71d5f8614777651a8931,66fc98db46fcc5b0e60e50b2,2024-10-01_21h55.17.267,mdp,2024.2.1,Win32,149.2537313,66fa4ebf79326e780c390304,,,,,,,,,,,,,,,,,,,,,880.8981,880.8981,880.8994,881.6258,1,1,right,0.2161,,881.6275,882.2147,0,0,left,882.2159,882.8198,1,1,right,0,882.8198,882.8198,882.821,884.3166,0,40,40,40,1,0.2,0.8,0.6,0.4,,,,,,,,,,,,,,,0.0718,,0.2,0.8,0.4,0.6,0.6,0.4,0.4,0.6,,,0.0867,,0.2,0.8,0.6,0.4,0.6,0.4,0.2,0.8,1,0
,,66ce71d5f8614777651a8931,66fc98db46fcc5b0e60e50b2,2024-10-01_21h55.17.267,mdp,2024.2.1,Win32,149.2537313,66fa4ebf79326e780c390304,,,,,,,,,,,,,,,,,,,,,884.3173,884.3174,884.3194,884.9016,1,0,right,0.0729,,884.903,885.5128,0,0,left,885.5148,886.2708,0,1,left,0,886.2709,886.2709,886.2731,887.777,0,41,41,41,1,0.2,0.8,0.6,0.4,,,,,,,,,,,,,,,0.096,,0.2,0.8,0.4,0.6,0.6,0.4,0.4,0.6,,,0.2457,,0.2,0.8,0.6,0.4,0.6,0.4,0.2,0.8,1,0
,,66ce71d5f8614777651a8931,66fc98db46fcc5b0e60e50b2,2024-10-01_21h55.17.267,mdp,2024.2.1,Win32,149.2537313,66fa4ebf79326e780c390304,,,,,,,,,,,,,,,,,,,,,887.7781,887.7781,887.7802,888.6532,0,1,left,0.3629,,888.6552,889.3193,1,0,right,889.3212,889.9204,0,0,left,1,889.9205,889.9205,889.9219,891.4225,0,42,42,42,1,0.2,0.8,0.6,0.4,,,,,,,,,,,,,,,0.1483,,0.2,0.8,0.4,0.6,0.6,0.4,0.4,0.6,,,0.0957,,0.8,0.2,0.4,0.6,0.6,0.4,0.2,0.8,1,0
,,66ce71d5f8614777651a8931,66fc98db46fcc5b0e60e50b2,2024-10-01_21h55.17.267,mdp,2024.2.1,Win32,149.2537313,66fa4ebf79326e780c390304,,,,,,,,,,,,,,,,,,,,,891.4235,891.4236,891.426,892.4365,0,0,left,0.5027,,892.4388,893.1586,1,0,right,893.1609,893.9989,0,0,left,1,893.999,893.999,894.0012,895.4987,0,43,43,43,1,0.2,0.8,0.6,0.4,,,,,,,,,,,,,,,0.199,,0.2,0.8,0.4,0.6,0.6,0.4,0.4,0.6,,,0.3265,,0.8,0.2,0.4,0.6,0.6,0.4,0.2,0.8,1,0
,,66ce71d5f8614777651a8931,66fc98db46fcc5b0e60e50b2,2024-10-01_21h55.17.267,mdp,2024.2.1,Win32,149.2537313,66fa4ebf79326e780c390304,,,,,,,,,,,,,,,,,,,,,895.4995,895.4995,895.5015,896.269,0,1,left,0.257,,896.2699,896.8943,1,0,right,896.896,897.4779,0,0,left,1,897.478,897.4781,897.4795,898.9775,0,44,44,44,1,0.2,0.8,0.6,0.4,,,,,,,,,,,,,,,0.1108,,0.2,0.8,0.4,0.6,0.6,0.4,0.4,0.6,,,0.074,,0.8,0.2,0.4,0.6,0.6,0.4,0.2,0.8,1,0
,,66ce71d5f8614777651a8931,66fc98db46fcc5b0e60e50b2,2024-10-01_21h55.17.267,mdp,2024.2.1,Win32,149.2537313,66fa4ebf79326e780c390304,,,,,,,,,,,,,,,,,,,,,898.9783,898.9783,898.9801,899.9647,1,1,right,0.4719,,899.9665,900.5678,0,0,left,900.5699,901.4288,1,1,right,0,901.4289,901.429,901.4304,902.9284,0,45,45,45,1,0.2,0.8,0.6,0.4,,,,,,,,,,,,,,,0.0908,,0.2,0.8,0.4,0.6,0.6,0.4,0.4,0.6,,,0.349,,0.8,0.2,0.4,0.6,0.6,0.4,0.2,0.8,1,0
,,66ce71d5f8614777651a8931,66fc98db46fcc5b0e60e50b2,2024-10-01_21h55.17.267,mdp,2024.2.1,Win32,149.2537313,66fa4ebf79326e780c390304,,,,,,,,,,,,,,,,,,,,,902.9289,902.9289,902.9306,903.6095,0,1,left,0.1675,,903.6115,904.6986,0,0,left,904.7005,905.4118,0,1,left,0,905.4118,905.4118,905.4127,906.9083,0,46,46,46,1,0.2,0.8,0.6,0.4,,,,,,,,,,,,,,,0.5712,,0.2,0.8,0.4,0.6,0.6,0.4,0.4,0.6,,,0.1937,,0.8,0.2,0.4,0.6,0.6,0.4,0.2,0.8,1,0
,,66ce71d5f8614777651a8931,66fc98db46fcc5b0e60e50b2,2024-10-01_21h55.17.267,mdp,2024.2.1,Win32,149.2537313,66fa4ebf79326e780c390304,,,,,,,,,,,,,,,,,,,,,906.909,906.909,906.91,907.6693,1,0,right,0.2476,,907.6707,908.3804,0,0,left,908.3826,909.0268,0,1,left,0,909.027,909.027,909.0296,910.5259,0,47,47,47,1,0.2,0.8,0.6,0.4,,,,,,,,,,,,,,,0.1952,,0.2,0.8,0.4,0.6,0.6,0.4,0.4,0.6,,,0.1353,,0.2,0.8,0.6,0.4,0.6,0.4,0.2,0.8,1,0
,,66ce71d5f8614777651a8931,66fc98db46fcc5b0e60e50b2,2024-10-01_21h55.17.267,mdp,2024.2.1,Win32,149.2537313,66fa4ebf79326e780c390304,,,,,,,,,,,,,,,,,,,,,910.5269,910.527,910.5288,911.3107,0,1,left,0.2712,,911.3135,911.9652,1,1,right,911.9678,912.7202,1,0,right,1,912.7203,912.7203,912.722,914.2203,0,48,48,48,1,0.2,0.8,0.6,0.4,,,,,,,,,,,,,,,0.133,,0.2,0.8,0.4,0.6,0.6,0.4,0.4,0.6,,,0.2347,,0.2,0.8,0.6,0.4,0.6,0.4,0.2,0.8,1,0
,,66ce71d5f8614777651a8931,66fc98db46fcc5b0e60e50b2,2024-10-01_21h55.17.267,mdp,2024.2.1,Win32,149.2537313,66fa4ebf79326e780c390304,,,,,,,,,,,,,,,,,,,,,914.2212,914.2213,914.2235,914.9915,0,1,left,0.2573,,914.9945,915.908,1,1,right,915.9108,916.5514,0,1,left,0,916.5515,916.5515,916.5534,918.0534,0,49,49,49,1,0.2,0.8,0.6,0.4,,,,,,,,,,,,,,,0.404,,0.2,0.8,0.4,0.6,0.6,0.4,0.4,0.6,,,0.1303,,0.2,0.8,0.6,0.4,0.6,0.4,0.2,0.8,1,0
,,66ce71d5f8614777651a8931,66fc98db46fcc5b0e60e50b2,2024-10-01_21h55.17.267,mdp,2024.2.1,Win32,149.2537313,66fa4ebf79326e780c390304,,,,,,,,,,,,,,,,,,,,,,,,,,,,,,,,,,,,,,,,,,,,,,,,,,,,,,,,918.0537,976.5529,0,2,2,4,1,imgs/bear.png,imgs/pig.png,imgs/cat.png,imgs/elephant.png,imgs/goat.png,,,,,,,,,,,,,,,,,,,,,,,,
,,66ce71d5f8614777651a8931,66fc98db46fcc5b0e60e50b2,2024-10-01_21h55.17.267,mdp,2024.2.1,Win32,149.2537313,66fa4ebf79326e780c390304,,,,,,,,,,,,,,3,seqs/st3seq49.csv,976.5718,987.5723,space,10.4909,,987.6109,987.6109,987.6118,990.6685,1,1,right,2.5216,,990.6693,991.7313,1,1,right,991.7326,992.5654,1,1,right,0,992.5656,992.5656,992.5676,994.0646,0,0,0,0,1,0.2,0.8,0.6,0.4,,,,,,,,,,,,,,,0.5405,,0.6,0.4,0.6,0.4,0.2,0.8,0.6,0.4,,,0.3206,,0.2,0.8,0.2,0.8,0.6,0.4,0.2,0.8,1,0
,,66ce71d5f8614777651a8931,66fc98db46fcc5b0e60e50b2,2024-10-01_21h55.17.267,mdp,2024.2.1,Win32,149.2537313,66fa4ebf79326e780c390304,,,,,,,,,,,,,,,,,,,,,994.0654,994.0654,994.0669,995.336,1,1,right,0.7568,,995.3376,998.0082,0,1,left,998.0363,999.2939,1,1,right,0,999.294,999.294,999.2959,1000.7911,0,1,1,1,1,0.2,0.8,0.6,0.4,,,,,,,,,,,,,,,2.1593,,0.6,0.4,0.6,0.4,0.2,0.8,0.6,0.4,,,0.7757,,0.2,0.8,0.2,0.8,0.6,0.4,0.2,0.8,1,0
,,66ce71d5f8614777651a8931,66fc98db46fcc5b0e60e50b2,2024-10-01_21h55.17.267,mdp,2024.2.1,Win32,149.2537313,66fa4ebf79326e780c390304,,,,,,,,,,,,,,,,,,,,,1000.792,1000.792,1000.7936,1003.2521,0,1,left,1.9503,,1003.2542,1004.2952,1,1,right,1004.2977,1005.0716,1,0,right,1,1005.0718,1005.0718,1005.074,1006.5721,0,2,2,2,1,0.2,0.8,0.6,0.4,,,,,,,,,,,,,,,0.5308,,0.6,0.4,0.6,0.4,0.4,0.6,0.2,0.8,,,0.2651,,0.2,0.8,0.2,0.8,0.6,0.4,0.2,0.8,1,0
,,66ce71d5f8614777651a8931,66fc98db46fcc5b0e60e50b2,2024-10-01_21h55.17.267,mdp,2024.2.1,Win32,149.2537313,66fa4ebf79326e780c390304,,,,,,,,,,,,,,,,,,,,,1006.5731,1006.5731,1006.5748,1007.7589,0,1,left,0.6725,,1007.7612,1008.7231,1,1,right,1008.725,1009.5579,1,1,right,0,1009.558,1009.558,1009.5604,1011.0575,0,3,3,3,1,0.2,0.8,0.6,0.4,,,,,,,,,,,,,,,0.4584,,0.6,0.4,0.6,0.4,0.4,0.6,0.2,0.8,,,0.3294,,0.2,0.8,0.2,0.8,0.6,0.4,0.2,0.8,1,0
,,66ce71d5f8614777651a8931,66fc98db46fcc5b0e60e50b2,2024-10-01_21h55.17.267,mdp,2024.2.1,Win32,149.2537313,66fa4ebf79326e780c390304,,,,,,,,,,,,,,,,,,,,,1011.0583,1011.0584,1011.0607,1011.8786,1,1,right,0.3093,,1011.8807,1012.6268,0,0,left,1012.6293,1013.2507,1,1,right,0,1013.2507,1013.2507,1013.2525,1014.7472,0,4,4,4,1,0.2,0.8,0.6,0.4,,,,,,,,,,,,,,,0.2353,,0.6,0.4,0.6,0.4,0.4,0.6,0.2,0.8,,,0.1031,,0.2,0.8,0.2,0.8,0.6,0.4,0.2,0.8,1,0
,,66ce71d5f8614777651a8931,66fc98db46fcc5b0e60e50b2,2024-10-01_21h55.17.267,mdp,2024.2.1,Win32,149.2537313,66fa4ebf79326e780c390304,,,,,,,,,,,,,,,,,,,,,1014.748,1014.7481,1014.7499,1015.7032,0,1,left,0.4458,,1015.7053,1016.5091,0,0,left,1016.5112,1017.3745,0,1,left,0,1017.3746,1017.3746,1017.3763,1018.8761,0,5,5,5,1,0.2,0.8,0.6,0.4,,,,,,,,,,,,,,,0.286,,0.6,0.4,0.6,0.4,0.4,0.6,0.2,0.8,,,0.3523,,0.2,0.8,0.2,0.8,0.6,0.4,0.2,0.8,1,0
,,66ce71d5f8614777651a8931,66fc98db46fcc5b0e60e50b2,2024-10-01_21h55.17.267,mdp,2024.2.1,Win32,149.2537313,66fa4ebf79326e780c390304,,,,,,,,,,,,,,,,,,,,,1018.8766,1018.8766,1018.8778,1019.6756,0,0,left,0.2871,,1019.678,1022.3071,1,0,right,1022.3091,1023.7813,0,1,left,0,1023.7815,1023.7815,1023.784,1025.2795,0,6,6,6,1,0.2,0.8,0.6,0.4,,,,,,,,,,,,,,,2.1016,,0.6,0.4,0.6,0.4,0.4,0.6,0.2,0.8,,,0.9619,,0.2,0.8,0.2,0.8,0.6,0.4,0.2,0.8,1,0
,,66ce71d5f8614777651a8931,66fc98db46fcc5b0e60e50b2,2024-10-01_21h55.17.267,mdp,2024.2.1,Win32,149.2537313,66fa4ebf79326e780c390304,,,,,,,,,,,,,,,,,,,,,1025.2802,1025.2802,1025.282,1026.6401,0,1,left,0.8434,,1026.6424,1028.1868,1,1,right,1028.1886,1028.7997,1,0,right,1,1028.7999,1028.7999,1028.8017,1030.2979,0,7,7,7,1,0.2,0.8,0.6,0.4,,,,,,,,,,,,,,,1.0281,,0.6,0.4,0.6,0.4,0.4,0.6,0.2,0.8,,,0.0986,,0.2,0.8,0.2,0.8,0.6,0.4,0.2,0.8,1,0
,,66ce71d5f8614777651a8931,66fc98db46fcc5b0e60e50b2,2024-10-01_21h55.17.267,mdp,2024.2.1,Win32,149.2537313,66fa4ebf79326e780c390304,,,,,,,,,,,,,,,,,,,,,1030.2988,1030.2989,1030.3015,1031.2374,1,0,right,0.4321,,1031.2396,1032.2725,1,1,right,1032.2747,1033.3969,0,1,left,0,1033.3971,1033.3971,1033.3987,1034.8969,0,8,8,8,1,0.2,0.8,0.6,0.4,,,,,,,,,,,,,,,0.5212,,0.6,0.4,0.6,0.4,0.4,0.6,0.2,0.8,,,0.6112,,0.2,0.8,0.2,0.8,0.6,0.4,0.2,0.8,1,0
,,66ce71d5f8614777651a8931,66fc98db46fcc5b0e60e50b2,2024-10-01_21h55.17.267,mdp,2024.2.1,Win32,149.2537313,66fa4ebf79326e780c390304,,,,,,,,,,,,,,,,,,,,,1034.8977,1034.8977,1034.8992,1037.3509,1,0,right,1.9391,,1037.3523,1039.2994,1,0,right,1039.3017,1040.5356,0,1,left,0,1040.5357,1040.5357,1040.5371,1042.0353,0,9,9,9,1,0.2,0.8,0.6,0.4,,,,,,,,,,,,,,,1.4423,,0.6,0.4,0.6,0.4,0.4,0.6,0.2,0.8,,,0.7169,,0.2,0.8,0.2,0.8,0.6,0.4,0.2,0.8,1,0
,,66ce71d5f8614777651a8931,66fc98db46fcc5b0e60e50b2,2024-10-01_21h55.17.267,mdp,2024.2.1,Win32,149.2537313,66fa4ebf79326e780c390304,,,,,,,,,,,,,,,,,,,,,1042.036,1042.036,1042.0375,1042.9132,1,0,right,0.3641,,1042.9149,1044.3498,1,0,right,1044.3526,1045.4521,1,1,right,0,1045.4522,1045.4523,1045.4542,1046.9544,0,10,10,10,1,0.2,0.8,0.6,0.4,,,,,,,,,,,,,,,0.9267,,0.6,0.4,0.6,0.4,0.4,0.6,0.2,0.8,,,0.5916,,0.2,0.8,0.2,0.8,0.6,0.4,0.2,0.8,1,0
,,66ce71d5f8614777651a8931,66fc98db46fcc5b0e60e50b2,2024-10-01_21h55.17.267,mdp,2024.2.1,Win32,149.2537313,66fa4ebf79326e780c390304,,,,,,,,,,,,,,,,,,,,,1046.9551,1046.9551,1046.9563,1047.8259,1,1,right,0.3618,,1047.8275,1048.6128,1,0,right,1048.6149,1049.3833,0,1,left,0,1049.3835,1049.3835,1049.3856,1050.8822,0,11,11,11,1,0.2,0.8,0.6,0.4,,,,,,,,,,,,,,,0.274,,0.6,0.4,0.6,0.4,0.4,0.6,0.2,0.8,,,0.2589,,0.2,0.8,0.2,0.8,0.6,0.4,0.2,0.8,1,0
,,66ce71d5f8614777651a8931,66fc98db46fcc5b0e60e50b2,2024-10-01_21h55.17.267,mdp,2024.2.1,Win32,149.2537313,66fa4ebf79326e780c390304,,,,,,,,,,,,,,,,,,,,,1050.8832,1050.8832,1050.8851,1051.6671,1,1,right,0.2715,,1051.6686,1053.1823,1,1,right,1053.1845,1054.9673,1,0,right,1,1054.9674,1054.9675,1054.9691,1056.464,0,12,12,12,1,0.2,0.8,0.6,0.4,,,,,,,,,,,,,,,1.0098,,0.6,0.4,0.6,0.4,0.8,0.2,0.4,0.6,,,1.2677,,0.2,0.8,0.2,0.8,0.6,0.4,0.2,0.8,1,0
,,66ce71d5f8614777651a8931,66fc98db46fcc5b0e60e50b2,2024-10-01_21h55.17.267,mdp,2024.2.1,Win32,149.2537313,66fa4ebf79326e780c390304,,,,,,,,,,,,,,,,,,,,,1056.4652,1056.4652,1056.4674,1058.7811,1,1,right,1.8105,,1058.783,1059.5193,1,0,right,1059.5223,1060.1945,1,1,right,0,1060.1946,1060.1947,1060.1962,1061.692,0,13,13,13,1,0.2,0.8,0.6,0.4,,,,,,,,,,,,,,,0.2304,,0.6,0.4,0.6,0.4,0.8,0.2,0.4,0.6,,,0.1613,,0.2,0.8,0.2,0.8,0.6,0.4,0.2,0.8,1,0
,,66ce71d5f8614777651a8931,66fc98db46fcc5b0e60e50b2,2024-10-01_21h55.17.267,mdp,2024.2.1,Win32,149.2537313,66fa4ebf79326e780c390304,,,,,,,,,,,,,,,,,,,,,1061.6929,1061.6929,1061.695,1073.7567,1,1,right,11.5556,,1073.7771,1074.5205,0,1,left,1074.522,1075.1463,1,1,right,0,1075.1465,1075.1465,1075.1482,1076.6476,0,14,14,14,1,0.2,0.8,0.6,0.4,,,,,,,,,,,,,,,0.2529,,0.6,0.4,0.6,0.4,0.8,0.2,0.4,0.6,,,0.1072,,0.2,0.8,0.2,0.8,0.4,0.6,0.6,0.4,1,0
,,66ce71d5f8614777651a8931,66fc98db46fcc5b0e60e50b2,2024-10-01_21h55.17.267,mdp,2024.2.1,Win32,149.2537313,66fa4ebf79326e780c390304,,,,,,,,,,,,,,,,,,,,,1076.6485,1076.6485,1076.6499,1077.2704,1,0,right,0.1102,,1077.2718,1078.4906,1,0,right,1078.4922,1079.4506,1,0,right,1,1079.4507,1079.4507,1079.4526,1080.9509,0,15,15,15,1,0.2,0.8,0.6,0.4,,,,,,,,,,,,,,,0.7017,,0.6,0.4,0.6,0.4,0.8,0.2,0.4,0.6,,,0.4484,,0.2,0.8,0.2,0.8,0.4,0.6,0.6,0.4,1,0
,,66ce71d5f8614777651a8931,66fc98db46fcc5b0e60e50b2,2024-10-01_21h55.17.267,mdp,2024.2.1,Win32,149.2537313,66fa4ebf79326e780c390304,,,,,,,,,,,,,,,,,,,,,1080.9517,1080.9518,1080.9544,1081.8462,1,1,right,0.3831,,1081.8473,1082.9435,1,0,right,1082.9445,1083.7219,0,1,left,0,1083.7221,1083.7221,1083.7248,1085.2215,0,16,16,16,1,0.2,0.8,0.6,0.4,,,,,,,,,,,,,,,0.5829,,0.6,0.4,0.6,0.4,0.8,0.2,0.4,0.6,,,0.2712,,0.2,0.8,0.2,0.8,0.4,0.6,0.6,0.4,1,0
,,66ce71d5f8614777651a8931,66fc98db46fcc5b0e60e50b2,2024-10-01_21h55.17.267,mdp,2024.2.1,Win32,149.2537313,66fa4ebf79326e780c390304,,,,,,,,,,,,,,,,,,,,,1085.2223,1085.2223,1085.2242,1086.2129,1,0,right,0.4791,,1086.2147,1086.8605,1,1,right,1086.863,1087.6383,1,0,right,1,1087.6384,1087.6384,1087.6409,1089.1403,0,17,17,17,1,0.2,0.8,0.6,0.4,,,,,,,,,,,,,,,0.1321,,0.6,0.4,0.6,0.4,0.8,0.2,0.4,0.6,,,0.2624,,0.2,0.8,0.2,0.8,0.4,0.6,0.6,0.4,1,0
,,66ce71d5f8614777651a8931,66fc98db46fcc5b0e60e50b2,2024-10-01_21h55.17.267,mdp,2024.2.1,Win32,149.2537313,66fa4ebf79326e780c390304,,,,,,,,,,,,,,,,,,,,,1089.1412,1089.1412,1089.143,1089.8389,1,0,right,0.1842,,1089.8398,1090.5338,1,0,right,1090.5358,1093.68,1,1,right,0,1093.6803,1093.6803,1093.6818,1095.1801,0,18,18,18,1,0.2,0.8,0.6,0.4,,,,,,,,,,,,,,,0.1815,,0.6,0.4,0.6,0.4,0.8,0.2,0.4,0.6,,,2.6328,,0.2,0.8,0.2,0.8,0.4,0.6,0.6,0.4,1,0
,,66ce71d5f8614777651a8931,66fc98db46fcc5b0e60e50b2,2024-10-01_21h55.17.267,mdp,2024.2.1,Win32,149.2537313,66fa4ebf79326e780c390304,,,,,,,,,,,,,,,,,,,,,1095.1809,1095.1809,1095.1823,1101.9189,0,1,left,6.224,0.0002,1101.9297,1120.0401,1,1,right,1120.0576,1121.2901,1,1,right,0,1121.2901,1121.2901,1121.2921,1122.7901,0,19,19,19,1,0.2,0.8,0.6,0.4,,,,,,,,,,,,,,,17.6089,,0.6,0.4,0.6,0.4,0.8,0.2,0.4,0.6,,,0.7345,,0.2,0.8,0.2,0.8,0.4,0.6,0.6,0.4,1,0
,,66ce71d5f8614777651a8931,66fc98db46fcc5b0e60e50b2,2024-10-01_21h55.17.267,mdp,2024.2.1,Win32,149.2537313,66fa4ebf79326e780c390304,,,,,,,,,,,,,,,,,,,,,1122.7915,1122.7915,1122.7936,1123.7655,1,0,right,0.4613,,1123.768,1124.8936,0,0,left,1124.8945,1125.6365,1,1,right,0,1125.6366,1125.6366,1125.6375,1127.1365,0,20,20,20,1,0.2,0.8,0.6,0.4,,,,,,,,,,,,,,,0.6175,,0.6,0.4,0.6,0.4,0.8,0.2,0.4,0.6,,,0.2286,,0.2,0.8,0.2,0.8,0.4,0.6,0.6,0.4,1,0
,,66ce71d5f8614777651a8931,66fc98db46fcc5b0e60e50b2,2024-10-01_21h55.17.267,mdp,2024.2.1,Win32,149.2537313,66fa4ebf79326e780c390304,,,,,,,,,,,,,,,,,,,,,1127.1367,1127.1367,1127.1382,1127.8032,0,0,left,0.1524,,1127.8043,1129.8994,1,0,right,1129.9003,1130.9601,0,1,left,0,1130.9602,1130.9602,1130.9608,1132.4557,0,21,21,21,1,0.2,0.8,0.6,0.4,,,,,,,,,,,,,,,1.5841,,0.6,0.4,0.6,0.4,0.6,0.4,0.2,0.8,,,0.5559,,0.2,0.8,0.2,0.8,0.4,0.6,0.6,0.4,1,0
,,66ce71d5f8614777651a8931,66fc98db46fcc5b0e60e50b2,2024-10-01_21h55.17.267,mdp,2024.2.1,Win32,149.2537313,66fa4ebf79326e780c390304,,,,,,,,,,,,,,,,,,,,,1132.4559,1132.4559,1132.4564,1133.303,1,1,right,0.3332,,1133.3041,1134.3445,0,0,left,1134.3453,1135.1798,1,1,right,0,1135.18,1135.18,1135.1815,1136.6821,0,22,22,22,1,0.2,0.8,0.6,0.4,,,,,,,,,,,,,,,0.5257,,0.6,0.4,0.6,0.4,0.6,0.4,0.2,0.8,,,0.3257,,0.2,0.8,0.2,0.8,0.8,0.2,0.2,0.8,1,0
,,66ce71d5f8614777651a8931,66fc98db46fcc5b0e60e50b2,2024-10-01_21h55.17.267,mdp,2024.2.1,Win32,149.2537313,66fa4ebf79326e780c390304,,,,,,,,,,,,,,,,,,,,,1136.6824,1136.6824,1136.6834,1137.4703,1,0,right,0.2709,,1137.4725,1138.1937,0,0,left,1138.1953,1138.838,1,1,right,0,1138.8382,1138.8382,1138.8389,1140.3393,0,23,23,23,1,0.2,0.8,0.6,0.4,,,,,,,,,,,,,,,0.2104,,0.6,0.4,0.6,0.4,0.6,0.4,0.2,0.8,,,0.1275,,0.2,0.8,0.2,0.8,0.8,0.2,0.2,0.8,1,0
,,66ce71d5f8614777651a8931,66fc98db46fcc5b0e60e50b2,2024-10-01_21h55.17.267,mdp,2024.2.1,Win32,149.2537313,66fa4ebf79326e780c390304,,,,,,,,,,,,,,,,,,,,,1140.3406,1140.3407,1140.3431,1144.3969,1,1,right,3.5445,,1144.4275,1145.7566,0,0,left,1145.758,1147.0212,0,0,left,1,1147.0214,1147.0215,1147.0235,1148.5182,0,24,24,24,1,0.2,0.8,0.6,0.4,,,,,,,,,,,,,,,0.8474,,0.6,0.4,0.6,0.4,0.6,0.4,0.2,0.8,,,0.7515,,0.2,0.8,0.2,0.8,0.8,0.2,0.2,0.8,1,0
,,66ce71d5f8614777651a8931,66fc98db46fcc5b0e60e50b2,2024-10-01_21h55.17.267,mdp,2024.2.1,Win32,149.2537313,66fa4ebf79326e780c390304,,,,,,,,,,,,,,,,,,,,,1148.5191,1148.5191,1148.5212,1163.8373,1,0,right,14.8065,,1163.8571,1164.9831,0,0,left,1164.9852,1165.7376,1,0,right,1,1165.7377,1165.7377,1165.7388,1167.2331,0,25,25,25,1,0.2,0.8,0.6,0.4,,,,,,,,,,,,,,,0.6285,,0.6,0.4,0.6,0.4,0.6,0.4,0.2,0.8,,,0.2408,,0.2,0.8,0.2,0.8,0.8,0.2,0.2,0.8,1,0
,,66ce71d5f8614777651a8931,66fc98db46fcc5b0e60e50b2,2024-10-01_21h55.17.267,mdp,2024.2.1,Win32,149.2537313,66fa4ebf79326e780c390304,,,,,,,,,,,,,,,,,,,,,1167.234,1167.234,1167.2361,1168.553,1,1,right,0.8081,,1168.5559,1169.3729,0,0,left,1169.3753,1170.1844,0,1,left,0,1170.1846,1170.1846,1170.1866,1171.6837,0,26,26,26,1,0.2,0.8,0.6,0.4,,,,,,,,,,,,,,,0.3018,,0.6,0.4,0.6,0.4,0.6,0.4,0.2,0.8,,,0.302,,0.2,0.8,0.2,0.8,0.8,0.2,0.2,0.8,1,0
,,66ce71d5f8614777651a8931,66fc98db46fcc5b0e60e50b2,2024-10-01_21h55.17.267,mdp,2024.2.1,Win32,149.2537313,66fa4ebf79326e780c390304,,,,,,,,,,,,,,,,,,,,,1171.684,1171.684,1171.6847,1172.4725,1,0,right,0.277,,1172.4747,1173.5675,0,0,left,1173.5696,1174.1774,1,1,right,0,1174.1775,1174.1776,1174.1796,1175.6708,0,27,27,27,1,0.2,0.8,0.6,0.4,,,,,,,,,,,,,,,0.5777,,0.6,0.4,0.6,0.4,0.6,0.4,0.2,0.8,,,0.0986,,0.2,0.8,0.2,0.8,0.8,0.2,0.2,0.8,1,0
,,66ce71d5f8614777651a8931,66fc98db46fcc5b0e60e50b2,2024-10-01_21h55.17.267,mdp,2024.2.1,Win32,149.2537313,66fa4ebf79326e780c390304,,,,,,,,,,,,,,,,,,,,,1175.6722,1175.6722,1175.6745,1176.4583,1,1,right,0.2762,,1176.4602,1177.573,1,0,right,1177.5753,1178.3306,1,1,right,0,1178.3307,1178.3309,1178.3335,1179.8321,0,28,28,28,1,0.2,0.8,0.6,0.4,,,,,,,,,,,,,,,0.5973,,0.6,0.4,0.6,0.4,0.6,0.4,0.2,0.8,,,0.2473,,0.2,0.8,0.2,0.8,0.8,0.2,0.2,0.8,1,0
,,66ce71d5f8614777651a8931,66fc98db46fcc5b0e60e50b2,2024-10-01_21h55.17.267,mdp,2024.2.1,Win32,149.2537313,66fa4ebf79326e780c390304,,,,,,,,,,,,,,,,,,,,,1179.8329,1179.8329,1179.8345,1180.6635,1,1,right,0.32,,1180.6655,1181.4972,0,0,left,1181.499,1182.2185,0,1,left,0,1182.2187,1182.2187,1182.2203,1183.7208,0,29,29,29,1,0.2,0.8,0.6,0.4,,,,,,,,,,,,,,,0.3203,,0.6,0.4,0.6,0.4,0.2,0.8,0.4,0.6,,,0.2092,,0.2,0.8,0.2,0.8,0.8,0.2,0.2,0.8,1,0
,,66ce71d5f8614777651a8931,66fc98db46fcc5b0e60e50b2,2024-10-01_21h55.17.267,mdp,2024.2.1,Win32,149.2537313,66fa4ebf79326e780c390304,,,,,,,,,,,,,,,,,,,,,1183.7217,1183.7217,1183.7233,1184.5727,1,1,right,0.3397,,1184.5752,1185.3689,0,1,left,1185.3702,1186.5904,1,1,right,0,1186.5906,1186.5906,1186.5922,1188.0865,0,30,30,30,1,0.8,0.2,0.2,0.8,,,,,,,,,,,,,,,0.2892,,0.6,0.4,0.6,0.4,0.2,0.8,0.4,0.6,,,0.7081,,0.2,0.8,0.2,0.8,0.8,0.2,0.2,0.8,1,0
,,66ce71d5f8614777651a8931,66fc98db46fcc5b0e60e50b2,2024-10-01_21h55.17.267,mdp,2024.2.1,Win32,149.2537313,66fa4ebf79326e780c390304,,,,,,,,,,,,,,,,,,,,,1188.0871,1188.0872,1188.0884,1188.8642,1,1,right,0.2642,,1188.8661,1189.8574,0,1,left,1189.859,1190.6076,0,0,left,1,1190.6077,1190.6077,1190.6104,1192.1075,0,31,31,31,1,0.8,0.2,0.2,0.8,,,,,,,,,,,,,,,0.482,,0.6,0.4,0.6,0.4,0.2,0.8,0.4,0.6,,,0.2392,,0.2,0.8,0.2,0.8,0.8,0.2,0.2,0.8,1,0
,,66ce71d5f8614777651a8931,66fc98db46fcc5b0e60e50b2,2024-10-01_21h55.17.267,mdp,2024.2.1,Win32,149.2537313,66fa4ebf79326e780c390304,,,,,,,,,,,,,,,,,,,,,1192.1081,1192.1081,1192.1099,1192.8504,1,1,right,0.2293,,1192.8521,1193.4197,0,1,left,1193.4222,1193.9839,1,1,right,0,1193.984,1193.984,1193.9855,1195.4812,0,32,32,32,1,0.8,0.2,0.2,0.8,,,,,,,,,,,,,,,0.0561,,0.6,0.4,0.6,0.4,0.2,0.8,0.4,0.6,,,0.0454,,0.2,0.8,0.2,0.8,0.8,0.2,0.2,0.8,1,0
,,66ce71d5f8614777651a8931,66fc98db46fcc5b0e60e50b2,2024-10-01_21h55.17.267,mdp,2024.2.1,Win32,149.2537313,66fa4ebf79326e780c390304,,,,,,,,,,,,,,,,,,,,,1195.4825,1195.4825,1195.4849,1196.1973,1,1,right,0.2029,,1196.1994,1196.753,1,1,right,1196.7549,1197.3326,1,1,right,0,1197.3327,1197.3327,1197.3341,1198.8289,0,33,33,33,1,0.8,0.2,0.2,0.8,,,,,,,,,,,,,,,0.0417,,0.6,0.4,0.6,0.4,0.2,0.8,0.4,0.6,,,0.0663,,0.2,0.8,0.2,0.8,0.8,0.2,0.2,0.8,1,0
,,66ce71d5f8614777651a8931,66fc98db46fcc5b0e60e50b2,2024-10-01_21h55.17.267,mdp,2024.2.1,Win32,149.2537313,66fa4ebf79326e780c390304,,,,,,,,,,,,,,,,,,,,,1198.8295,1198.8295,1198.8311,1199.7263,0,1,left,0.3852,,1199.7279,1200.2807,1,1,right,1200.2834,1200.8961,0,0,left,1,1200.8962,1200.8962,1200.8985,1202.3941,0,34,34,34,1,0.4,0.6,0.6,0.4,,,,,,,,,,,,,,,0.041,,0.6,0.4,0.6,0.4,0.2,0.8,0.4,0.6,,,0.103,,0.2,0.8,0.2,0.8,0.8,0.2,0.2,0.8,1,0
,,66ce71d5f8614777651a8931,66fc98db46fcc5b0e60e50b2,2024-10-01_21h55.17.267,mdp,2024.2.1,Win32,149.2537313,66fa4ebf79326e780c390304,,,,,,,,,,,,,,,,,,,,,1202.395,1202.395,1202.3968,1203.1234,0,1,left,0.2184,,1203.1257,1203.6353,1,0,right,1203.6381,1204.1837,1,1,right,0,1204.184,1204.184,1204.1859,1205.6831,0,35,35,35,1,0.4,0.6,0.6,0.4,,,,,,,,,,,,,,,0.0065,,0.6,0.4,0.6,0.4,0.2,0.8,0.4,0.6,,,0.036,,0.2,0.8,0.2,0.8,0.8,0.2,0.2,0.8,1,0
,,66ce71d5f8614777651a8931,66fc98db46fcc5b0e60e50b2,2024-10-01_21h55.17.267,mdp,2024.2.1,Win32,149.2537313,66fa4ebf79326e780c390304,,,,,,,,,,,,,,,,,,,,,1205.6836,1205.6836,1205.6856,1206.3709,0,0,left,0.1719,,1206.3733,1206.982,1,1,right,1206.9838,1207.5119,0,0,left,1,1207.5119,1207.5119,1207.5136,1209.0094,0,36,36,36,1,0.6,0.4,0.2,0.8,,,,,,,,,,,,,,,0.0997,,0.6,0.4,0.6,0.4,0.2,0.8,0.4,0.6,,,0.011,,0.2,0.8,0.2,0.8,0.8,0.2,0.2,0.8,1,0
,,66ce71d5f8614777651a8931,66fc98db46fcc5b0e60e50b2,2024-10-01_21h55.17.267,mdp,2024.2.1,Win32,149.2537313,66fa4ebf79326e780c390304,,,,,,,,,,,,,,,,,,,,,1209.0098,1209.0099,1209.012,1209.9053,0,1,left,0.3818,,1209.908,1210.7663,1,1,right,1210.7698,1211.4119,1,1,right,0,1211.4121,1211.4121,1211.414,1212.9118,0,37,37,37,1,0.6,0.4,0.2,0.8,,,,,,,,,,,,,,,0.3417,,0.6,0.4,0.6,0.4,0.2,0.8,0.4,0.6,,,0.1327,,0.2,0.8,0.2,0.8,0.8,0.2,0.2,0.8,1,0
,,66ce71d5f8614777651a8931,66fc98db46fcc5b0e60e50b2,2024-10-01_21h55.17.267,mdp,2024.2.1,Win32,149.2537313,66fa4ebf79326e780c390304,,,,,,,,,,,,,,,,,,,,,1212.9125,1212.9125,1212.9142,1213.8563,0,1,left,0.431,,1213.8574,1214.5295,1,1,right,1214.5304,1215.0696,0,0,left,1,1215.0697,1215.0697,1215.0712,1216.5652,0,38,38,38,1,0.6,0.4,0.2,0.8,,,,,,,,,,,,,,,0.1605,,0.6,0.4,0.6,0.4,0.2,0.8,0.4,0.6,,,0.0317,,0.2,0.8,0.2,0.8,0.8,0.2,0.2,0.8,1,0
,,66ce71d5f8614777651a8931,66fc98db46fcc5b0e60e50b2,2024-10-01_21h55.17.267,mdp,2024.2.1,Win32,149.2537313,66fa4ebf79326e780c390304,,,,,,,,,,,,,,,,,,,,,1216.566,1216.566,1216.5683,1217.1064,0,0,left,0.028,,1217.1089,1217.7333,1,0,right,1217.7351,1218.269,0,0,left,1,1218.2692,1218.2692,1218.2705,1219.766,0,39,39,39,1,0.6,0.4,0.2,0.8,,,,,,,,,,,,,,,0.1147,,0.6,0.4,0.6,0.4,0.2,0.8,0.4,0.6,,,0.0196,,0.2,0.8,0.2,0.8,0.8,0.2,0.2,0.8,1,0
,,66ce71d5f8614777651a8931,66fc98db46fcc5b0e60e50b2,2024-10-01_21h55.17.267,mdp,2024.2.1,Win32,149.2537313,66fa4ebf79326e780c390304,,,,,,,,,,,,,,,,,,,,,1219.7666,1219.7667,1219.7685,1220.5646,0,0,left,0.2862,,1220.5667,1221.1759,1,0,right,1221.1779,1221.8007,0,1,left,0,1221.8008,1221.8008,1221.8031,1223.3007,0,40,40,40,1,0.6,0.4,0.2,0.8,,,,,,,,,,,,,,,0.0985,,0.6,0.4,0.6,0.4,0.2,0.8,0.4,0.6,,,0.1116,,0.2,0.8,0.2,0.8,0.8,0.2,0.2,0.8,1,0
,,66ce71d5f8614777651a8931,66fc98db46fcc5b0e60e50b2,2024-10-01_21h55.17.267,mdp,2024.2.1,Win32,149.2537313,66fa4ebf79326e780c390304,,,,,,,,,,,,,,,,,,,,,1223.3016,1223.3017,1223.3038,1224.2379,1,1,right,0.4237,,1224.2409,1224.7732,0,1,left,1224.7758,1225.2893,1,0,right,1,1225.2893,1225.2893,1225.2909,1226.786,0,41,41,41,1,0.6,0.4,0.2,0.8,,,,,,,,,,,,,,,0.0125,,0.6,0.4,0.6,0.4,0.2,0.8,0.4,0.6,,,0.0018,,0.2,0.8,0.2,0.8,0.8,0.2,0.2,0.8,1,0
,,66ce71d5f8614777651a8931,66fc98db46fcc5b0e60e50b2,2024-10-01_21h55.17.267,mdp,2024.2.1,Win32,149.2537313,66fa4ebf79326e780c390304,,,,,,,,,,,,,,,,,,,,,1226.7865,1226.7865,1226.7873,1227.5983,1,0,right,0.3002,,1227.6008,1228.1433,0,0,left,1228.1449,1228.6756,0,1,left,0,1228.6757,1228.6758,1228.6774,1230.1742,0,42,42,42,1,0.6,0.4,0.2,0.8,,,,,,,,,,,,,,,0.0313,,0.6,0.4,0.6,0.4,0.2,0.8,0.4,0.6,,,0.0129,,0.2,0.8,0.2,0.8,0.8,0.2,0.2,0.8,1,0
,,66ce71d5f8614777651a8931,66fc98db46fcc5b0e60e50b2,2024-10-01_21h55.17.267,mdp,2024.2.1,Win32,149.2537313,66fa4ebf79326e780c390304,,,,,,,,,,,,,,,,,,,,,1230.1754,1230.1755,1230.1777,1230.9335,0,0,left,0.2438,,1230.9356,1231.4463,1,0,right,1231.4484,1231.961,0,0,left,1,1231.9611,1231.9611,1231.9626,1233.4609,0,43,43,43,1,0.6,0.4,0.2,0.8,,,,,,,,,,,,,,,0.0005,,0.6,0.4,0.6,0.4,0.2,0.8,0.4,0.6,,,0.0007,,0.2,0.8,0.2,0.8,0.8,0.2,0.2,0.8,1,0
,,66ce71d5f8614777651a8931,66fc98db46fcc5b0e60e50b2,2024-10-01_21h55.17.267,mdp,2024.2.1,Win32,149.2537313,66fa4ebf79326e780c390304,,,,,,,,,,,,,,,,,,,,,1233.4616,1233.4616,1233.4633,1234.2117,0,0,left,0.2379,,1234.2138,1234.8244,1,0,right,1234.826,1235.3583,0,1,left,0,1235.3584,1235.3584,1235.3598,1236.8576,0,44,44,44,1,0.6,0.4,0.2,0.8,,,,,,,,,,,,,,,0.1009,,0.6,0.4,0.6,0.4,0.2,0.8,0.4,0.6,,,0.0165,,0.4,0.6,0.8,0.2,0.8,0.2,0.2,0.8,1,0
,,66ce71d5f8614777651a8931,66fc98db46fcc5b0e60e50b2,2024-10-01_21h55.17.267,mdp,2024.2.1,Win32,149.2537313,66fa4ebf79326e780c390304,,,,,,,,,,,,,,,,,,,,,1236.8586,1236.8586,1236.8601,1237.7402,0,0,left,0.3728,,1237.7419,1238.3833,0,0,left,1238.3855,1239.2236,1,0,right,1,1239.2237,1239.2237,1239.2253,1240.7237,0,45,45,45,1,0.6,0.4,0.2,0.8,,,,,,,,,,,,,,,0.1362,,0.6,0.4,0.6,0.4,0.2,0.8,0.4,0.6,,,0.3264,,0.4,0.6,0.8,0.2,0.8,0.2,0.2,0.8,1,0
,,66ce71d5f8614777651a8931,66fc98db46fcc5b0e60e50b2,2024-10-01_21h55.17.267,mdp,2024.2.1,Win32,149.2537313,66fa4ebf79326e780c390304,,,,,,,,,,,,,,,,,,,,,1240.7243,1240.7243,1240.7259,1241.7658,1,1,right,0.5355,,1241.7679,1242.314,0,1,left,1242.3169,1243.5635,0,1,left,0,1243.5635,1243.5635,1243.5651,1245.0635,0,46,46,46,1,0.6,0.4,0.2,0.8,,,,,,,,,,,,,,,0.0283,,0.6,0.4,0.6,0.4,0.2,0.8,0.4,0.6,,,0.7333,,0.4,0.6,0.8,0.2,0.4,0.6,0.6,0.4,1,0
,,66ce71d5f8614777651a8931,66fc98db46fcc5b0e60e50b2,2024-10-01_21h55.17.267,mdp,2024.2.1,Win32,149.2537313,66fa4ebf79326e780c390304,,,,,,,,,,,,,,,,,,,,,1245.064,1245.064,1245.0657,1245.6544,0,1,left,0.0846,,1245.6559,1246.2792,1,1,right,1246.281,1246.9523,1,0,right,1,1246.9524,1246.9524,1246.9542,1248.4523,0,47,47,47,1,0.6,0.4,0.2,0.8,,,,,,,,,,,,,,,0.1131,,0.6,0.4,0.6,0.4,0.2,0.8,0.4,0.6,,,0.1572,,0.4,0.6,0.8,0.2,0.4,0.6,0.6,0.4,1,0
,,66ce71d5f8614777651a8931,66fc98db46fcc5b0e60e50b2,2024-10-01_21h55.17.267,mdp,2024.2.1,Win32,149.2537313,66fa4ebf79326e780c390304,,,,,,,,,,,,,,,,,,,,,1248.4528,1248.4528,1248.4541,1249.2645,1,1,right,0.2955,,1249.2652,1249.8347,1,0,right,1249.8371,1250.8826,1,0,right,1,1250.8827,1250.8827,1250.8841,1252.383,0,48,48,48,1,0.6,0.4,0.2,0.8,,,,,,,,,,,,,,,0.0646,,0.6,0.4,0.6,0.4,0.4,0.6,0.8,0.2,,,0.529,,0.4,0.6,0.8,0.2,0.4,0.6,0.6,0.4,1,0
,,66ce71d5f8614777651a8931,66fc98db46fcc5b0e60e50b2,2024-10-01_21h55.17.267,mdp,2024.2.1,Win32,149.2537313,66fa4ebf79326e780c390304,,,,,,,,,,,,,,,,,,,,,1252.3837,1252.3837,1252.3853,1253.1473,0,0,left,0.2511,,1253.1492,1254.0639,1,1,right,1254.0659,1254.5969,1,0,right,1,1254.597,1254.597,1254.5989,1256.0975,0,49,49,49,1,0.6,0.4,0.2,0.8,,,,,,,,,,,,,,,0.3977,,0.6,0.4,0.6,0.4,0.4,0.6,0.8,0.2,,,0.0212,,0.4,0.6,0.8,0.2,0.4,0.6,0.6,0.4,1,0
,,66ce71d5f8614777651a8931,66fc98db46fcc5b0e60e50b2,2024-10-01_21h55.17.267,mdp,2024.2.1,Win32,149.2537313,66fa4ebf79326e780c390304,,,,,,,,,,,,,,,,,,,,,,,,,,,,,,,,,,,,,,,,,,,,,,,,,,,,,,,,1256.0976,1314.6032,0,3,3,5,1,imgs/rabbit.png,imgs/squirrel.png,imgs/lion.png,imgs/goat.png,imgs/cat.png,,,,,,,,,,,,,,,,,,,,,,,,
,,66ce71d5f8614777651a8931,66fc98db46fcc5b0e60e50b2,2024-10-01_21h55.17.267,mdp,2024.2.1,Win32,149.2537313,66fa4ebf79326e780c390304,,,,,,,,,,,,,,1,seqs/st1seq17.csv,1314.6214,1316.8311,space,1.7004,,1316.8376,1316.8376,1316.8391,1320.4553,1,1,right,3.1043,,1320.4566,1320.4572,1,0,,1320.458,1320.4586,1,0,,0,1320.4587,1320.4587,1320.4591,1321.9572,0,0,0,0,1,0.2,0.8,0.8,0.2,1,0,,,,,,,,,,,,,,,,,,,,,,,,,,,,,,,,,,,,
,,66ce71d5f8614777651a8931,66fc98db46fcc5b0e60e50b2,2024-10-01_21h55.17.267,mdp,2024.2.1,Win32,149.2537313,66fa4ebf79326e780c390304,,,,,,,,,,,,,,,,,,,,,1321.9578,1321.9578,1321.9601,1322.9085,1,1,right,0.4382,,1322.9108,1322.9119,1,1,,1322.9132,1322.9141,1,1,,0,1322.9142,1322.9142,1322.9155,1324.4153,0,1,1,1,1,0.8,0.2,0.2,0.8,1,0,,,,,,,,,,,,,,,,,,,,,,,,,,,,,,,,,,,,
,,66ce71d5f8614777651a8931,66fc98db46fcc5b0e60e50b2,2024-10-01_21h55.17.267,mdp,2024.2.1,Win32,149.2537313,66fa4ebf79326e780c390304,,,,,,,,,,,,,,,,,,,,,1324.4158,1324.4159,1324.4178,1325.221,0,0,left,0.2938,,1325.2228,1325.2239,1,0,,1325.2248,1325.2255,1,0,,1,1325.2256,1325.2256,1325.2263,1326.7211,0,2,2,2,1,0.8,0.2,0.2,0.8,1,0,,,,,,,,,,,,,,,,,,,,,,,,,,,,,,,,,,,,
,,66ce71d5f8614777651a8931,66fc98db46fcc5b0e60e50b2,2024-10-01_21h55.17.267,mdp,2024.2.1,Win32,149.2537313,66fa4ebf79326e780c390304,,,,,,,,,,,,,,,,,,,,,1326.7219,1326.7219,1326.7237,1327.5335,0,0,left,0.2985,,1327.5352,1327.5364,1,0,,1327.5375,1327.5383,1,0,,1,1327.5383,1327.5383,1327.5391,1329.0396,0,3,3,3,1,0.8,0.2,0.2,0.8,1,0,,,,,,,,,,,,,,,,,,,,,,,,,,,,,,,,,,,,
,,66ce71d5f8614777651a8931,66fc98db46fcc5b0e60e50b2,2024-10-01_21h55.17.267,mdp,2024.2.1,Win32,149.2537313,66fa4ebf79326e780c390304,,,,,,,,,,,,,,,,,,,,,1329.0398,1329.0398,1329.0411,1329.8453,0,0,left,0.2903,,1329.8461,1329.8467,1,0,,1329.8474,1329.8478,1,1,,1,1329.8478,1329.8478,1329.848,1331.3457,0,4,4,4,1,0.8,0.2,0.2,0.8,1,0,,,,,,,,,,,,,,,,,,,,,,,,,,,,,,,,,,,,
,,66ce71d5f8614777651a8931,66fc98db46fcc5b0e60e50b2,2024-10-01_21h55.17.267,mdp,2024.2.1,Win32,149.2537313,66fa4ebf79326e780c390304,,,,,,,,,,,,,,,,,,,,,1331.3464,1331.3464,1331.3483,1332.1437,0,0,left,0.2851,,1332.1447,1332.1454,1,0,,1332.1457,1332.146,1,1,,1,1332.1461,1332.1461,1332.1465,1333.6443,0,5,5,5,1,0.8,0.2,0.2,0.8,1,0,,,,,,,,,,,,,,,,,,,,,,,,,,,,,,,,,,,,
,,66ce71d5f8614777651a8931,66fc98db46fcc5b0e60e50b2,2024-10-01_21h55.17.267,mdp,2024.2.1,Win32,149.2537313,66fa4ebf79326e780c390304,,,,,,,,,,,,,,,,,,,,,1333.6449,1333.6449,1333.6471,1334.4152,0,0,left,0.2584,,1334.4174,1334.4185,1,0,,1334.4198,1334.421,1,0,,1,1334.4211,1334.4211,1334.4225,1335.9225,0,6,6,6,1,0.8,0.2,0.2,0.8,1,0,,,,,,,,,,,,,,,,,,,,,,,,,,,,,,,,,,,,
,,66ce71d5f8614777651a8931,66fc98db46fcc5b0e60e50b2,2024-10-01_21h55.17.267,mdp,2024.2.1,Win32,149.2537313,66fa4ebf79326e780c390304,,,,,,,,,,,,,,,,,,,,,1335.9234,1335.9234,1335.9248,1336.7068,0,0,left,0.2712,,1336.7087,1336.7097,1,0,,1336.7109,1336.7117,1,0,,1,1336.7117,1336.7118,1336.7126,1338.2103,0,7,7,7,1,0.8,0.2,0.2,0.8,1,0,,,,,,,,,,,,,,,,,,,,,,,,,,,,,,,,,,,,
,,66ce71d5f8614777651a8931,66fc98db46fcc5b0e60e50b2,2024-10-01_21h55.17.267,mdp,2024.2.1,Win32,149.2537313,66fa4ebf79326e780c390304,,,,,,,,,,,,,,,,,,,,,1338.2107,1338.2107,1338.2123,1338.9353,0,1,left,0.2124,,1338.9363,1338.9368,1,0,,1338.9377,1338.9382,1,1,,0,1338.9382,1338.9382,1338.9386,1340.4352,0,8,8,8,1,0.4,0.6,0.6,0.4,1,0,,,,,,,,,,,,,,,,,,,,,,,,,,,,,,,,,,,,
,,66ce71d5f8614777651a8931,66fc98db46fcc5b0e60e50b2,2024-10-01_21h55.17.267,mdp,2024.2.1,Win32,149.2537313,66fa4ebf79326e780c390304,,,,,,,,,,,,,,,,,,,,,1340.4356,1340.4356,1340.437,1341.1573,0,1,left,0.2093,,1341.158,1341.1588,1,1,,1341.1595,1341.1601,1,1,,0,1341.1601,1341.1602,1341.1606,1342.6577,0,9,9,9,1,0.4,0.6,0.6,0.4,1,0,,,,,,,,,,,,,,,,,,,,,,,,,,,,,,,,,,,,
,,66ce71d5f8614777651a8931,66fc98db46fcc5b0e60e50b2,2024-10-01_21h55.17.267,mdp,2024.2.1,Win32,149.2537313,66fa4ebf79326e780c390304,,,,,,,,,,,,,,,,,,,,,1342.6582,1342.6582,1342.6597,1343.2967,0,1,left,0.1253,,1343.2985,1343.2996,1,1,,1343.3005,1343.3014,1,1,,0,1343.3014,1343.3015,1343.3022,1344.8033,0,10,10,10,1,0.4,0.6,0.6,0.4,1,0,,,,,,,,,,,,,,,,,,,,,,,,,,,,,,,,,,,,
,,66ce71d5f8614777651a8931,66fc98db46fcc5b0e60e50b2,2024-10-01_21h55.17.267,mdp,2024.2.1,Win32,149.2537313,66fa4ebf79326e780c390304,,,,,,,,,,,,,,,,,,,,,1344.8041,1344.8042,1344.8064,1345.4225,1,1,right,0.1077,,1345.4244,1345.4258,1,1,,1345.4268,1345.4278,1,1,,0,1345.4278,1345.4278,1345.4288,1346.9239,0,11,11,11,1,0.6,0.4,0.4,0.6,1,0,,,,,,,,,,,,,,,,,,,,,,,,,,,,,,,,,,,,
,,66ce71d5f8614777651a8931,66fc98db46fcc5b0e60e50b2,2024-10-01_21h55.17.267,mdp,2024.2.1,Win32,149.2537313,66fa4ebf79326e780c390304,,,,,,,,,,,,,,,,,,,,,1346.9245,1346.9246,1346.9264,1347.4709,1,1,right,0.0385,,1347.473,1347.4739,1,1,,1347.475,1347.4756,1,0,,0,1347.4757,1347.4757,1347.4764,1348.9767,0,12,12,12,1,0.6,0.4,0.4,0.6,1,0,,,,,,,,,,,,,,,,,,,,,,,,,,,,,,,,,,,,
,,66ce71d5f8614777651a8931,66fc98db46fcc5b0e60e50b2,2024-10-01_21h55.17.267,mdp,2024.2.1,Win32,149.2537313,66fa4ebf79326e780c390304,,,,,,,,,,,,,,,,,,,,,1348.9772,1348.9772,1348.9783,1349.6318,0,1,left,0.1403,,1349.6333,1349.6343,1,1,,1349.6353,1349.6362,1,0,,0,1349.6364,1349.6364,1349.6378,1351.1365,0,13,13,13,1,0.6,0.4,0.4,0.6,1,0,,,,,,,,,,,,,,,,,,,,,,,,,,,,,,,,,,,,
,,66ce71d5f8614777651a8931,66fc98db46fcc5b0e60e50b2,2024-10-01_21h55.17.267,mdp,2024.2.1,Win32,149.2537313,66fa4ebf79326e780c390304,,,,,,,,,,,,,,,,,,,,,1351.1372,1351.1372,1351.1391,1352.3034,1,1,right,0.6539,,1352.3056,1352.3064,1,1,,1352.3072,1352.3078,1,1,,0,1352.3079,1352.3079,1352.3085,1353.8031,0,14,14,14,1,0.6,0.4,0.4,0.6,1,0,,,,,,,,,,,,,,,,,,,,,,,,,,,,,,,,,,,,
,,66ce71d5f8614777651a8931,66fc98db46fcc5b0e60e50b2,2024-10-01_21h55.17.267,mdp,2024.2.1,Win32,149.2537313,66fa4ebf79326e780c390304,,,,,,,,,,,,,,,,,,,,,1353.8037,1353.8037,1353.8057,1354.5047,1,0,right,0.1881,,1354.507,1354.5081,1,1,,1354.5089,1354.5096,1,1,,1,1354.5096,1354.5096,1354.5103,1356.0046,0,15,15,15,1,0.6,0.4,0.4,0.6,1,0,,,,,,,,,,,,,,,,,,,,,,,,,,,,,,,,,,,,
,,66ce71d5f8614777651a8931,66fc98db46fcc5b0e60e50b2,2024-10-01_21h55.17.267,mdp,2024.2.1,Win32,149.2537313,66fa4ebf79326e780c390304,,,,,,,,,,,,,,,,,,,,,1356.005,1356.005,1356.0068,1356.5863,1,1,right,0.0704,,1356.588,1356.5893,1,1,,1356.5904,1356.5911,1,0,,0,1356.5912,1356.5912,1356.5918,1358.0873,0,16,16,16,1,0.6,0.4,0.4,0.6,1,0,,,,,,,,,,,,,,,,,,,,,,,,,,,,,,,,,,,,
,,66ce71d5f8614777651a8931,66fc98db46fcc5b0e60e50b2,2024-10-01_21h55.17.267,mdp,2024.2.1,Win32,149.2537313,66fa4ebf79326e780c390304,,,,,,,,,,,,,,,,,,,,,1358.0879,1358.0879,1358.0893,1358.9441,0,1,left,0.343,,1358.9456,1358.9468,1,1,,1358.9478,1358.9488,1,1,,0,1358.9489,1358.9489,1358.9499,1360.4487,0,17,17,17,1,0.2,0.8,0.6,0.4,1,0,,,,,,,,,,,,,,,,,,,,,,,,,,,,,,,,,,,,
,,66ce71d5f8614777651a8931,66fc98db46fcc5b0e60e50b2,2024-10-01_21h55.17.267,mdp,2024.2.1,Win32,149.2537313,66fa4ebf79326e780c390304,,,,,,,,,,,,,,,,,,,,,1360.4493,1360.4493,1360.4507,1361.4002,1,1,right,0.4384,,1361.4024,1361.4034,1,1,,1361.4041,1361.4048,1,1,,0,1361.4049,1361.4049,1361.4055,1362.9001,0,18,18,18,1,0.2,0.8,0.6,0.4,1,0,,,,,,,,,,,,,,,,,,,,,,,,,,,,,,,,,,,,
,,66ce71d5f8614777651a8931,66fc98db46fcc5b0e60e50b2,2024-10-01_21h55.17.267,mdp,2024.2.1,Win32,149.2537313,66fa4ebf79326e780c390304,,,,,,,,,,,,,,,,,,,,,1362.9006,1362.9007,1362.9025,1363.756,1,1,right,0.3434,,1363.7577,1363.7584,1,0,,1363.7593,1363.7598,1,1,,0,1363.7599,1363.7599,1363.7606,1365.261,0,19,19,19,1,0.2,0.8,0.6,0.4,1,0,,,,,,,,,,,,,,,,,,,,,,,,,,,,,,,,,,,,
,,66ce71d5f8614777651a8931,66fc98db46fcc5b0e60e50b2,2024-10-01_21h55.17.267,mdp,2024.2.1,Win32,149.2537313,66fa4ebf79326e780c390304,,,,,,,,,,,,,,,,,,,,,1365.2614,1365.2615,1365.2634,1365.9211,0,1,left,0.1485,,1365.9225,1365.9237,1,1,,1365.9247,1365.9254,1,1,,0,1365.9254,1365.9254,1365.9261,1367.4225,0,20,20,20,1,0.2,0.8,0.6,0.4,1,0,,,,,,,,,,,,,,,,,,,,,,,,,,,,,,,,,,,,
,,66ce71d5f8614777651a8931,66fc98db46fcc5b0e60e50b2,2024-10-01_21h55.17.267,mdp,2024.2.1,Win32,149.2537313,66fa4ebf79326e780c390304,,,,,,,,,,,,,,,,,,,,,1367.4228,1367.4228,1367.4242,1367.9834,0,1,left,0.0493,,1367.985,1367.9862,1,1,,1367.9871,1367.9879,1,0,,0,1367.988,1367.988,1367.9887,1369.4832,0,21,21,21,1,0.2,0.8,0.6,0.4,1,0,,,,,,,,,,,,,,,,,,,,,,,,,,,,,,,,,,,,
,,66ce71d5f8614777651a8931,66fc98db46fcc5b0e60e50b2,2024-10-01_21h55.17.267,mdp,2024.2.1,Win32,149.2537313,66fa4ebf79326e780c390304,,,,,,,,,,,,,,,,,,,,,1369.4839,1369.484,1369.4858,1370.1658,1,0,right,0.1701,,1370.167,1370.1678,1,0,,1370.1687,1370.1692,1,0,,1,1370.1693,1370.1693,1370.1701,1371.6704,0,22,22,22,1,0.2,0.8,0.6,0.4,1,0,,,,,,,,,,,,,,,,,,,,,,,,,,,,,,,,,,,,
,,66ce71d5f8614777651a8931,66fc98db46fcc5b0e60e50b2,2024-10-01_21h55.17.267,mdp,2024.2.1,Win32,149.2537313,66fa4ebf79326e780c390304,,,,,,,,,,,,,,,,,,,,,1371.6708,1371.6708,1371.6722,1372.5046,1,1,right,0.3223,,1372.5075,1372.5085,1,0,,1372.5099,1372.5116,1,1,,0,1372.5117,1372.5117,1372.5132,1374.0108,0,23,23,23,1,0.2,0.8,0.6,0.4,1,0,,,,,,,,,,,,,,,,,,,,,,,,,,,,,,,,,,,,
,,66ce71d5f8614777651a8931,66fc98db46fcc5b0e60e50b2,2024-10-01_21h55.17.267,mdp,2024.2.1,Win32,149.2537313,66fa4ebf79326e780c390304,,,,,,,,,,,,,,,,,,,,,1374.0114,1374.0114,1374.013,1374.6094,1,0,right,0.0832,,1374.6111,1374.6125,1,0,,1374.6136,1374.6145,1,0,,1,1374.6147,1374.6147,1374.6161,1376.1148,0,24,24,24,1,0.2,0.8,0.6,0.4,1,0,,,,,,,,,,,,,,,,,,,,,,,,,,,,,,,,,,,,
,,66ce71d5f8614777651a8931,66fc98db46fcc5b0e60e50b2,2024-10-01_21h55.17.267,mdp,2024.2.1,Win32,149.2537313,66fa4ebf79326e780c390304,,,,,,,,,,,,,,,,,,,,,1376.1153,1376.1153,1376.1164,1376.6612,1,1,right,0.0283,,1376.6623,1376.663,1,0,,1376.6639,1376.6652,1,0,,0,1376.6652,1376.6652,1376.6659,1378.1657,0,25,25,25,1,0.2,0.8,0.6,0.4,1,0,,,,,,,,,,,,,,,,,,,,,,,,,,,,,,,,,,,,
,,66ce71d5f8614777651a8931,66fc98db46fcc5b0e60e50b2,2024-10-01_21h55.17.267,mdp,2024.2.1,Win32,149.2537313,66fa4ebf79326e780c390304,,,,,,,,,,,,,,,,,,,,,1378.1664,1378.1664,1378.1682,1379.0801,1,0,right,0.4029,,1379.0821,1379.0833,1,1,,1379.0847,1379.0858,1,1,,1,1379.0859,1379.0859,1379.0871,1380.5877,0,26,26,26,1,0.2,0.8,0.6,0.4,1,0,,,,,,,,,,,,,,,,,,,,,,,,,,,,,,,,,,,,
,,66ce71d5f8614777651a8931,66fc98db46fcc5b0e60e50b2,2024-10-01_21h55.17.267,mdp,2024.2.1,Win32,149.2537313,66fa4ebf79326e780c390304,,,,,,,,,,,,,,,,,,,,,1380.5886,1380.5886,1380.5907,1381.3679,1,0,right,0.2658,,1381.3693,1381.3702,1,1,,1381.3713,1381.3723,1,1,,1,1381.3723,1381.3723,1381.3736,1382.8715,0,27,27,27,1,0.2,0.8,0.6,0.4,1,0,,,,,,,,,,,,,,,,,,,,,,,,,,,,,,,,,,,,
,,66ce71d5f8614777651a8931,66fc98db46fcc5b0e60e50b2,2024-10-01_21h55.17.267,mdp,2024.2.1,Win32,149.2537313,66fa4ebf79326e780c390304,,,,,,,,,,,,,,,,,,,,,1382.8719,1382.8719,1382.8734,1383.601,1,0,right,0.2161,,1383.603,1383.6041,1,1,,1383.6053,1383.6061,1,1,,1,1383.6062,1383.6062,1383.6068,1385.1076,0,28,28,28,1,0.2,0.8,0.6,0.4,1,0,,,,,,,,,,,,,,,,,,,,,,,,,,,,,,,,,,,,
,,66ce71d5f8614777651a8931,66fc98db46fcc5b0e60e50b2,2024-10-01_21h55.17.267,mdp,2024.2.1,Win32,149.2537313,66fa4ebf79326e780c390304,,,,,,,,,,,,,,,,,,,,,1385.108,1385.1081,1385.1097,1385.6911,1,0,right,0.0703,,1385.6925,1385.6935,1,1,,1385.6944,1385.6951,1,0,,1,1385.6951,1385.6951,1385.6958,1387.1956,0,29,29,29,1,0.8,0.2,0.4,0.6,1,0,,,,,,,,,,,,,,,,,,,,,,,,,,,,,,,,,,,,
,,66ce71d5f8614777651a8931,66fc98db46fcc5b0e60e50b2,2024-10-01_21h55.17.267,mdp,2024.2.1,Win32,149.2537313,66fa4ebf79326e780c390304,,,,,,,,,,,,,,,,,,,,,1387.1961,1387.1961,1387.1977,1387.7329,1,1,right,0.026,,1387.7355,1387.7365,1,0,,1387.7374,1387.7382,1,1,,0,1387.7383,1387.7383,1387.7389,1389.2432,0,30,30,30,1,0.8,0.2,0.4,0.6,1,0,,,,,,,,,,,,,,,,,,,,,,,,,,,,,,,,,,,,
,,66ce71d5f8614777651a8931,66fc98db46fcc5b0e60e50b2,2024-10-01_21h55.17.267,mdp,2024.2.1,Win32,149.2537313,66fa4ebf79326e780c390304,,,,,,,,,,,,,,,,,,,,,1389.2433,1389.2433,1389.2442,1389.9377,1,1,right,0.1789,,1389.9386,1389.9392,1,0,,1389.9401,1389.9409,1,1,,0,1389.941,1389.941,1389.9415,1391.4378,0,31,31,31,1,0.8,0.2,0.4,0.6,1,0,,,,,,,,,,,,,,,,,,,,,,,,,,,,,,,,,,,,
,,66ce71d5f8614777651a8931,66fc98db46fcc5b0e60e50b2,2024-10-01_21h55.17.267,mdp,2024.2.1,Win32,149.2537313,66fa4ebf79326e780c390304,,,,,,,,,,,,,,,,,,,,,1391.4381,1391.4381,1391.4391,1392.1767,1,1,right,0.2242,,1392.1778,1392.1788,1,0,,1392.1793,1392.1797,1,1,,0,1392.1797,1392.1797,1392.1801,1393.6768,0,32,32,32,1,0.8,0.2,0.4,0.6,1,0,,,,,,,,,,,,,,,,,,,,,,,,,,,,,,,,,,,,
,,66ce71d5f8614777651a8931,66fc98db46fcc5b0e60e50b2,2024-10-01_21h55.17.267,mdp,2024.2.1,Win32,149.2537313,66fa4ebf79326e780c390304,,,,,,,,,,,,,,,,,,,,,1393.6773,1393.6773,1393.6792,1394.3054,0,1,left,0.1135,,1394.3078,1394.3094,1,1,,1394.3116,1394.3129,1,0,,0,1394.313,1394.313,1394.3145,1395.8087,0,33,33,33,1,0.8,0.2,0.4,0.6,1,0,,,,,,,,,,,,,,,,,,,,,,,,,,,,,,,,,,,,
,,66ce71d5f8614777651a8931,66fc98db46fcc5b0e60e50b2,2024-10-01_21h55.17.267,mdp,2024.2.1,Win32,149.2537313,66fa4ebf79326e780c390304,,,,,,,,,,,,,,,,,,,,,1395.8092,1395.8092,1395.8116,1396.712,0,0,left,0.3909,,1396.7138,1396.7149,1,0,,1396.7158,1396.7165,1,0,,1,1396.7165,1396.7165,1396.7173,1398.2202,0,34,34,34,1,0.8,0.2,0.4,0.6,1,0,,,,,,,,,,,,,,,,,,,,,,,,,,,,,,,,,,,,
,,66ce71d5f8614777651a8931,66fc98db46fcc5b0e60e50b2,2024-10-01_21h55.17.267,mdp,2024.2.1,Win32,149.2537313,66fa4ebf79326e780c390304,,,,,,,,,,,,,,,,,,,,,1398.2207,1398.2207,1398.2222,1400.2083,1,0,right,1.4708,,1400.2095,1400.2102,1,1,,1400.2112,1400.2123,1,1,,1,1400.2125,1400.2125,1400.2135,1401.713,0,35,35,35,1,0.8,0.2,0.4,0.6,1,0,,,,,,,,,,,,,,,,,,,,,,,,,,,,,,,,,,,,
,,66ce71d5f8614777651a8931,66fc98db46fcc5b0e60e50b2,2024-10-01_21h55.17.267,mdp,2024.2.1,Win32,149.2537313,66fa4ebf79326e780c390304,,,,,,,,,,,,,,,,,,,,,1401.7142,1401.7142,1401.7157,1403.1079,0,0,left,0.8778,,1403.1102,1403.1113,1,0,,1403.1128,1403.1143,1,1,,1,1403.1144,1403.1144,1403.1159,1404.6141,0,36,36,36,1,0.8,0.2,0.4,0.6,1,0,,,,,,,,,,,,,,,,,,,,,,,,,,,,,,,,,,,,
,,66ce71d5f8614777651a8931,66fc98db46fcc5b0e60e50b2,2024-10-01_21h55.17.267,mdp,2024.2.1,Win32,149.2537313,66fa4ebf79326e780c390304,,,,,,,,,,,,,,,,,,,,,1404.6147,1404.6147,1404.6167,1405.9741,0,0,left,0.847,,1405.9757,1405.9766,1,1,,1405.9779,1405.979,1,1,,1,1405.9791,1405.9791,1405.9799,1407.4751,0,37,37,37,1,0.8,0.2,0.4,0.6,1,0,,,,,,,,,,,,,,,,,,,,,,,,,,,,,,,,,,,,
,,66ce71d5f8614777651a8931,66fc98db46fcc5b0e60e50b2,2024-10-01_21h55.17.267,mdp,2024.2.1,Win32,149.2537313,66fa4ebf79326e780c390304,,,,,,,,,,,,,,,,,,,,,1407.4756,1407.4756,1407.4773,1408.3156,0,1,left,0.329,,1408.3177,1408.3187,1,1,,1408.3201,1408.3222,1,0,,0,1408.3223,1408.3223,1408.3235,1409.8223,0,38,38,38,1,0.4,0.6,0.8,0.2,1,0,,,,,,,,,,,,,,,,,,,,,,,,,,,,,,,,,,,,
,,66ce71d5f8614777651a8931,66fc98db46fcc5b0e60e50b2,2024-10-01_21h55.17.267,mdp,2024.2.1,Win32,149.2537313,66fa4ebf79326e780c390304,,,,,,,,,,,,,,,,,,,,,1409.8229,1409.8229,1409.8248,1410.5516,0,1,left,0.2231,,1410.5538,1410.5546,1,0,,1410.5557,1410.5565,1,1,,0,1410.5565,1410.5565,1410.5573,1412.0587,0,39,39,39,1,0.4,0.6,0.8,0.2,1,0,,,,,,,,,,,,,,,,,,,,,,,,,,,,,,,,,,,,
