init_exp.started,init_exp.stopped,participant,session,date,expName,psychopyVersion,OS,frameRate,study_id,disp_instruction.started,disp_instruction.stopped,instruction.thisRepN,instruction.thisTrialN,instruction.thisN,instruction.thisIndex,instruction.ran,instimg_path,consent.started,consent.stopped,key_resp_3.keys,key_resp_3.rt,key_resp_3.duration,n_steps,sequence_path,init_block.started,init_block.stopped,key_resp.keys,key_resp.rt,key_resp.duration,init_trials.started,init_trials.stopped,step0.started,step0.stopped,act0,s1,res0.keys,res0.rt,res0.duration,step1.started,step1.stopped,act1,s2,res1.keys,step2.started,step2.stopped,act2,s3,res2.keys,rew,reward_comp.started,reward_comp.stopped,reward_disp.started,reward_disp.stopped,trials.thisRepN,trials.thisTrialN,trials.thisN,trials.thisIndex,trials.ran,s00a0s10,s00a0s11,s00a1s10,s00a1s11,rew10,rew11,break_block.started,break_block.stopped,block.thisRepN,block.thisTrialN,block.thisN,block.thisIndex,block.ran,s00path,s10path,s11path,s20path,s21path,res1.rt,res1.duration,s10a0s20,s10a0s21,s10a1s20,s10a1s21,s11a0s20,s11a0s21,s11a1s20,s11a1s21,rew20,rew21,res2.rt,res2.duration,s20a0s30,s20a0s31,s20a1s30,s20a1s31,s21a0s30,s21a0s31,s21a1s30,s21a1s31,rew30,rew31
0.0003,0.0011,66ce527e14f31490d3e5e44b,66fc97dff25af90ab5b70f20,2024-10-02_01h48.49.958,mdp,2024.2.1,MacIntel,60.60606061,66fa4ebf79326e780c390304,,,,,,,,,,,,,,,,,,,,,,,,,,,,,,,,,,,,,,,,,,,,,,,,,,,,,,,,,,,,,,,,,,,,,,,,,,,,,,,,,,,,,,,,,,,
,,66ce527e14f31490d3e5e44b,66fc97dff25af90ab5b70f20,2024-10-02_01h48.49.958,mdp,2024.2.1,MacIntel,60.60606061,66fa4ebf79326e780c390304,0.0035,22.8434,0,0,0,0,1,rlnn_exp/rlnn_exp.001.png,,,,,,,,,,,,,,,,,,,,,,,,,,,,,,,,,,,,,,,,,,,,,,,,,,,,,,,,,,,,,,,,,,,,,,,,,,,,,,,,,,,
,,66ce527e14f31490d3e5e44b,66fc97dff25af90ab5b70f20,2024-10-02_01h48.49.958,mdp,2024.2.1,MacIntel,60.60606061,66fa4ebf79326e780c390304,22.8444,35.0756,0,1,1,1,1,rlnn_exp/rlnn_exp.002.png,,,,,,,,,,,,,,,,,,,,,,,,,,,,,,,,,,,,,,,,,,,,,,,,,,,,,,,,,,,,,,,,,,,,,,,,,,,,,,,,,,,
,,66ce527e14f31490d3e5e44b,66fc97dff25af90ab5b70f20,2024-10-02_01h48.49.958,mdp,2024.2.1,MacIntel,60.60606061,66fa4ebf79326e780c390304,35.0758,56.3251,0,2,2,2,1,rlnn_exp/rlnn_exp.003.png,,,,,,,,,,,,,,,,,,,,,,,,,,,,,,,,,,,,,,,,,,,,,,,,,,,,,,,,,,,,,,,,,,,,,,,,,,,,,,,,,,,
,,66ce527e14f31490d3e5e44b,66fc97dff25af90ab5b70f20,2024-10-02_01h48.49.958,mdp,2024.2.1,MacIntel,60.60606061,66fa4ebf79326e780c390304,56.3259,67.2261,0,3,3,3,1,rlnn_exp/rlnn_exp.004.png,,,,,,,,,,,,,,,,,,,,,,,,,,,,,,,,,,,,,,,,,,,,,,,,,,,,,,,,,,,,,,,,,,,,,,,,,,,,,,,,,,,
,,66ce527e14f31490d3e5e44b,66fc97dff25af90ab5b70f20,2024-10-02_01h48.49.958,mdp,2024.2.1,MacIntel,60.60606061,66fa4ebf79326e780c390304,,,,,,,,,67.2266,94.2421,y,16.9741,,,,,,,,,,,,,,,,,,,,,,,,,,,,,,,,,,,,,,,,,,,,,,,,,,,,,,,,,,,,,,,,,,,,,,,,,,,,,,,
,,66ce527e14f31490d3e5e44b,66fc97dff25af90ab5b70f20,2024-10-02_01h48.49.958,mdp,2024.2.1,MacIntel,60.60606061,66fa4ebf79326e780c390304,,,,,,,,,,,,,,1,seqs/st1seq42.csv,94.2474,96.5429,space,1.7674,,96.5472,96.5473,96.5478,104.3757,1,1,right,7.3079,,104.376,104.3764,,0,,104.3765,104.3768,,0,,0,104.3768,104.3768,104.3769,105.8764,0,0,0,0,1,0.2,0.8,0.6,0.4,1,0,,,,,,,,,,,,,,,,,,,,,,,,,,,,,,,,,,,,
,,66ce527e14f31490d3e5e44b,66fc97dff25af90ab5b70f20,2024-10-02_01h48.49.958,mdp,2024.2.1,MacIntel,60.60606061,66fa4ebf79326e780c390304,,,,,,,,,,,,,,,,,,,,,105.8771,105.8771,105.8783,108.5427,0,1,left,2.1384,,108.5441,108.545,,1,,108.5456,108.5463,,0,,0,108.5463,108.5463,108.5467,110.0427,0,1,1,1,1,0.8,0.2,0.4,0.6,1,0,,,,,,,,,,,,,,,,,,,,,,,,,,,,,,,,,,,,
,,66ce527e14f31490d3e5e44b,66fc97dff25af90ab5b70f20,2024-10-02_01h48.49.958,mdp,2024.2.1,MacIntel,60.60606061,66fa4ebf79326e780c390304,,,,,,,,,,,,,,,,,,,,,110.0433,110.0433,110.045,111.276,1,0,right,0.6998,,111.2773,111.2783,,1,,111.279,111.2796,,1,,1,111.2796,111.2796,111.28,112.776,0,2,2,2,1,0.8,0.2,0.4,0.6,1,0,,,,,,,,,,,,,,,,,,,,,,,,,,,,,,,,,,,,
,,66ce527e14f31490d3e5e44b,66fc97dff25af90ab5b70f20,2024-10-02_01h48.49.958,mdp,2024.2.1,MacIntel,60.60606061,66fa4ebf79326e780c390304,,,,,,,,,,,,,,,,,,,,,112.7766,112.7766,112.7779,114.8928,1,0,right,1.5867,,114.8941,114.895,,1,,114.8954,114.8959,,1,,1,114.8959,114.8959,114.8963,116.3928,0,3,3,3,1,0.8,0.2,0.4,0.6,1,0,,,,,,,,,,,,,,,,,,,,,,,,,,,,,,,,,,,,
,,66ce527e14f31490d3e5e44b,66fc97dff25af90ab5b70f20,2024-10-02_01h48.49.958,mdp,2024.2.1,MacIntel,60.60606061,66fa4ebf79326e780c390304,,,,,,,,,,,,,,,,,,,,,116.3934,116.3934,116.3948,118.8592,1,1,right,1.9446,,118.8605,118.8614,,1,,118.862,118.8626,,1,,0,118.8627,118.8627,118.8632,120.3594,0,4,4,4,1,0.8,0.2,0.4,0.6,1,0,,,,,,,,,,,,,,,,,,,,,,,,,,,,,,,,,,,,
,,66ce527e14f31490d3e5e44b,66fc97dff25af90ab5b70f20,2024-10-02_01h48.49.958,mdp,2024.2.1,MacIntel,60.60606061,66fa4ebf79326e780c390304,,,,,,,,,,,,,,,,,,,,,120.36,120.36,120.3614,123.376,1,1,right,2.4888,,123.3773,123.3782,,0,,123.3788,123.3793,,0,,0,123.3793,123.3793,123.3797,124.8761,0,5,5,5,1,0.2,0.8,0.6,0.4,1,0,,,,,,,,,,,,,,,,,,,,,,,,,,,,,,,,,,,,
,,66ce527e14f31490d3e5e44b,66fc97dff25af90ab5b70f20,2024-10-02_01h48.49.958,mdp,2024.2.1,MacIntel,60.60606061,66fa4ebf79326e780c390304,,,,,,,,,,,,,,,,,,,,,124.8768,124.8768,124.8782,125.9757,0,0,left,0.5708,,125.977,125.9779,,1,,125.9787,125.979,,1,,1,125.9791,125.9791,125.9795,127.476,0,6,6,6,1,0.2,0.8,0.6,0.4,1,0,,,,,,,,,,,,,,,,,,,,,,,,,,,,,,,,,,,,
,,66ce527e14f31490d3e5e44b,66fc97dff25af90ab5b70f20,2024-10-02_01h48.49.958,mdp,2024.2.1,MacIntel,60.60606061,66fa4ebf79326e780c390304,,,,,,,,,,,,,,,,,,,,,127.4766,127.4766,127.4779,130.393,0,1,left,2.3832,,130.3944,130.3955,,1,,130.3963,130.3969,,1,,0,130.397,130.397,130.3975,131.8927,0,7,7,7,1,0.2,0.8,0.6,0.4,1,0,,,,,,,,,,,,,,,,,,,,,,,,,,,,,,,,,,,,
,,66ce527e14f31490d3e5e44b,66fc97dff25af90ab5b70f20,2024-10-02_01h48.49.958,mdp,2024.2.1,MacIntel,60.60606061,66fa4ebf79326e780c390304,,,,,,,,,,,,,,,,,,,,,131.8935,131.8935,131.8948,132.8761,1,0,right,0.4535,,132.8776,132.8786,,1,,132.8793,132.8797,,0,,1,132.8798,132.8799,132.8803,134.376,0,8,8,8,1,0.2,0.8,0.6,0.4,1,0,,,,,,,,,,,,,,,,,,,,,,,,,,,,,,,,,,,,
,,66ce527e14f31490d3e5e44b,66fc97dff25af90ab5b70f20,2024-10-02_01h48.49.958,mdp,2024.2.1,MacIntel,60.60606061,66fa4ebf79326e780c390304,,,,,,,,,,,,,,,,,,,,,134.3768,134.3768,134.3782,135.4929,1,0,right,0.5978,,135.4942,135.4952,,0,,135.4959,135.4966,,0,,1,135.4967,135.4967,135.4972,136.9927,0,9,9,9,1,0.2,0.8,0.6,0.4,1,0,,,,,,,,,,,,,,,,,,,,,,,,,,,,,,,,,,,,
,,66ce527e14f31490d3e5e44b,66fc97dff25af90ab5b70f20,2024-10-02_01h48.49.958,mdp,2024.2.1,MacIntel,60.60606061,66fa4ebf79326e780c390304,,,,,,,,,,,,,,,,,,,,,136.9935,136.9935,136.9949,137.9427,0,1,left,0.4218,,137.944,137.9447,,1,,137.9453,137.946,,0,,0,137.9461,137.9461,137.9465,139.4425,0,10,10,10,1,0.2,0.8,0.6,0.4,1,0,,,,,,,,,,,,,,,,,,,,,,,,,,,,,,,,,,,,
,,66ce527e14f31490d3e5e44b,66fc97dff25af90ab5b70f20,2024-10-02_01h48.49.958,mdp,2024.2.1,MacIntel,60.60606061,66fa4ebf79326e780c390304,,,,,,,,,,,,,,,,,,,,,139.443,139.443,139.444,140.2591,1,1,right,0.2893,,140.2599,140.2604,,0,,140.2607,140.2609,,0,,0,140.261,140.261,140.2612,141.7593,0,11,11,11,1,0.2,0.8,0.6,0.4,1,0,,,,,,,,,,,,,,,,,,,,,,,,,,,,,,,,,,,,
,,66ce527e14f31490d3e5e44b,66fc97dff25af90ab5b70f20,2024-10-02_01h48.49.958,mdp,2024.2.1,MacIntel,60.60606061,66fa4ebf79326e780c390304,,,,,,,,,,,,,,,,,,,,,141.76,141.76,141.7614,142.5093,1,0,right,0.2209,,142.5107,142.5115,,0,,142.5121,142.5126,,0,,1,142.5127,142.5127,142.5131,144.0093,0,12,12,12,1,0.6,0.4,0.8,0.2,1,0,,,,,,,,,,,,,,,,,,,,,,,,,,,,,,,,,,,,
,,66ce527e14f31490d3e5e44b,66fc97dff25af90ab5b70f20,2024-10-02_01h48.49.958,mdp,2024.2.1,MacIntel,60.60606061,66fa4ebf79326e780c390304,,,,,,,,,,,,,,,,,,,,,144.0099,144.0099,144.0112,144.7761,1,0,right,0.2395,,144.7775,144.7784,,0,,144.7791,144.7796,,0,,1,144.7797,144.7797,144.7801,146.2761,0,13,13,13,1,0.6,0.4,0.8,0.2,1,0,,,,,,,,,,,,,,,,,,,,,,,,,,,,,,,,,,,,
,,66ce527e14f31490d3e5e44b,66fc97dff25af90ab5b70f20,2024-10-02_01h48.49.958,mdp,2024.2.1,MacIntel,60.60606061,66fa4ebf79326e780c390304,,,,,,,,,,,,,,,,,,,,,146.2766,146.2767,146.278,147.026,0,1,left,0.219,,147.0273,147.0281,,1,,147.0288,147.0293,,1,,0,147.0294,147.0294,147.0298,148.5259,0,14,14,14,1,0.6,0.4,0.8,0.2,1,0,,,,,,,,,,,,,,,,,,,,,,,,,,,,,,,,,,,,
,,66ce527e14f31490d3e5e44b,66fc97dff25af90ab5b70f20,2024-10-02_01h48.49.958,mdp,2024.2.1,MacIntel,60.60606061,66fa4ebf79326e780c390304,,,,,,,,,,,,,,,,,,,,,148.5266,148.5266,148.528,149.1593,1,0,right,0.1102,,149.1605,149.1615,,1,,149.162,149.1625,,0,,1,149.1625,149.1625,149.1629,150.6593,0,15,15,15,1,0.8,0.2,0.6,0.4,1,0,,,,,,,,,,,,,,,,,,,,,,,,,,,,,,,,,,,,
,,66ce527e14f31490d3e5e44b,66fc97dff25af90ab5b70f20,2024-10-02_01h48.49.958,mdp,2024.2.1,MacIntel,60.60606061,66fa4ebf79326e780c390304,,,,,,,,,,,,,,,,,,,,,150.6601,150.6602,150.6614,151.226,1,1,right,0.0396,,151.2273,151.2281,,0,,151.2287,151.2292,,1,,0,151.2292,151.2293,151.2297,152.7261,0,16,16,16,1,0.8,0.2,0.6,0.4,1,0,,,,,,,,,,,,,,,,,,,,,,,,,,,,,,,,,,,,
,,66ce527e14f31490d3e5e44b,66fc97dff25af90ab5b70f20,2024-10-02_01h48.49.958,mdp,2024.2.1,MacIntel,60.60606061,66fa4ebf79326e780c390304,,,,,,,,,,,,,,,,,,,,,152.7266,152.7266,152.728,153.7093,1,0,right,0.4549,,153.7107,153.7116,,1,,153.7122,153.7127,,0,,1,153.7128,153.7128,153.7132,155.2095,0,17,17,17,1,0.8,0.2,0.6,0.4,1,0,,,,,,,,,,,,,,,,,,,,,,,,,,,,,,,,,,,,
,,66ce527e14f31490d3e5e44b,66fc97dff25af90ab5b70f20,2024-10-02_01h48.49.958,mdp,2024.2.1,MacIntel,60.60606061,66fa4ebf79326e780c390304,,,,,,,,,,,,,,,,,,,,,155.2101,155.2101,155.2114,156.6095,1,0,right,0.8699,,156.6109,156.6118,,1,,156.6124,156.6129,,1,,1,156.6129,156.6129,156.6136,158.1094,0,18,18,18,1,0.8,0.2,0.6,0.4,1,0,,,,,,,,,,,,,,,,,,,,,,,,,,,,,,,,,,,,
,,66ce527e14f31490d3e5e44b,66fc97dff25af90ab5b70f20,2024-10-02_01h48.49.958,mdp,2024.2.1,MacIntel,60.60606061,66fa4ebf79326e780c390304,,,,,,,,,,,,,,,,,,,,,158.11,158.11,158.1112,158.8926,0,0,left,0.2601,,158.8937,158.8944,,1,,158.8949,158.8954,,1,,1,158.8954,158.8954,158.8958,160.3927,0,19,19,19,1,0.8,0.2,0.6,0.4,1,0,,,,,,,,,,,,,,,,,,,,,,,,,,,,,,,,,,,,
,,66ce527e14f31490d3e5e44b,66fc97dff25af90ab5b70f20,2024-10-02_01h48.49.958,mdp,2024.2.1,MacIntel,60.60606061,66fa4ebf79326e780c390304,,,,,,,,,,,,,,,,,,,,,160.3933,160.3934,160.3946,161.4428,0,0,left,0.5165,,161.4443,161.4453,,0,,161.446,161.4464,,1,,1,161.4465,161.4465,161.447,162.9426,0,20,20,20,1,0.6,0.4,0.4,0.6,1,0,,,,,,,,,,,,,,,,,,,,,,,,,,,,,,,,,,,,
,,66ce527e14f31490d3e5e44b,66fc97dff25af90ab5b70f20,2024-10-02_01h48.49.958,mdp,2024.2.1,MacIntel,60.60606061,66fa4ebf79326e780c390304,,,,,,,,,,,,,,,,,,,,,162.9432,162.9432,162.9445,163.8927,1,0,right,0.417,,163.8941,163.8949,,1,,163.8956,163.8961,,0,,1,163.8961,163.8961,163.8966,165.3927,0,21,21,21,1,0.6,0.4,0.4,0.6,1,0,,,,,,,,,,,,,,,,,,,,,,,,,,,,,,,,,,,,
,,66ce527e14f31490d3e5e44b,66fc97dff25af90ab5b70f20,2024-10-02_01h48.49.958,mdp,2024.2.1,MacIntel,60.60606061,66fa4ebf79326e780c390304,,,,,,,,,,,,,,,,,,,,,165.3933,165.3934,165.3947,166.226,0,0,left,0.3114,,166.2274,166.2282,,0,,166.2288,166.2292,,1,,1,166.2292,166.2292,166.2296,167.7261,0,22,22,22,1,0.6,0.4,0.4,0.6,1,0,,,,,,,,,,,,,,,,,,,,,,,,,,,,,,,,,,,,
,,66ce527e14f31490d3e5e44b,66fc97dff25af90ab5b70f20,2024-10-02_01h48.49.958,mdp,2024.2.1,MacIntel,60.60606061,66fa4ebf79326e780c390304,,,,,,,,,,,,,,,,,,,,,167.7267,167.7267,167.7279,168.5594,1,1,right,0.3134,,168.5607,168.5617,,0,,168.5623,168.5628,,1,,0,168.5629,168.5629,168.5633,170.0596,0,23,23,23,1,0.6,0.4,0.4,0.6,1,0,,,,,,,,,,,,,,,,,,,,,,,,,,,,,,,,,,,,
,,66ce527e14f31490d3e5e44b,66fc97dff25af90ab5b70f20,2024-10-02_01h48.49.958,mdp,2024.2.1,MacIntel,60.60606061,66fa4ebf79326e780c390304,,,,,,,,,,,,,,,,,,,,,170.0603,170.0603,170.0616,171.3927,0,0,left,0.8065,,171.3938,171.3946,,1,,171.3951,171.3955,,1,,1,171.3955,171.3955,171.3959,172.8927,0,24,24,24,1,0.2,0.8,0.6,0.4,1,0,,,,,,,,,,,,,,,,,,,,,,,,,,,,,,,,,,,,
,,66ce527e14f31490d3e5e44b,66fc97dff25af90ab5b70f20,2024-10-02_01h48.49.958,mdp,2024.2.1,MacIntel,60.60606061,66fa4ebf79326e780c390304,,,,,,,,,,,,,,,,,,,,,172.8933,172.8934,172.8948,174.3094,1,0,right,0.8864,,174.3107,174.3116,,1,,174.3122,174.3126,,1,,1,174.3126,174.3126,174.3131,175.8094,0,25,25,25,1,0.2,0.8,0.6,0.4,1,0,,,,,,,,,,,,,,,,,,,,,,,,,,,,,,,,,,,,
,,66ce527e14f31490d3e5e44b,66fc97dff25af90ab5b70f20,2024-10-02_01h48.49.958,mdp,2024.2.1,MacIntel,60.60606061,66fa4ebf79326e780c390304,,,,,,,,,,,,,,,,,,,,,175.8101,175.8101,175.8113,176.7427,0,0,left,0.3999,,176.744,176.745,,1,,176.7458,176.7463,,0,,1,176.7465,176.7465,176.7469,178.2425,0,26,26,26,1,0.2,0.8,0.6,0.4,1,0,,,,,,,,,,,,,,,,,,,,,,,,,,,,,,,,,,,,
,,66ce527e14f31490d3e5e44b,66fc97dff25af90ab5b70f20,2024-10-02_01h48.49.958,mdp,2024.2.1,MacIntel,60.60606061,66fa4ebf79326e780c390304,,,,,,,,,,,,,,,,,,,,,178.2429,178.2429,178.2439,179.2258,1,1,right,0.4531,,179.2262,179.2264,,0,,179.2265,179.2267,,0,,0,179.2268,179.2268,179.2268,180.726,0,27,27,27,1,0.2,0.8,0.6,0.4,1,0,,,,,,,,,,,,,,,,,,,,,,,,,,,,,,,,,,,,
,,66ce527e14f31490d3e5e44b,66fc97dff25af90ab5b70f20,2024-10-02_01h48.49.958,mdp,2024.2.1,MacIntel,60.60606061,66fa4ebf79326e780c390304,,,,,,,,,,,,,,,,,,,,,180.7266,180.7266,180.728,181.5093,0,1,left,0.2616,,181.5106,181.5114,,1,,181.5121,181.5126,,1,,0,181.5126,181.5126,181.513,183.0093,0,28,28,28,1,0.2,0.8,0.6,0.4,1,0,,,,,,,,,,,,,,,,,,,,,,,,,,,,,,,,,,,,
,,66ce527e14f31490d3e5e44b,66fc97dff25af90ab5b70f20,2024-10-02_01h48.49.958,mdp,2024.2.1,MacIntel,60.60606061,66fa4ebf79326e780c390304,,,,,,,,,,,,,,,,,,,,,183.01,183.01,183.0111,183.8427,0,1,left,0.3123,,183.8439,183.8448,,1,,183.8457,183.8462,,1,,0,183.8462,183.8462,183.8468,185.3427,0,29,29,29,1,0.2,0.8,0.6,0.4,1,0,,,,,,,,,,,,,,,,,,,,,,,,,,,,,,,,,,,,
,,66ce527e14f31490d3e5e44b,66fc97dff25af90ab5b70f20,2024-10-02_01h48.49.958,mdp,2024.2.1,MacIntel,60.60606061,66fa4ebf79326e780c390304,,,,,,,,,,,,,,,,,,,,,185.3432,185.3432,185.3445,186.2427,0,0,left,0.381,,186.244,186.2449,,1,,186.2456,186.2462,,1,,1,186.2462,186.2462,186.2467,187.7422,0,30,30,30,1,0.6,0.4,0.4,0.6,1,0,,,,,,,,,,,,,,,,,,,,,,,,,,,,,,,,,,,,
,,66ce527e14f31490d3e5e44b,66fc97dff25af90ab5b70f20,2024-10-02_01h48.49.958,mdp,2024.2.1,MacIntel,60.60606061,66fa4ebf79326e780c390304,,,,,,,,,,,,,,,,,,,,,187.7428,187.7429,187.7442,188.5593,0,0,left,0.296,,188.5604,188.5613,,0,,188.5618,188.5621,,1,,1,188.5622,188.5622,188.5625,190.0593,0,31,31,31,1,0.6,0.4,0.4,0.6,1,0,,,,,,,,,,,,,,,,,,,,,,,,,,,,,,,,,,,,
,,66ce527e14f31490d3e5e44b,66fc97dff25af90ab5b70f20,2024-10-02_01h48.49.958,mdp,2024.2.1,MacIntel,60.60606061,66fa4ebf79326e780c390304,,,,,,,,,,,,,,,,,,,,,190.0598,190.0598,190.0607,190.8593,1,1,right,0.2667,,190.8607,190.8616,,0,,190.8622,190.8627,,1,,0,190.8627,190.8628,190.8632,192.3594,0,32,32,32,1,0.6,0.4,0.4,0.6,1,0,,,,,,,,,,,,,,,,,,,,,,,,,,,,,,,,,,,,
,,66ce527e14f31490d3e5e44b,66fc97dff25af90ab5b70f20,2024-10-02_01h48.49.958,mdp,2024.2.1,MacIntel,60.60606061,66fa4ebf79326e780c390304,,,,,,,,,,,,,,,,,,,,,192.36,192.3601,192.3613,193.3095,1,1,right,0.4192,,193.3109,193.3118,,1,,193.3124,193.3129,,0,,0,193.3129,193.3129,193.3135,194.8093,0,33,33,33,1,0.6,0.4,0.4,0.6,1,0,,,,,,,,,,,,,,,,,,,,,,,,,,,,,,,,,,,,
,,66ce527e14f31490d3e5e44b,66fc97dff25af90ab5b70f20,2024-10-02_01h48.49.958,mdp,2024.2.1,MacIntel,60.60606061,66fa4ebf79326e780c390304,,,,,,,,,,,,,,,,,,,,,194.8099,194.8099,194.8112,195.4094,1,1,right,0.0784,,195.4108,195.4117,,1,,195.4123,195.4128,,1,,0,195.4128,195.4128,195.4133,196.9093,0,34,34,34,1,0.6,0.4,0.4,0.6,1,0,,,,,,,,,,,,,,,,,,,,,,,,,,,,,,,,,,,,
,,66ce527e14f31490d3e5e44b,66fc97dff25af90ab5b70f20,2024-10-02_01h48.49.958,mdp,2024.2.1,MacIntel,60.60606061,66fa4ebf79326e780c390304,,,,,,,,,,,,,,,,,,,,,196.9099,196.9099,196.9113,197.776,1,0,right,0.3462,,197.7772,197.7781,,1,,197.7787,197.7791,,1,,1,197.7791,197.7791,197.7795,199.2759,0,35,35,35,1,0.6,0.4,0.4,0.6,1,0,,,,,,,,,,,,,,,,,,,,,,,,,,,,,,,,,,,,
,,66ce527e14f31490d3e5e44b,66fc97dff25af90ab5b70f20,2024-10-02_01h48.49.958,mdp,2024.2.1,MacIntel,60.60606061,66fa4ebf79326e780c390304,,,,,,,,,,,,,,,,,,,,,199.2766,199.2766,199.2779,200.0427,1,0,right,0.2468,,200.0439,200.0448,,1,,200.0454,200.0458,,0,,1,200.0459,200.0459,200.0462,201.5427,0,36,36,36,1,0.6,0.4,0.4,0.6,1,0,,,,,,,,,,,,,,,,,,,,,,,,,,,,,,,,,,,,
,,66ce527e14f31490d3e5e44b,66fc97dff25af90ab5b70f20,2024-10-02_01h48.49.958,mdp,2024.2.1,MacIntel,60.60606061,66fa4ebf79326e780c390304,,,,,,,,,,,,,,,,,,,,,201.5434,201.5434,201.5447,202.3094,0,0,left,0.2335,,202.3108,202.3116,,0,,202.3122,202.3127,,0,,1,202.3127,202.3127,202.3132,203.8096,0,37,37,37,1,0.6,0.4,0.4,0.6,1,0,,,,,,,,,,,,,,,,,,,,,,,,,,,,,,,,,,,,
,,66ce527e14f31490d3e5e44b,66fc97dff25af90ab5b70f20,2024-10-02_01h48.49.958,mdp,2024.2.1,MacIntel,60.60606061,66fa4ebf79326e780c390304,,,,,,,,,,,,,,,,,,,,,203.8101,203.8102,203.8115,204.3927,0,1,left,0.0619,,204.3942,204.395,,1,,204.3956,204.3963,,0,,0,204.3963,204.3963,204.3968,205.8928,0,38,38,38,1,0.6,0.4,0.4,0.6,1,0,,,,,,,,,,,,,,,,,,,,,,,,,,,,,,,,,,,,
,,66ce527e14f31490d3e5e44b,66fc97dff25af90ab5b70f20,2024-10-02_01h48.49.958,mdp,2024.2.1,MacIntel,60.60606061,66fa4ebf79326e780c390304,,,,,,,,,,,,,,,,,,,,,205.8934,205.8934,205.8947,206.5094,1,0,right,0.0844,,206.5106,206.5112,,0,,206.5121,206.5126,,1,,1,206.5126,206.5126,206.5131,208.0084,0,39,39,39,1,0.6,0.4,0.4,0.6,1,0,,,,,,,,,,,,,,,,,,,,,,,,,,,,,,,,,,,,
,,66ce527e14f31490d3e5e44b,66fc97dff25af90ab5b70f20,2024-10-02_01h48.49.958,mdp,2024.2.1,MacIntel,60.60606061,66fa4ebf79326e780c390304,,,,,,,,,,,,,,,,,,,,,208.0091,208.0091,208.0109,208.6094,1,0,right,0.0954,,208.6107,208.6115,,0,,208.6121,208.6125,,0,,1,208.6126,208.6126,208.6129,210.1093,0,40,40,40,1,0.4,0.6,0.8,0.2,1,0,,,,,,,,,,,,,,,,,,,,,,,,,,,,,,,,,,,,
,,66ce527e14f31490d3e5e44b,66fc97dff25af90ab5b70f20,2024-10-02_01h48.49.958,mdp,2024.2.1,MacIntel,60.60606061,66fa4ebf79326e780c390304,,,,,,,,,,,,,,,,,,,,,210.1098,210.1098,210.1106,210.793,0,1,left,0.1526,,210.7943,210.7951,,0,,210.7955,210.7958,,1,,0,210.7959,210.7959,210.7963,212.2927,0,41,41,41,1,0.6,0.4,0.4,0.6,1,0,,,,,,,,,,,,,,,,,,,,,,,,,,,,,,,,,,,,
,,66ce527e14f31490d3e5e44b,66fc97dff25af90ab5b70f20,2024-10-02_01h48.49.958,mdp,2024.2.1,MacIntel,60.60606061,66fa4ebf79326e780c390304,,,,,,,,,,,,,,,,,,,,,212.2933,212.2933,212.2947,213.126,1,0,right,0.3061,,213.1273,213.1281,,0,,213.1288,213.1292,,0,,1,213.1292,213.1292,213.1297,214.626,0,42,42,42,1,0.8,0.2,0.8,0.2,1,0,,,,,,,,,,,,,,,,,,,,,,,,,,,,,,,,,,,,
,,66ce527e14f31490d3e5e44b,66fc97dff25af90ab5b70f20,2024-10-02_01h48.49.958,mdp,2024.2.1,MacIntel,60.60606061,66fa4ebf79326e780c390304,,,,,,,,,,,,,,,,,,,,,214.6266,214.6266,214.628,215.2095,1,0,right,0.057,,215.2108,215.2117,,0,,215.2123,215.2128,,0,,1,215.2128,215.2128,215.2133,216.7093,0,43,43,43,1,0.8,0.2,0.8,0.2,1,0,,,,,,,,,,,,,,,,,,,,,,,,,,,,,,,,,,,,
,,66ce527e14f31490d3e5e44b,66fc97dff25af90ab5b70f20,2024-10-02_01h48.49.958,mdp,2024.2.1,MacIntel,60.60606061,66fa4ebf79326e780c390304,,,,,,,,,,,,,,,,,,,,,216.71,216.71,216.7113,217.4758,1,1,right,0.2362,,217.4771,217.478,,0,,217.4786,217.4792,,0,,0,217.4792,217.4792,217.4796,218.9759,0,44,44,44,1,0.2,0.8,0.6,0.4,1,0,,,,,,,,,,,,,,,,,,,,,,,,,,,,,,,,,,,,
,,66ce527e14f31490d3e5e44b,66fc97dff25af90ab5b70f20,2024-10-02_01h48.49.958,mdp,2024.2.1,MacIntel,60.60606061,66fa4ebf79326e780c390304,,,,,,,,,,,,,,,,,,,,,218.9764,218.9764,218.9773,219.7428,0,0,left,0.2451,,219.7441,219.7449,,1,,219.7455,219.7459,,1,,1,219.7459,219.7459,219.7464,221.2427,0,45,45,45,1,0.2,0.8,0.6,0.4,1,0,,,,,,,,,,,,,,,,,,,,,,,,,,,,,,,,,,,,
,,66ce527e14f31490d3e5e44b,66fc97dff25af90ab5b70f20,2024-10-02_01h48.49.958,mdp,2024.2.1,MacIntel,60.60606061,66fa4ebf79326e780c390304,,,,,,,,,,,,,,,,,,,,,221.2435,221.2435,221.2447,222.0094,1,1,right,0.2364,,222.0107,222.0115,,0,,222.0121,222.0126,,0,,0,222.0126,222.0126,222.0131,223.5093,0,46,46,46,1,0.2,0.8,0.6,0.4,1,0,,,,,,,,,,,,,,,,,,,,,,,,,,,,,,,,,,,,
,,66ce527e14f31490d3e5e44b,66fc97dff25af90ab5b70f20,2024-10-02_01h48.49.958,mdp,2024.2.1,MacIntel,60.60606061,66fa4ebf79326e780c390304,,,,,,,,,,,,,,,,,,,,,223.5098,223.5098,223.5111,224.1759,0,1,left,0.1467,,224.1766,224.1772,,1,,224.1776,224.1781,,0,,0,224.1782,224.1782,224.1785,225.676,0,47,47,47,1,0.2,0.8,0.6,0.4,1,0,,,,,,,,,,,,,,,,,,,,,,,,,,,,,,,,,,,,
,,66ce527e14f31490d3e5e44b,66fc97dff25af90ab5b70f20,2024-10-02_01h48.49.958,mdp,2024.2.1,MacIntel,60.60606061,66fa4ebf79326e780c390304,,,,,,,,,,,,,,,,,,,,,225.6768,225.6769,225.6783,226.6928,1,0,right,0.4866,,226.6941,226.6951,,1,,226.6958,226.6964,,0,,1,226.6964,226.6964,226.697,228.1927,0,48,48,48,1,0.2,0.8,0.6,0.4,1,0,,,,,,,,,,,,,,,,,,,,,,,,,,,,,,,,,,,,
,,66ce527e14f31490d3e5e44b,66fc97dff25af90ab5b70f20,2024-10-02_01h48.49.958,mdp,2024.2.1,MacIntel,60.60606061,66fa4ebf79326e780c390304,,,,,,,,,,,,,,,,,,,,,228.1933,228.1933,228.1944,233.8427,1,1,right,5.1184,,233.844,233.8451,,0,,233.8457,233.8462,,1,,0,233.8463,233.8463,233.8466,235.3429,0,49,49,49,1,0.8,0.2,0.4,0.6,1,0,,,,,,,,,,,,,,,,,,,,,,,,,,,,,,,,,,,,
,,66ce527e14f31490d3e5e44b,66fc97dff25af90ab5b70f20,2024-10-02_01h48.49.958,mdp,2024.2.1,MacIntel,60.60606061,66fa4ebf79326e780c390304,,,,,,,,,,,,,,,,,,,,,,,,,,,,,,,,,,,,,,,,,,,,,,,,,,,,,,,,235.3438,293.8598,0,0,0,1,1,imgs/dog.png,imgs/cat.png,imgs/lion.png,imgs/elephant.png,imgs/goat.png,,,,,,,,,,,,,,,,,,,,,,,,
,,66ce527e14f31490d3e5e44b,66fc97dff25af90ab5b70f20,2024-10-02_01h48.49.958,mdp,2024.2.1,MacIntel,60.60606061,66fa4ebf79326e780c390304,,,,,,,,,,,,,,2,seqs/st2seq41.csv,293.8611,296.4095,space,2.017,,296.415,296.415,296.416,297.9594,1,1,right,1.0237,,297.9607,299.7425,1,1,right,299.7433,299.7438,,1,,0,299.7438,299.7438,299.7441,301.2418,0,0,0,0,1,0.8,0.2,0.2,0.8,,,,,,,,,,,,,,,1.2556,,0.6,0.4,0.2,0.8,0.8,0.2,0.4,0.6,1,0,,,,,,,,,,,,
,,66ce527e14f31490d3e5e44b,66fc97dff25af90ab5b70f20,2024-10-02_01h48.49.958,mdp,2024.2.1,MacIntel,60.60606061,66fa4ebf79326e780c390304,,,,,,,,,,,,,,,,,,,,,301.2423,301.2423,301.2433,302.5426,0,0,left,0.7867,,302.544,303.3085,1,1,right,303.3098,303.3108,,1,,0,303.3109,303.3109,303.3115,304.8094,0,1,1,1,1,0.8,0.2,0.2,0.8,,,,,,,,,,,,,,,0.2492,,0.6,0.4,0.2,0.8,0.8,0.2,0.4,0.6,1,0,,,,,,,,,,,,
,,66ce527e14f31490d3e5e44b,66fc97dff25af90ab5b70f20,2024-10-02_01h48.49.958,mdp,2024.2.1,MacIntel,60.60606061,66fa4ebf79326e780c390304,,,,,,,,,,,,,,,,,,,,,304.8101,304.8101,304.8113,305.7427,0,0,left,0.4106,,305.7439,306.6093,0,1,left,306.6107,306.6116,,0,,0,306.6116,306.6116,306.6122,308.1096,0,2,2,2,1,0.8,0.2,0.2,0.8,,,,,,,,,,,,,,,0.3528,,0.6,0.4,0.2,0.8,0.8,0.2,0.4,0.6,1,0,,,,,,,,,,,,
,,66ce527e14f31490d3e5e44b,66fc97dff25af90ab5b70f20,2024-10-02_01h48.49.958,mdp,2024.2.1,MacIntel,60.60606061,66fa4ebf79326e780c390304,,,,,,,,,,,,,,,,,,,,,308.1102,308.1102,308.1115,309.1428,1,1,right,0.5113,,309.1441,310.0761,0,0,left,310.0774,310.0782,,0,,1,310.0782,310.0782,310.0788,311.576,0,3,3,3,1,0.8,0.2,0.2,0.8,,,,,,,,,,,,,,,0.3962,,0.6,0.4,0.2,0.8,0.8,0.2,0.4,0.6,1,0,,,,,,,,,,,,
,,66ce527e14f31490d3e5e44b,66fc97dff25af90ab5b70f20,2024-10-02_01h48.49.958,mdp,2024.2.1,MacIntel,60.60606061,66fa4ebf79326e780c390304,,,,,,,,,,,,,,,,,,,,,311.5767,311.5768,311.5781,312.3594,0,0,left,0.2621,,312.3608,313.1594,1,1,right,313.1608,313.1616,,1,,0,313.1616,313.1616,313.1623,314.6593,0,4,4,4,1,0.8,0.2,0.2,0.8,,,,,,,,,,,,,,,0.2672,,0.6,0.4,0.2,0.8,0.8,0.2,0.4,0.6,1,0,,,,,,,,,,,,
,,66ce527e14f31490d3e5e44b,66fc97dff25af90ab5b70f20,2024-10-02_01h48.49.958,mdp,2024.2.1,MacIntel,60.60606061,66fa4ebf79326e780c390304,,,,,,,,,,,,,,,,,,,,,314.66,314.6601,314.6613,315.4084,1,1,right,0.2191,,315.4098,316.226,1,1,right,316.2273,316.2284,,1,,0,316.2284,316.2285,316.229,317.7251,0,5,5,5,1,0.8,0.2,0.2,0.8,,,,,,,,,,,,,,,0.3072,,0.6,0.4,0.2,0.8,0.8,0.2,0.4,0.6,1,0,,,,,,,,,,,,
,,66ce527e14f31490d3e5e44b,66fc97dff25af90ab5b70f20,2024-10-02_01h48.49.958,mdp,2024.2.1,MacIntel,60.60606061,66fa4ebf79326e780c390304,,,,,,,,,,,,,,,,,,,,,317.7257,317.7257,317.7271,318.6427,0,0,left,0.4027,,318.644,319.7427,0,0,left,319.744,319.7448,,0,,1,319.7448,319.7449,319.7455,321.2418,0,6,6,6,1,0.8,0.2,0.2,0.8,,,,,,,,,,,,,,,0.5753,,0.6,0.4,0.2,0.8,0.8,0.2,0.4,0.6,1,0,,,,,,,,,,,,
,,66ce527e14f31490d3e5e44b,66fc97dff25af90ab5b70f20,2024-10-02_01h48.49.958,mdp,2024.2.1,MacIntel,60.60606061,66fa4ebf79326e780c390304,,,,,,,,,,,,,,,,,,,,,321.2424,321.2424,321.2437,322.2427,0,1,left,0.4669,,322.2441,323.6261,1,0,right,323.6278,323.6287,,1,,1,323.6288,323.6288,323.6294,325.126,0,7,7,7,1,0.8,0.2,0.2,0.8,,,,,,,,,,,,,,,0.8482,,0.6,0.4,0.2,0.8,0.8,0.2,0.4,0.6,1,0,,,,,,,,,,,,
,,66ce527e14f31490d3e5e44b,66fc97dff25af90ab5b70f20,2024-10-02_01h48.49.958,mdp,2024.2.1,MacIntel,60.60606061,66fa4ebf79326e780c390304,,,,,,,,,,,,,,,,,,,,,325.1266,325.1267,325.128,327.1927,0,0,left,1.5324,,327.194,328.9427,0,1,left,328.944,328.9449,,0,,0,328.9449,328.9449,328.9455,330.4418,0,8,8,8,1,0.8,0.2,0.2,0.8,,,,,,,,,,,,,,,1.2174,,0.6,0.4,0.2,0.8,0.8,0.2,0.4,0.6,1,0,,,,,,,,,,,,
,,66ce527e14f31490d3e5e44b,66fc97dff25af90ab5b70f20,2024-10-02_01h48.49.958,mdp,2024.2.1,MacIntel,60.60606061,66fa4ebf79326e780c390304,,,,,,,,,,,,,,,,,,,,,330.4425,330.4425,330.4438,331.4087,0,0,left,0.437,,331.41,332.8261,0,1,left,332.8273,332.828,,0,,0,332.8281,332.8281,332.8286,334.3262,0,9,9,9,1,0.8,0.2,0.2,0.8,,,,,,,,,,,,,,,0.8954,,0.6,0.4,0.2,0.8,0.8,0.2,0.4,0.6,1,0,,,,,,,,,,,,
,,66ce527e14f31490d3e5e44b,66fc97dff25af90ab5b70f20,2024-10-02_01h48.49.958,mdp,2024.2.1,MacIntel,60.60606061,66fa4ebf79326e780c390304,,,,,,,,,,,,,,,,,,,,,334.3269,334.3269,334.3283,335.959,0,0,left,1.1021,,335.9602,337.409,0,1,left,337.4103,337.4111,,0,,0,337.4111,337.4111,337.4117,338.9095,0,10,10,10,1,0.8,0.2,0.2,0.8,,,,,,,,,,,,,,,0.9455,,0.6,0.4,0.2,0.8,0.8,0.2,0.4,0.6,1,0,,,,,,,,,,,,
,,66ce527e14f31490d3e5e44b,66fc97dff25af90ab5b70f20,2024-10-02_01h48.49.958,mdp,2024.2.1,MacIntel,60.60606061,66fa4ebf79326e780c390304,,,,,,,,,,,,,,,,,,,,,338.9102,338.9102,338.9117,339.8086,0,0,left,0.3707,,339.8099,340.9261,1,1,right,340.9271,340.9281,,1,,0,340.9281,340.9281,340.9288,342.4261,0,11,11,11,1,0.8,0.2,0.2,0.8,,,,,,,,,,,,,,,0.6131,,0.6,0.4,0.2,0.8,0.8,0.2,0.4,0.6,1,0,,,,,,,,,,,,
,,66ce527e14f31490d3e5e44b,66fc97dff25af90ab5b70f20,2024-10-02_01h48.49.958,mdp,2024.2.1,MacIntel,60.60606061,66fa4ebf79326e780c390304,,,,,,,,,,,,,,,,,,,,,342.4267,342.4268,342.4279,343.7927,1,1,right,0.8457,,343.794,345.5427,0,0,left,345.5441,345.5451,,0,,1,345.5452,345.5452,345.5459,347.0428,0,12,12,12,1,0.8,0.2,0.2,0.8,,,,,,,,,,,,,,,1.2128,,0.6,0.4,0.2,0.8,0.8,0.2,0.4,0.6,1,0,,,,,,,,,,,,
,,66ce527e14f31490d3e5e44b,66fc97dff25af90ab5b70f20,2024-10-02_01h48.49.958,mdp,2024.2.1,MacIntel,60.60606061,66fa4ebf79326e780c390304,,,,,,,,,,,,,,,,,,,,,347.0434,347.0435,347.0447,348.7928,1,1,right,1.2192,,348.7941,350.5928,1,1,right,350.594,350.5948,,1,,0,350.5948,350.5948,350.5954,352.0927,0,13,13,13,1,0.8,0.2,0.2,0.8,,,,,,,,,,,,,,,1.2796,,0.6,0.4,0.2,0.8,0.8,0.2,0.4,0.6,1,0,,,,,,,,,,,,
,,66ce527e14f31490d3e5e44b,66fc97dff25af90ab5b70f20,2024-10-02_01h48.49.958,mdp,2024.2.1,MacIntel,60.60606061,66fa4ebf79326e780c390304,,,,,,,,,,,,,,,,,,,,,352.0933,352.0933,352.0946,352.9428,1,1,right,0.3166,,352.9444,353.9761,0,0,left,353.9776,353.9784,,0,,1,353.9784,353.9784,353.9791,355.4763,0,14,14,14,1,0.8,0.2,0.2,0.8,,,,,,,,,,,,,,,0.5006,,0.6,0.4,0.2,0.8,0.8,0.2,0.4,0.6,1,0,,,,,,,,,,,,
,,66ce527e14f31490d3e5e44b,66fc97dff25af90ab5b70f20,2024-10-02_01h48.49.958,mdp,2024.2.1,MacIntel,60.60606061,66fa4ebf79326e780c390304,,,,,,,,,,,,,,,,,,,,,355.4771,355.4771,355.4784,356.7425,0,0,left,0.7443,,356.7427,357.9762,0,1,left,357.9776,357.9784,,1,,0,357.9785,357.9785,357.9792,359.4762,0,15,15,15,1,0.8,0.2,0.2,0.8,,,,,,,,,,,,,,,0.7182,,0.6,0.4,0.2,0.8,0.8,0.2,0.4,0.6,1,0,,,,,,,,,,,,
,,66ce527e14f31490d3e5e44b,66fc97dff25af90ab5b70f20,2024-10-02_01h48.49.958,mdp,2024.2.1,MacIntel,60.60606061,66fa4ebf79326e780c390304,,,,,,,,,,,,,,,,,,,,,359.4769,359.477,359.4784,360.3926,0,0,left,0.3855,,360.3942,361.1927,1,1,right,361.194,361.1949,,1,,0,361.195,361.195,361.1956,362.6929,0,16,16,16,1,0.8,0.2,0.2,0.8,,,,,,,,,,,,,,,0.2955,,0.6,0.4,0.2,0.8,0.8,0.2,0.4,0.6,1,0,,,,,,,,,,,,
,,66ce527e14f31490d3e5e44b,66fc97dff25af90ab5b70f20,2024-10-02_01h48.49.958,mdp,2024.2.1,MacIntel,60.60606061,66fa4ebf79326e780c390304,,,,,,,,,,,,,,,,,,,,,362.6935,362.6935,362.6949,363.5427,1,0,right,0.3198,,363.5439,364.4084,1,0,right,364.4098,364.4106,,0,,1,364.4107,364.4107,364.4112,365.9094,0,17,17,17,1,0.8,0.2,0.2,0.8,,,,,,,,,,,,,,,0.3338,,0.6,0.4,0.2,0.8,0.8,0.2,0.4,0.6,1,0,,,,,,,,,,,,
,,66ce527e14f31490d3e5e44b,66fc97dff25af90ab5b70f20,2024-10-02_01h48.49.958,mdp,2024.2.1,MacIntel,60.60606061,66fa4ebf79326e780c390304,,,,,,,,,,,,,,,,,,,,,365.91,365.91,365.9112,367.0927,1,1,right,0.6539,,367.0939,367.9594,1,1,right,367.9606,367.9615,,1,,0,367.9616,367.9616,367.9621,369.459,0,18,18,18,1,0.8,0.2,0.2,0.8,,,,,,,,,,,,,,,0.3426,,0.6,0.4,0.2,0.8,0.8,0.2,0.4,0.6,1,0,,,,,,,,,,,,
,,66ce527e14f31490d3e5e44b,66fc97dff25af90ab5b70f20,2024-10-02_01h48.49.958,mdp,2024.2.1,MacIntel,60.60606061,66fa4ebf79326e780c390304,,,,,,,,,,,,,,,,,,,,,369.4596,369.4596,369.461,370.2761,1,1,right,0.2955,,370.2774,371.0594,0,0,left,371.0607,371.0617,,0,,1,371.0617,371.0617,371.0623,372.5594,0,19,19,19,1,0.8,0.2,0.2,0.8,,,,,,,,,,,,,,,0.2535,,0.6,0.4,0.2,0.8,0.8,0.2,0.4,0.6,1,0,,,,,,,,,,,,
,,66ce527e14f31490d3e5e44b,66fc97dff25af90ab5b70f20,2024-10-02_01h48.49.958,mdp,2024.2.1,MacIntel,60.60606061,66fa4ebf79326e780c390304,,,,,,,,,,,,,,,,,,,,,372.5601,372.5601,372.5614,373.6927,0,1,left,0.601,,373.6942,374.4761,0,0,left,374.4774,374.4782,,0,,1,374.4783,374.4783,374.4788,375.9762,0,20,20,20,1,0.8,0.2,0.2,0.8,,,,,,,,,,,,,,,0.2566,,0.6,0.4,0.2,0.8,0.8,0.2,0.4,0.6,1,0,,,,,,,,,,,,
,,66ce527e14f31490d3e5e44b,66fc97dff25af90ab5b70f20,2024-10-02_01h48.49.958,mdp,2024.2.1,MacIntel,60.60606061,66fa4ebf79326e780c390304,,,,,,,,,,,,,,,,,,,,,375.9768,375.9769,375.978,377.3095,0,1,left,0.8049,,377.3107,378.2092,0,0,left,378.2099,378.2104,,0,,1,378.2104,378.2104,378.2108,379.7094,0,21,21,21,1,0.8,0.2,0.2,0.8,,,,,,,,,,,,,,,0.3756,,0.6,0.4,0.2,0.8,0.8,0.2,0.4,0.6,1,0,,,,,,,,,,,,
,,66ce527e14f31490d3e5e44b,66fc97dff25af90ab5b70f20,2024-10-02_01h48.49.958,mdp,2024.2.1,MacIntel,60.60606061,66fa4ebf79326e780c390304,,,,,,,,,,,,,,,,,,,,,379.7098,379.7098,379.7103,380.8426,0,0,left,0.6132,,380.8431,381.7428,0,0,left,381.7444,381.7453,,1,,1,381.7454,381.7454,381.746,383.2429,0,22,22,22,1,0.8,0.2,0.2,0.8,,,,,,,,,,,,,,,0.3805,,0.6,0.4,0.2,0.8,0.8,0.2,0.4,0.6,1,0,,,,,,,,,,,,
,,66ce527e14f31490d3e5e44b,66fc97dff25af90ab5b70f20,2024-10-02_01h48.49.958,mdp,2024.2.1,MacIntel,60.60606061,66fa4ebf79326e780c390304,,,,,,,,,,,,,,,,,,,,,383.2435,383.2435,383.2448,384.0585,0,1,left,0.2941,,384.0597,384.8595,0,1,left,384.8608,384.8616,,1,,0,384.8617,384.8617,384.8623,386.3596,0,23,23,23,1,0.8,0.2,0.2,0.8,,,,,,,,,,,,,,,0.2933,,0.6,0.4,0.2,0.8,0.6,0.4,0.2,0.8,1,0,,,,,,,,,,,,
,,66ce527e14f31490d3e5e44b,66fc97dff25af90ab5b70f20,2024-10-02_01h48.49.958,mdp,2024.2.1,MacIntel,60.60606061,66fa4ebf79326e780c390304,,,,,,,,,,,,,,,,,,,,,386.3602,386.3602,386.3615,387.1427,0,1,left,0.2643,,387.1438,387.9429,1,1,right,387.9442,387.9451,,1,,0,387.9451,387.9451,387.9457,389.4429,0,24,24,24,1,0.8,0.2,0.2,0.8,,,,,,,,,,,,,,,0.2679,,0.6,0.4,0.2,0.8,0.6,0.4,0.2,0.8,1,0,,,,,,,,,,,,
,,66ce527e14f31490d3e5e44b,66fc97dff25af90ab5b70f20,2024-10-02_01h48.49.958,mdp,2024.2.1,MacIntel,60.60606061,66fa4ebf79326e780c390304,,,,,,,,,,,,,,,,,,,,,389.4436,389.4437,389.4449,390.2595,1,1,right,0.287,,390.2609,391.0093,1,1,right,391.0105,391.0113,,0,,0,391.0113,391.0114,391.0119,392.5095,0,25,25,25,1,0.8,0.2,0.2,0.8,,,,,,,,,,,,,,,0.2282,,0.6,0.4,0.2,0.8,0.8,0.2,0.4,0.6,1,0,,,,,,,,,,,,
,,66ce527e14f31490d3e5e44b,66fc97dff25af90ab5b70f20,2024-10-02_01h48.49.958,mdp,2024.2.1,MacIntel,60.60606061,66fa4ebf79326e780c390304,,,,,,,,,,,,,,,,,,,,,392.5103,392.5104,392.5118,393.2928,1,1,right,0.2495,,393.2943,394.0595,0,0,left,394.0608,394.0617,,0,,1,394.0617,394.0617,394.0623,395.5596,0,26,26,26,1,0.8,0.2,0.2,0.8,,,,,,,,,,,,,,,0.2388,,0.6,0.4,0.2,0.8,0.8,0.2,0.4,0.6,1,0,,,,,,,,,,,,
,,66ce527e14f31490d3e5e44b,66fc97dff25af90ab5b70f20,2024-10-02_01h48.49.958,mdp,2024.2.1,MacIntel,60.60606061,66fa4ebf79326e780c390304,,,,,,,,,,,,,,,,,,,,,395.5603,395.5603,395.5617,397.0927,0,0,left,1.0135,,397.0939,398.0254,0,0,left,398.0267,398.0276,,0,,1,398.0277,398.0277,398.0283,399.5262,0,27,27,27,1,0.8,0.2,0.2,0.8,,,,,,,,,,,,,,,0.3973,,0.6,0.4,0.2,0.8,0.2,0.8,0.2,0.8,1,0,,,,,,,,,,,,
,,66ce527e14f31490d3e5e44b,66fc97dff25af90ab5b70f20,2024-10-02_01h48.49.958,mdp,2024.2.1,MacIntel,60.60606061,66fa4ebf79326e780c390304,,,,,,,,,,,,,,,,,,,,,399.5268,399.5268,399.528,400.1428,0,1,left,0.0834,,400.1442,400.8761,0,1,left,400.8775,400.8783,,1,,0,400.8783,400.8783,400.8789,402.3762,0,28,28,28,1,0.2,0.8,0.6,0.4,,,,,,,,,,,,,,,0.2087,,0.6,0.4,0.2,0.8,0.2,0.8,0.2,0.8,1,0,,,,,,,,,,,,
,,66ce527e14f31490d3e5e44b,66fc97dff25af90ab5b70f20,2024-10-02_01h48.49.958,mdp,2024.2.1,MacIntel,60.60606061,66fa4ebf79326e780c390304,,,,,,,,,,,,,,,,,,,,,402.3767,402.3767,402.3776,402.9928,0,1,left,0.0866,,402.9938,403.7261,1,1,right,403.7274,403.7282,,1,,0,403.7283,403.7283,403.7288,405.2263,0,29,29,29,1,0.2,0.8,0.6,0.4,,,,,,,,,,,,,,,0.2019,,0.6,0.4,0.2,0.8,0.2,0.8,0.2,0.8,1,0,,,,,,,,,,,,
,,66ce527e14f31490d3e5e44b,66fc97dff25af90ab5b70f20,2024-10-02_01h48.49.958,mdp,2024.2.1,MacIntel,60.60606061,66fa4ebf79326e780c390304,,,,,,,,,,,,,,,,,,,,,405.2269,405.2269,405.2285,406.0094,1,0,right,0.2622,,406.0104,406.7428,0,1,left,406.7441,406.7449,,0,,0,406.7449,406.745,406.7456,408.2426,0,30,30,30,1,0.2,0.8,0.6,0.4,,,,,,,,,,,,,,,0.2173,,0.6,0.4,0.2,0.8,0.2,0.8,0.2,0.8,1,0,,,,,,,,,,,,
,,66ce527e14f31490d3e5e44b,66fc97dff25af90ab5b70f20,2024-10-02_01h48.49.958,mdp,2024.2.1,MacIntel,60.60606061,66fa4ebf79326e780c390304,,,,,,,,,,,,,,,,,,,,,408.2429,408.2429,408.2435,408.959,1,0,right,0.1881,,408.9604,409.6928,1,0,right,409.694,409.6949,,1,,1,409.6949,409.6949,409.6955,411.192,0,31,31,31,1,0.2,0.8,0.6,0.4,,,,,,,,,,,,,,,0.219,,0.6,0.4,0.2,0.8,0.2,0.8,0.2,0.8,1,0,,,,,,,,,,,,
,,66ce527e14f31490d3e5e44b,66fc97dff25af90ab5b70f20,2024-10-02_01h48.49.958,mdp,2024.2.1,MacIntel,60.60606061,66fa4ebf79326e780c390304,,,,,,,,,,,,,,,,,,,,,411.1927,411.1927,411.1939,411.9591,1,0,right,0.2472,,411.9594,412.709,1,1,right,412.7104,412.7113,,1,,0,412.7114,412.7115,412.7121,414.209,0,32,32,32,1,0.2,0.8,0.6,0.4,,,,,,,,,,,,,,,0.2347,,0.6,0.4,0.2,0.8,0.2,0.8,0.2,0.8,1,0,,,,,,,,,,,,
,,66ce527e14f31490d3e5e44b,66fc97dff25af90ab5b70f20,2024-10-02_01h48.49.958,mdp,2024.2.1,MacIntel,60.60606061,66fa4ebf79326e780c390304,,,,,,,,,,,,,,,,,,,,,414.2096,414.2096,414.211,415.0762,1,1,right,0.3342,,415.0775,415.8427,0,1,left,415.8439,415.8447,,1,,0,415.8448,415.8448,415.8454,417.3421,0,33,33,33,1,0.2,0.8,0.6,0.4,,,,,,,,,,,,,,,0.2302,,0.6,0.4,0.2,0.8,0.2,0.8,0.2,0.8,1,0,,,,,,,,,,,,
,,66ce527e14f31490d3e5e44b,66fc97dff25af90ab5b70f20,2024-10-02_01h48.49.958,mdp,2024.2.1,MacIntel,60.60606061,66fa4ebf79326e780c390304,,,,,,,,,,,,,,,,,,,,,417.3427,417.3427,417.3439,418.1428,0,1,left,0.272,,418.144,418.8595,0,1,left,418.8607,418.8616,,0,,0,418.8616,418.8616,418.8621,420.3598,0,34,34,34,1,0.2,0.8,0.6,0.4,,,,,,,,,,,,,,,0.1958,,0.6,0.4,0.2,0.8,0.2,0.8,0.2,0.8,1,0,,,,,,,,,,,,
,,66ce527e14f31490d3e5e44b,66fc97dff25af90ab5b70f20,2024-10-02_01h48.49.958,mdp,2024.2.1,MacIntel,60.60606061,66fa4ebf79326e780c390304,,,,,,,,,,,,,,,,,,,,,420.3604,420.3604,420.3615,420.9927,0,0,left,0.0996,,420.9941,421.7595,1,1,right,421.7608,421.7617,,1,,0,421.7619,421.7619,421.7626,423.2594,0,35,35,35,1,0.2,0.8,0.6,0.4,,,,,,,,,,,,,,,0.2301,,0.6,0.4,0.2,0.8,0.6,0.4,0.8,0.2,1,0,,,,,,,,,,,,
,,66ce527e14f31490d3e5e44b,66fc97dff25af90ab5b70f20,2024-10-02_01h48.49.958,mdp,2024.2.1,MacIntel,60.60606061,66fa4ebf79326e780c390304,,,,,,,,,,,,,,,,,,,,,423.26,423.26,423.2612,425.1095,0,1,left,1.3201,,425.1107,425.8586,0,0,left,425.86,425.8609,,0,,1,425.8609,425.8609,425.8615,427.3597,0,36,36,36,1,0.2,0.8,0.6,0.4,,,,,,,,,,,,,,,0.2329,,0.6,0.4,0.2,0.8,0.6,0.4,0.8,0.2,1,0,,,,,,,,,,,,
,,66ce527e14f31490d3e5e44b,66fc97dff25af90ab5b70f20,2024-10-02_01h48.49.958,mdp,2024.2.1,MacIntel,60.60606061,66fa4ebf79326e780c390304,,,,,,,,,,,,,,,,,,,,,427.3604,427.3604,427.3617,428.4595,0,1,left,0.5689,,428.4608,429.2928,0,0,left,429.2941,429.2949,,0,,1,429.2949,429.295,429.2955,430.7929,0,37,37,37,1,0.2,0.8,0.6,0.4,,,,,,,,,,,,,,,0.3037,,0.6,0.4,0.2,0.8,0.6,0.4,0.8,0.2,1,0,,,,,,,,,,,,
,,66ce527e14f31490d3e5e44b,66fc97dff25af90ab5b70f20,2024-10-02_01h48.49.958,mdp,2024.2.1,MacIntel,60.60606061,66fa4ebf79326e780c390304,,,,,,,,,,,,,,,,,,,,,430.7935,430.7935,430.7947,431.6929,0,0,left,0.3803,,431.6942,432.5094,0,0,left,432.5105,432.5114,,1,,1,432.5115,432.5115,432.5121,434.0095,0,38,38,38,1,0.2,0.8,0.6,0.4,,,,,,,,,,,,,,,0.2826,,0.6,0.4,0.2,0.8,0.4,0.6,0.6,0.4,1,0,,,,,,,,,,,,
,,66ce527e14f31490d3e5e44b,66fc97dff25af90ab5b70f20,2024-10-02_01h48.49.958,mdp,2024.2.1,MacIntel,60.60606061,66fa4ebf79326e780c390304,,,,,,,,,,,,,,,,,,,,,434.0101,434.0101,434.0114,434.7594,0,0,left,0.2168,,434.7605,435.5594,0,1,left,435.5607,435.5616,,1,,0,435.5616,435.5616,435.5621,437.0595,0,39,39,39,1,0.2,0.8,0.6,0.4,,,,,,,,,,,,,,,0.2826,,0.6,0.4,0.2,0.8,0.4,0.6,0.6,0.4,1,0,,,,,,,,,,,,
,,66ce527e14f31490d3e5e44b,66fc97dff25af90ab5b70f20,2024-10-02_01h48.49.958,mdp,2024.2.1,MacIntel,60.60606061,66fa4ebf79326e780c390304,,,,,,,,,,,,,,,,,,,,,437.0601,437.0601,437.0614,437.8592,0,1,left,0.2697,,437.8605,438.6253,1,0,right,438.6267,438.6275,,0,,1,438.6275,438.6275,438.6281,440.1263,0,40,40,40,1,0.2,0.8,0.6,0.4,,,,,,,,,,,,,,,0.2502,,0.6,0.4,0.2,0.8,0.4,0.6,0.6,0.4,1,0,,,,,,,,,,,,
,,66ce527e14f31490d3e5e44b,66fc97dff25af90ab5b70f20,2024-10-02_01h48.49.958,mdp,2024.2.1,MacIntel,60.60606061,66fa4ebf79326e780c390304,,,,,,,,,,,,,,,,,,,,,440.127,440.127,440.1283,440.9584,0,1,left,0.3124,,440.9598,441.7095,0,1,left,441.711,441.7118,,0,,0,441.7119,441.7119,441.7125,443.2096,0,41,41,41,1,0.2,0.8,0.6,0.4,,,,,,,,,,,,,,,0.2392,,0.6,0.4,0.2,0.8,0.4,0.6,0.6,0.4,1,0,,,,,,,,,,,,
,,66ce527e14f31490d3e5e44b,66fc97dff25af90ab5b70f20,2024-10-02_01h48.49.958,mdp,2024.2.1,MacIntel,60.60606061,66fa4ebf79326e780c390304,,,,,,,,,,,,,,,,,,,,,443.2102,443.2102,443.2114,443.9595,0,1,left,0.2208,,443.9608,444.7262,1,0,right,444.7277,444.7286,,1,,1,444.7287,444.7287,444.7293,446.2262,0,42,42,42,1,0.2,0.8,0.6,0.4,,,,,,,,,,,,,,,0.2329,,0.6,0.4,0.2,0.8,0.4,0.6,0.6,0.4,1,0,,,,,,,,,,,,
,,66ce527e14f31490d3e5e44b,66fc97dff25af90ab5b70f20,2024-10-02_01h48.49.958,mdp,2024.2.1,MacIntel,60.60606061,66fa4ebf79326e780c390304,,,,,,,,,,,,,,,,,,,,,446.2269,446.2269,446.2282,446.9761,0,1,left,0.2292,,446.9774,447.7428,0,0,left,447.7441,447.7449,,1,,1,447.7449,447.7449,447.7454,449.2428,0,43,43,43,1,0.2,0.8,0.6,0.4,,,,,,,,,,,,,,,0.2358,,0.6,0.4,0.2,0.8,0.4,0.6,0.6,0.4,1,0,,,,,,,,,,,,
,,66ce527e14f31490d3e5e44b,66fc97dff25af90ab5b70f20,2024-10-02_01h48.49.958,mdp,2024.2.1,MacIntel,60.60606061,66fa4ebf79326e780c390304,,,,,,,,,,,,,,,,,,,,,449.2433,449.2434,449.2444,450.009,0,1,left,0.2331,,450.0101,450.743,0,1,left,450.7444,450.7453,,0,,0,450.7453,450.7453,450.7458,452.2429,0,44,44,44,1,0.2,0.8,0.6,0.4,,,,,,,,,,,,,,,0.2165,,0.2,0.8,0.8,0.2,0.4,0.6,0.6,0.4,1,0,,,,,,,,,,,,
,,66ce527e14f31490d3e5e44b,66fc97dff25af90ab5b70f20,2024-10-02_01h48.49.958,mdp,2024.2.1,MacIntel,60.60606061,66fa4ebf79326e780c390304,,,,,,,,,,,,,,,,,,,,,452.2434,452.2435,452.2447,453.0426,0,1,left,0.2787,,453.0438,453.7762,1,1,right,453.7774,453.7782,,1,,0,453.7783,453.7783,453.7788,455.2762,0,45,45,45,1,0.2,0.8,0.6,0.4,,,,,,,,,,,,,,,0.2171,,0.2,0.8,0.8,0.2,0.4,0.6,0.6,0.4,1,0,,,,,,,,,,,,
,,66ce527e14f31490d3e5e44b,66fc97dff25af90ab5b70f20,2024-10-02_01h48.49.958,mdp,2024.2.1,MacIntel,60.60606061,66fa4ebf79326e780c390304,,,,,,,,,,,,,,,,,,,,,455.2768,455.2769,455.2781,455.8761,1,0,right,0.0667,,455.8776,456.6928,1,0,right,456.6941,456.695,,0,,1,456.695,456.6951,456.6956,458.1929,0,46,46,46,1,0.2,0.8,0.6,0.4,,,,,,,,,,,,,,,0.2797,,0.2,0.8,0.8,0.2,0.4,0.6,0.6,0.4,1,0,,,,,,,,,,,,
,,66ce527e14f31490d3e5e44b,66fc97dff25af90ab5b70f20,2024-10-02_01h48.49.958,mdp,2024.2.1,MacIntel,60.60606061,66fa4ebf79326e780c390304,,,,,,,,,,,,,,,,,,,,,458.1936,458.1936,458.195,458.9761,1,1,right,0.2611,,458.9775,459.7428,1,0,right,459.7441,459.7449,,0,,1,459.7449,459.7449,459.7455,461.2431,0,47,47,47,1,0.2,0.8,0.6,0.4,,,,,,,,,,,,,,,0.2305,,0.2,0.8,0.8,0.2,0.4,0.6,0.6,0.4,1,0,,,,,,,,,,,,
,,66ce527e14f31490d3e5e44b,66fc97dff25af90ab5b70f20,2024-10-02_01h48.49.958,mdp,2024.2.1,MacIntel,60.60606061,66fa4ebf79326e780c390304,,,,,,,,,,,,,,,,,,,,,461.2435,461.2435,461.2444,462.0428,1,1,right,0.2732,,462.044,462.8095,1,0,right,462.8107,462.8116,,0,,1,462.8117,462.8117,462.8122,464.3094,0,48,48,48,1,0.2,0.8,0.6,0.4,,,,,,,,,,,,,,,0.2365,,0.2,0.8,0.8,0.2,0.4,0.6,0.6,0.4,1,0,,,,,,,,,,,,
,,66ce527e14f31490d3e5e44b,66fc97dff25af90ab5b70f20,2024-10-02_01h48.49.958,mdp,2024.2.1,MacIntel,60.60606061,66fa4ebf79326e780c390304,,,,,,,,,,,,,,,,,,,,,464.3098,464.3098,464.3109,465.1095,1,0,right,0.2683,,465.1108,465.8588,1,0,right,465.8595,465.8599,,0,,1,465.8599,465.86,465.8602,467.3597,0,49,49,49,1,0.2,0.8,0.6,0.4,,,,,,,,,,,,,,,0.2126,,0.2,0.8,0.8,0.2,0.6,0.4,0.2,0.8,1,0,,,,,,,,,,,,
,,66ce527e14f31490d3e5e44b,66fc97dff25af90ab5b70f20,2024-10-02_01h48.49.958,mdp,2024.2.1,MacIntel,60.60606061,66fa4ebf79326e780c390304,,,,,,,,,,,,,,,,,,,,,,,,,,,,,,,,,,,,,,,,,,,,,,,,,,,,,,,,467.3599,525.8763,0,1,1,0,1,imgs/lion.png,imgs/dog.png,imgs/elephant.png,imgs/giraffe.png,imgs/kangaroo.png,,,,,,,,,,,,,,,,,,,,,,,,
,,66ce527e14f31490d3e5e44b,66fc97dff25af90ab5b70f20,2024-10-02_01h48.49.958,mdp,2024.2.1,MacIntel,60.60606061,66fa4ebf79326e780c390304,,,,,,,,,,,,,,3,seqs/st3seq44.csv,525.8777,544.893,space,18.4894,,544.8991,544.8991,544.9002,546.9923,0,1,left,1.5633,,546.9934,547.8754,0,0,left,547.8768,548.742,0,1,left,0,548.7421,548.7421,548.7432,550.243,0,0,0,0,1,0.4,0.6,0.8,0.2,,,,,,,,,,,,,,,0.3613,,0.8,0.2,0.8,0.2,0.6,0.4,0.4,0.6,,,0.3498,,0.2,0.8,0.4,0.6,0.6,0.4,0.8,0.2,1,0
,,66ce527e14f31490d3e5e44b,66fc97dff25af90ab5b70f20,2024-10-02_01h48.49.958,mdp,2024.2.1,MacIntel,60.60606061,66fa4ebf79326e780c390304,,,,,,,,,,,,,,,,,,,,,550.2438,550.2438,550.2449,551.1431,0,0,left,0.3666,,551.1444,552.0262,0,0,left,552.0275,552.8926,1,1,right,0,552.8926,552.8926,552.8931,554.392,0,1,1,1,1,0.4,0.6,0.8,0.2,,,,,,,,,,,,,,,0.3591,,0.8,0.2,0.8,0.2,0.6,0.4,0.4,0.6,,,0.335,,0.2,0.8,0.4,0.6,0.6,0.4,0.8,0.2,1,0
,,66ce527e14f31490d3e5e44b,66fc97dff25af90ab5b70f20,2024-10-02_01h48.49.958,mdp,2024.2.1,MacIntel,60.60606061,66fa4ebf79326e780c390304,,,,,,,,,,,,,,,,,,,,,554.3926,554.3926,554.3938,556.4929,0,1,left,1.5691,,556.4942,558.0261,1,0,right,558.0273,559.2596,1,1,right,0,559.2597,559.2597,559.2609,560.7595,0,2,2,2,1,0.4,0.6,0.8,0.2,,,,,,,,,,,,,,,1.0091,,0.8,0.2,0.8,0.2,0.6,0.4,0.4,0.6,,,0.7295,,0.2,0.8,0.4,0.6,0.6,0.4,0.8,0.2,1,0
,,66ce527e14f31490d3e5e44b,66fc97dff25af90ab5b70f20,2024-10-02_01h48.49.958,mdp,2024.2.1,MacIntel,60.60606061,66fa4ebf79326e780c390304,,,,,,,,,,,,,,,,,,,,,560.76,560.76,560.7609,561.5596,0,1,left,0.2751,,561.561,562.3596,1,0,right,562.3609,563.4586,0,1,left,0,563.4587,563.4587,563.4599,564.9596,0,3,3,3,1,0.4,0.6,0.8,0.2,,,,,,,,,,,,,,,0.2671,,0.8,0.2,0.8,0.2,0.6,0.4,0.4,0.6,,,0.573,,0.2,0.8,0.4,0.6,0.6,0.4,0.8,0.2,1,0
,,66ce527e14f31490d3e5e44b,66fc97dff25af90ab5b70f20,2024-10-02_01h48.49.958,mdp,2024.2.1,MacIntel,60.60606061,66fa4ebf79326e780c390304,,,,,,,,,,,,,,,,,,,,,564.9604,564.9604,564.9616,566.0758,1,1,right,0.5949,,566.077,566.8921,1,0,right,566.8936,567.7428,1,0,right,1,567.7429,567.743,567.7442,569.2429,0,4,4,4,1,0.4,0.6,0.8,0.2,,,,,,,,,,,,,,,0.3121,,0.8,0.2,0.8,0.2,0.6,0.4,0.4,0.6,,,0.335,,0.2,0.8,0.4,0.6,0.6,0.4,0.8,0.2,1,0
,,66ce527e14f31490d3e5e44b,66fc97dff25af90ab5b70f20,2024-10-02_01h48.49.958,mdp,2024.2.1,MacIntel,60.60606061,66fa4ebf79326e780c390304,,,,,,,,,,,,,,,,,,,,,569.2435,569.2435,569.2446,570.7263,1,0,right,0.951,,570.7276,571.493,1,0,right,571.4942,572.3262,1,1,right,0,572.3264,572.3264,572.3276,573.8264,0,5,5,5,1,0.4,0.6,0.8,0.2,,,,,,,,,,,,,,,0.2428,,0.8,0.2,0.8,0.2,0.6,0.4,0.4,0.6,,,0.3009,,0.2,0.8,0.4,0.6,0.6,0.4,0.8,0.2,1,0
,,66ce527e14f31490d3e5e44b,66fc97dff25af90ab5b70f20,2024-10-02_01h48.49.958,mdp,2024.2.1,MacIntel,60.60606061,66fa4ebf79326e780c390304,,,,,,,,,,,,,,,,,,,,,573.8273,573.8273,573.8284,574.6094,1,0,right,0.2615,,574.6107,575.3929,1,0,right,575.3942,576.3929,0,1,left,0,576.3931,576.3931,576.3942,577.8932,0,6,6,6,1,0.4,0.6,0.8,0.2,,,,,,,,,,,,,,,0.2706,,0.6,0.4,0.2,0.8,0.6,0.4,0.4,0.6,,,0.4704,,0.2,0.8,0.4,0.6,0.6,0.4,0.8,0.2,1,0
,,66ce527e14f31490d3e5e44b,66fc97dff25af90ab5b70f20,2024-10-02_01h48.49.958,mdp,2024.2.1,MacIntel,60.60606061,66fa4ebf79326e780c390304,,,,,,,,,,,,,,,,,,,,,577.8939,577.8939,577.8952,581.643,1,0,right,3.222,,581.6442,582.4762,0,0,left,582.4775,583.2429,0,1,left,0,583.243,583.2431,583.2442,584.743,0,7,7,7,1,0.4,0.6,0.8,0.2,,,,,,,,,,,,,,,0.3023,,0.6,0.4,0.2,0.8,0.6,0.4,0.4,0.6,,,0.2456,,0.2,0.8,0.4,0.6,0.6,0.4,0.8,0.2,1,0
,,66ce527e14f31490d3e5e44b,66fc97dff25af90ab5b70f20,2024-10-02_01h48.49.958,mdp,2024.2.1,MacIntel,60.60606061,66fa4ebf79326e780c390304,,,,,,,,,,,,,,,,,,,,,584.7437,584.7438,584.7449,585.5596,1,0,right,0.2948,,585.5608,586.4763,0,0,left,586.4776,587.5263,1,1,right,0,587.5265,587.5265,587.5278,589.0264,0,8,8,8,1,0.4,0.6,0.8,0.2,,,,,,,,,,,,,,,0.3948,,0.6,0.4,0.2,0.8,0.2,0.8,0.6,0.4,,,0.5184,,0.2,0.8,0.4,0.6,0.6,0.4,0.8,0.2,1,0
,,66ce527e14f31490d3e5e44b,66fc97dff25af90ab5b70f20,2024-10-02_01h48.49.958,mdp,2024.2.1,MacIntel,60.60606061,66fa4ebf79326e780c390304,,,,,,,,,,,,,,,,,,,,,589.0272,589.0272,589.0285,591.7096,0,1,left,2.155,,591.7109,592.3762,0,0,left,592.3775,593.1095,0,1,left,0,593.1095,593.1096,593.1108,594.6096,0,9,9,9,1,0.4,0.6,0.8,0.2,,,,,,,,,,,,,,,0.1325,,0.6,0.4,0.2,0.8,0.2,0.8,0.6,0.4,,,0.2123,,0.2,0.8,0.4,0.6,0.6,0.4,0.8,0.2,1,0
,,66ce527e14f31490d3e5e44b,66fc97dff25af90ab5b70f20,2024-10-02_01h48.49.958,mdp,2024.2.1,MacIntel,60.60606061,66fa4ebf79326e780c390304,,,,,,,,,,,,,,,,,,,,,594.6102,594.6102,594.6115,595.4428,0,0,left,0.3003,,595.4442,596.41,1,1,right,596.4114,597.5096,0,1,left,0,597.5097,597.5097,597.5109,599.0097,0,10,10,10,1,0.4,0.6,0.8,0.2,,,,,,,,,,,,,,,0.4301,,0.6,0.4,0.2,0.8,0.2,0.8,0.6,0.4,,,0.5754,,0.2,0.8,0.4,0.6,0.6,0.4,0.8,0.2,1,0
,,66ce527e14f31490d3e5e44b,66fc97dff25af90ab5b70f20,2024-10-02_01h48.49.958,mdp,2024.2.1,MacIntel,60.60606061,66fa4ebf79326e780c390304,,,,,,,,,,,,,,,,,,,,,599.0104,599.0104,599.0116,599.9096,0,1,left,0.3721,,599.911,600.7087,0,1,left,600.7101,601.4763,1,0,right,1,601.4764,601.4764,601.4774,602.9764,0,11,11,11,1,0.4,0.6,0.8,0.2,,,,,,,,,,,,,,,0.2634,,0.6,0.4,0.2,0.8,0.2,0.8,0.6,0.4,,,0.2455,,0.2,0.8,0.4,0.6,0.6,0.4,0.8,0.2,1,0
,,66ce527e14f31490d3e5e44b,66fc97dff25af90ab5b70f20,2024-10-02_01h48.49.958,mdp,2024.2.1,MacIntel,60.60606061,66fa4ebf79326e780c390304,,,,,,,,,,,,,,,,,,,,,602.977,602.9771,602.9784,607.0096,0,1,left,3.5002,,607.011,607.8263,0,0,left,607.8275,608.6096,0,1,left,0,608.6096,608.6096,608.6108,610.1097,0,12,12,12,1,0.4,0.6,0.8,0.2,,,,,,,,,,,,,,,0.2851,,0.6,0.4,0.2,0.8,0.2,0.8,0.6,0.4,,,0.258,,0.2,0.8,0.4,0.6,0.6,0.4,0.8,0.2,1,0
,,66ce527e14f31490d3e5e44b,66fc97dff25af90ab5b70f20,2024-10-02_01h48.49.958,mdp,2024.2.1,MacIntel,60.60606061,66fa4ebf79326e780c390304,,,,,,,,,,,,,,,,,,,,,610.1105,610.1105,610.1115,613.8263,0,0,left,3.1957,,613.8276,614.6597,0,0,left,614.6611,615.4596,1,1,right,0,615.4598,615.4598,615.4609,616.9597,0,13,13,13,1,0.4,0.6,0.8,0.2,,,,,,,,,,,,,,,0.2965,,0.6,0.4,0.2,0.8,0.2,0.8,0.6,0.4,,,0.2727,,0.2,0.8,0.4,0.6,0.6,0.4,0.8,0.2,1,0
,,66ce527e14f31490d3e5e44b,66fc97dff25af90ab5b70f20,2024-10-02_01h48.49.958,mdp,2024.2.1,MacIntel,60.60606061,66fa4ebf79326e780c390304,,,,,,,,,,,,,,,,,,,,,616.9605,616.9605,616.9617,617.8762,0,1,left,0.395,,617.8773,618.6429,1,1,right,618.6442,619.4593,1,0,right,1,619.4594,619.4594,619.4609,620.9597,0,14,14,14,1,0.4,0.6,0.8,0.2,,,,,,,,,,,,,,,0.2514,,0.6,0.4,0.2,0.8,0.2,0.8,0.6,0.4,,,0.2809,,0.2,0.8,0.4,0.6,0.6,0.4,0.8,0.2,1,0
,,66ce527e14f31490d3e5e44b,66fc97dff25af90ab5b70f20,2024-10-02_01h48.49.958,mdp,2024.2.1,MacIntel,60.60606061,66fa4ebf79326e780c390304,,,,,,,,,,,,,,,,,,,,,620.9605,620.9605,620.9617,646.743,0,0,left,25.2608,,646.7441,647.5596,0,1,left,647.5609,648.3766,0,0,left,1,648.3768,648.3768,648.3779,649.8756,0,15,15,15,1,0.4,0.6,0.8,0.2,,,,,,,,,,,,,,,0.2914,,0.6,0.4,0.2,0.8,0.2,0.8,0.6,0.4,,,0.2971,,0.2,0.8,0.4,0.6,0.8,0.2,0.2,0.8,1,0
,,66ce527e14f31490d3e5e44b,66fc97dff25af90ab5b70f20,2024-10-02_01h48.49.958,mdp,2024.2.1,MacIntel,60.60606061,66fa4ebf79326e780c390304,,,,,,,,,,,,,,,,,,,,,649.8764,649.8764,649.8778,651.1093,0,1,left,0.7096,,651.1099,651.8927,0,1,left,651.8931,652.643,0,0,left,1,652.6431,652.6431,652.6444,654.1431,0,16,16,16,1,0.4,0.6,0.8,0.2,,,,,,,,,,,,,,,0.2637,,0.6,0.4,0.2,0.8,0.2,0.8,0.6,0.4,,,0.2381,,0.2,0.8,0.4,0.6,0.8,0.2,0.2,0.8,1,0
,,66ce527e14f31490d3e5e44b,66fc97dff25af90ab5b70f20,2024-10-02_01h48.49.958,mdp,2024.2.1,MacIntel,60.60606061,66fa4ebf79326e780c390304,,,,,,,,,,,,,,,,,,,,,654.1439,654.1439,654.1451,654.9596,0,1,left,0.2833,,654.9607,655.7429,0,0,left,655.7444,656.5423,0,1,left,0,656.5424,656.5424,656.5436,658.0432,0,17,17,17,1,0.4,0.6,0.8,0.2,,,,,,,,,,,,,,,0.2635,,0.6,0.4,0.2,0.8,0.2,0.8,0.6,0.4,,,0.2752,,0.2,0.8,0.4,0.6,0.8,0.2,0.2,0.8,1,0
,,66ce527e14f31490d3e5e44b,66fc97dff25af90ab5b70f20,2024-10-02_01h48.49.958,mdp,2024.2.1,MacIntel,60.60606061,66fa4ebf79326e780c390304,,,,,,,,,,,,,,,,,,,,,658.0439,658.0439,658.0452,658.8764,0,0,left,0.2993,,658.8776,659.693,0,0,left,659.6943,660.493,1,0,right,1,660.4931,660.4931,660.4945,661.993,0,18,18,18,1,0.4,0.6,0.8,0.2,,,,,,,,,,,,,,,0.2916,,0.6,0.4,0.2,0.8,0.2,0.8,0.6,0.4,,,0.266,,0.2,0.8,0.4,0.6,0.8,0.2,0.2,0.8,1,0
,,66ce527e14f31490d3e5e44b,66fc97dff25af90ab5b70f20,2024-10-02_01h48.49.958,mdp,2024.2.1,MacIntel,60.60606061,66fa4ebf79326e780c390304,,,,,,,,,,,,,,,,,,,,,661.9938,661.9939,661.9951,662.5596,0,1,left,0.0391,,662.5609,663.3097,0,1,left,663.311,664.0597,0,0,left,1,664.0598,664.0598,664.061,665.5595,0,19,19,19,1,0.4,0.6,0.8,0.2,,,,,,,,,,,,,,,0.2139,,0.6,0.4,0.2,0.8,0.2,0.8,0.6,0.4,,,0.2255,,0.2,0.8,0.4,0.6,0.8,0.2,0.2,0.8,1,0
,,66ce527e14f31490d3e5e44b,66fc97dff25af90ab5b70f20,2024-10-02_01h48.49.958,mdp,2024.2.1,MacIntel,60.60606061,66fa4ebf79326e780c390304,,,,,,,,,,,,,,,,,,,,,665.5598,665.5598,665.5604,666.1762,0,0,left,0.0973,,666.1776,666.9429,0,0,left,666.9443,667.693,0,1,left,0,667.6931,667.6931,667.6943,669.1931,0,20,20,20,1,0.4,0.6,0.8,0.2,,,,,,,,,,,,,,,0.2412,,0.6,0.4,0.2,0.8,0.2,0.8,0.6,0.4,,,0.2263,,0.2,0.8,0.4,0.6,0.8,0.2,0.2,0.8,1,0
,,66ce527e14f31490d3e5e44b,66fc97dff25af90ab5b70f20,2024-10-02_01h48.49.958,mdp,2024.2.1,MacIntel,60.60606061,66fa4ebf79326e780c390304,,,,,,,,,,,,,,,,,,,,,669.1939,669.1939,669.1951,670.0097,0,1,left,0.2844,,670.0109,670.8263,0,1,left,670.8276,671.6262,1,1,right,0,671.6264,671.6264,671.6276,673.1264,0,21,21,21,1,0.4,0.6,0.8,0.2,,,,,,,,,,,,,,,0.283,,0.6,0.4,0.2,0.8,0.2,0.8,0.6,0.4,,,0.276,,0.2,0.8,0.4,0.6,0.8,0.2,0.2,0.8,1,0
,,66ce527e14f31490d3e5e44b,66fc97dff25af90ab5b70f20,2024-10-02_01h48.49.958,mdp,2024.2.1,MacIntel,60.60606061,66fa4ebf79326e780c390304,,,,,,,,,,,,,,,,,,,,,673.1272,673.1273,673.1285,674.0764,0,1,left,0.4275,,674.0776,674.8597,1,1,right,674.8609,675.6429,0,0,left,1,675.6432,675.6432,675.6444,677.143,0,22,22,22,1,0.4,0.6,0.8,0.2,,,,,,,,,,,,,,,0.2606,,0.6,0.4,0.2,0.8,0.2,0.8,0.6,0.4,,,0.2515,,0.2,0.8,0.4,0.6,0.8,0.2,0.2,0.8,1,0
,,66ce527e14f31490d3e5e44b,66fc97dff25af90ab5b70f20,2024-10-02_01h48.49.958,mdp,2024.2.1,MacIntel,60.60606061,66fa4ebf79326e780c390304,,,,,,,,,,,,,,,,,,,,,677.1438,677.1438,677.1451,677.9596,0,1,left,0.2836,,677.961,678.6929,0,1,left,678.6942,679.4929,0,0,left,1,679.4931,679.4931,679.4941,680.993,0,23,23,23,1,0.4,0.6,0.8,0.2,,,,,,,,,,,,,,,0.212,,0.6,0.4,0.2,0.8,0.2,0.8,0.6,0.4,,,0.2768,,0.2,0.8,0.4,0.6,0.8,0.2,0.2,0.8,1,0
,,66ce527e14f31490d3e5e44b,66fc97dff25af90ab5b70f20,2024-10-02_01h48.49.958,mdp,2024.2.1,MacIntel,60.60606061,66fa4ebf79326e780c390304,,,,,,,,,,,,,,,,,,,,,680.9936,680.9936,680.9948,681.8096,0,0,left,0.2887,,681.8109,682.8764,0,1,left,682.8778,683.7429,0,0,left,1,683.743,683.743,683.7443,685.243,0,24,24,24,1,0.4,0.6,0.8,0.2,,,,,,,,,,,,,,,0.5408,,0.6,0.4,0.2,0.8,0.2,0.8,0.6,0.4,,,0.3331,,0.2,0.8,0.4,0.6,0.8,0.2,0.2,0.8,1,0
,,66ce527e14f31490d3e5e44b,66fc97dff25af90ab5b70f20,2024-10-02_01h48.49.958,mdp,2024.2.1,MacIntel,60.60606061,66fa4ebf79326e780c390304,,,,,,,,,,,,,,,,,,,,,685.2437,685.2437,685.245,685.9429,0,1,left,0.1767,,685.9441,686.7597,0,1,left,686.7611,687.5431,0,0,left,1,687.5432,687.5432,687.5442,689.0428,0,25,25,25,1,0.4,0.6,0.8,0.2,,,,,,,,,,,,,,,0.2798,,0.6,0.4,0.2,0.8,0.2,0.8,0.6,0.4,,,0.2602,,0.2,0.8,0.4,0.6,0.8,0.2,0.2,0.8,1,0
,,66ce527e14f31490d3e5e44b,66fc97dff25af90ab5b70f20,2024-10-02_01h48.49.958,mdp,2024.2.1,MacIntel,60.60606061,66fa4ebf79326e780c390304,,,,,,,,,,,,,,,,,,,,,689.0434,689.0434,689.0447,690.0097,0,0,left,0.4458,,690.0109,690.7763,0,1,left,690.7776,691.5762,0,0,left,1,691.5764,691.5764,691.5776,693.0765,0,26,26,26,1,0.4,0.6,0.8,0.2,,,,,,,,,,,,,,,0.2331,,0.4,0.6,0.4,0.6,0.2,0.8,0.6,0.4,,,0.2677,,0.2,0.8,0.4,0.6,0.8,0.2,0.2,0.8,1,0
,,66ce527e14f31490d3e5e44b,66fc97dff25af90ab5b70f20,2024-10-02_01h48.49.958,mdp,2024.2.1,MacIntel,60.60606061,66fa4ebf79326e780c390304,,,,,,,,,,,,,,,,,,,,,693.0773,693.0773,693.0784,694.0598,0,1,left,0.4618,,694.0611,694.8264,0,1,left,694.8277,695.5761,0,0,left,1,695.5762,695.5762,695.5774,697.0764,0,27,27,27,1,0.4,0.6,0.8,0.2,,,,,,,,,,,,,,,0.2334,,0.6,0.4,0.8,0.2,0.2,0.8,0.6,0.4,,,0.2165,,0.2,0.8,0.4,0.6,0.8,0.2,0.2,0.8,1,0
,,66ce527e14f31490d3e5e44b,66fc97dff25af90ab5b70f20,2024-10-02_01h48.49.958,mdp,2024.2.1,MacIntel,60.60606061,66fa4ebf79326e780c390304,,,,,,,,,,,,,,,,,,,,,697.0771,697.0771,697.0783,697.643,0,0,left,0.0361,,697.6443,698.2764,0,0,left,698.2776,698.9928,0,1,left,0,698.9929,698.9929,698.9941,700.4931,0,28,28,28,1,0.4,0.6,0.8,0.2,,,,,,,,,,,,,,,0.1073,,0.6,0.4,0.8,0.2,0.2,0.8,0.6,0.4,,,0.1914,,0.2,0.8,0.4,0.6,0.8,0.2,0.2,0.8,1,0
,,66ce527e14f31490d3e5e44b,66fc97dff25af90ab5b70f20,2024-10-02_01h48.49.958,mdp,2024.2.1,MacIntel,60.60606061,66fa4ebf79326e780c390304,,,,,,,,,,,,,,,,,,,,,700.4939,700.4939,700.4952,701.6764,0,1,left,0.6552,,701.6776,702.5422,0,1,left,702.5435,703.5429,1,1,right,0,703.543,703.543,703.5442,705.0425,0,29,29,29,1,0.2,0.8,0.2,0.8,,,,,,,,,,,,,,,0.3299,,0.6,0.4,0.8,0.2,0.2,0.8,0.6,0.4,,,0.4808,,0.2,0.8,0.4,0.6,0.8,0.2,0.2,0.8,1,0
,,66ce527e14f31490d3e5e44b,66fc97dff25af90ab5b70f20,2024-10-02_01h48.49.958,mdp,2024.2.1,MacIntel,60.60606061,66fa4ebf79326e780c390304,,,,,,,,,,,,,,,,,,,,,705.0431,705.0432,705.0443,705.9586,0,0,left,0.3951,,705.9597,706.6597,1,0,right,706.661,707.3097,0,1,left,0,707.3098,707.3098,707.3109,708.8094,0,30,30,30,1,0.2,0.8,0.2,0.8,,,,,,,,,,,,,,,0.1921,,0.6,0.4,0.8,0.2,0.2,0.8,0.6,0.4,,,0.1249,,0.2,0.8,0.4,0.6,0.8,0.2,0.2,0.8,1,0
,,66ce527e14f31490d3e5e44b,66fc97dff25af90ab5b70f20,2024-10-02_01h48.49.958,mdp,2024.2.1,MacIntel,60.60606061,66fa4ebf79326e780c390304,,,,,,,,,,,,,,,,,,,,,708.8099,708.8099,708.8111,710.2428,0,1,left,0.9116,,710.2441,711.0097,1,0,right,711.0112,711.693,1,1,right,0,711.6931,711.6931,711.6943,713.193,0,31,31,31,1,0.2,0.8,0.2,0.8,,,,,,,,,,,,,,,0.2474,,0.6,0.4,0.8,0.2,0.2,0.8,0.6,0.4,,,0.1619,,0.2,0.8,0.4,0.6,0.2,0.8,0.8,0.2,1,0
,,66ce527e14f31490d3e5e44b,66fc97dff25af90ab5b70f20,2024-10-02_01h48.49.958,mdp,2024.2.1,MacIntel,60.60606061,66fa4ebf79326e780c390304,,,,,,,,,,,,,,,,,,,,,713.1939,713.1939,713.1951,713.9597,1,1,right,0.2351,,713.9609,714.7094,0,0,left,714.7107,715.3763,0,1,left,0,715.3764,715.3764,715.3777,716.8756,0,32,32,32,1,0.2,0.8,0.2,0.8,,,,,,,,,,,,,,,0.2195,,0.6,0.4,0.8,0.2,0.2,0.8,0.6,0.4,,,0.1448,,0.2,0.8,0.4,0.6,0.2,0.8,0.8,0.2,1,0
,,66ce527e14f31490d3e5e44b,66fc97dff25af90ab5b70f20,2024-10-02_01h48.49.958,mdp,2024.2.1,MacIntel,60.60606061,66fa4ebf79326e780c390304,,,,,,,,,,,,,,,,,,,,,716.876,716.876,716.8771,718.4766,1,1,right,1.0863,,718.4777,719.143,0,1,left,719.1442,719.8597,1,0,right,1,719.8597,719.8597,719.8604,721.3595,0,33,33,33,1,0.2,0.8,0.2,0.8,,,,,,,,,,,,,,,0.1451,,0.6,0.4,0.8,0.2,0.2,0.8,0.6,0.4,,,0.1907,,0.2,0.8,0.4,0.6,0.2,0.8,0.8,0.2,1,0
,,66ce527e14f31490d3e5e44b,66fc97dff25af90ab5b70f20,2024-10-02_01h48.49.958,mdp,2024.2.1,MacIntel,60.60606061,66fa4ebf79326e780c390304,,,,,,,,,,,,,,,,,,,,,721.3597,721.3597,721.3605,722.1596,0,1,left,0.2679,,722.1609,722.9758,0,1,left,722.977,723.7258,0,1,left,0,723.7259,723.7259,723.7271,725.2263,0,34,34,34,1,0.2,0.8,0.2,0.8,,,,,,,,,,,,,,,0.2937,,0.6,0.4,0.8,0.2,0.2,0.8,0.6,0.4,,,0.2461,,0.2,0.8,0.4,0.6,0.2,0.8,0.8,0.2,1,0
,,66ce527e14f31490d3e5e44b,66fc97dff25af90ab5b70f20,2024-10-02_01h48.49.958,mdp,2024.2.1,MacIntel,60.60606061,66fa4ebf79326e780c390304,,,,,,,,,,,,,,,,,,,,,725.2268,725.2268,725.2279,726.0264,0,1,left,0.2691,,726.0277,726.8094,0,1,left,726.8109,727.5094,1,1,right,0,727.5096,727.5096,727.5108,729.0098,0,35,35,35,1,0.2,0.8,0.2,0.8,,,,,,,,,,,,,,,0.2509,,0.6,0.4,0.8,0.2,0.2,0.8,0.6,0.4,,,0.1952,,0.2,0.8,0.4,0.6,0.8,0.2,0.6,0.4,1,0
,,66ce527e14f31490d3e5e44b,66fc97dff25af90ab5b70f20,2024-10-02_01h48.49.958,mdp,2024.2.1,MacIntel,60.60606061,66fa4ebf79326e780c390304,,,,,,,,,,,,,,,,,,,,,729.0106,729.0106,729.0119,729.8092,0,1,left,0.2797,,729.8105,730.5765,1,1,right,730.5779,731.2928,0,0,left,1,731.2929,731.2929,731.2941,732.7933,0,36,36,36,1,0.2,0.8,0.2,0.8,,,,,,,,,,,,,,,0.2515,,0.6,0.4,0.8,0.2,0.2,0.8,0.6,0.4,,,0.1941,,0.2,0.8,0.4,0.6,0.8,0.2,0.6,0.4,1,0
,,66ce527e14f31490d3e5e44b,66fc97dff25af90ab5b70f20,2024-10-02_01h48.49.958,mdp,2024.2.1,MacIntel,60.60606061,66fa4ebf79326e780c390304,,,,,,,,,,,,,,,,,,,,,732.7941,732.7941,732.7954,733.3264,0,1,left,0.0107,,733.3277,734.0088,0,1,left,734.0101,734.693,0,0,left,1,734.6931,734.6931,734.6943,736.1931,0,37,37,37,1,0.2,0.8,0.2,0.8,,,,,,,,,,,,,,,0.1503,,0.6,0.4,0.8,0.2,0.2,0.8,0.6,0.4,,,0.1793,,0.2,0.8,0.4,0.6,0.8,0.2,0.6,0.4,1,0
,,66ce527e14f31490d3e5e44b,66fc97dff25af90ab5b70f20,2024-10-02_01h48.49.958,mdp,2024.2.1,MacIntel,60.60606061,66fa4ebf79326e780c390304,,,,,,,,,,,,,,,,,,,,,736.1937,736.1937,736.1947,737.3097,0,1,left,0.591,,737.3109,737.9928,0,1,left,737.994,738.6756,0,0,left,1,738.6757,738.6757,738.6769,740.1765,0,38,38,38,1,0.2,0.8,0.2,0.8,,,,,,,,,,,,,,,0.16,,0.6,0.4,0.8,0.2,0.2,0.8,0.6,0.4,,,0.1786,,0.2,0.8,0.4,0.6,0.2,0.8,0.8,0.2,1,0
,,66ce527e14f31490d3e5e44b,66fc97dff25af90ab5b70f20,2024-10-02_01h48.49.958,mdp,2024.2.1,MacIntel,60.60606061,66fa4ebf79326e780c390304,,,,,,,,,,,,,,,,,,,,,740.1772,740.1772,740.1784,740.7088,0,0,left,0.0003,,740.7101,741.3429,0,1,left,741.3441,742.1093,0,1,left,0,742.1094,742.1094,742.1106,743.6098,0,39,39,39,1,0.2,0.8,0.2,0.8,,,,,,,,,,,,,,,0.1189,,0.8,0.2,0.6,0.4,0.2,0.8,0.6,0.4,,,0.2343,,0.2,0.8,0.4,0.6,0.2,0.8,0.8,0.2,1,0
,,66ce527e14f31490d3e5e44b,66fc97dff25af90ab5b70f20,2024-10-02_01h48.49.958,mdp,2024.2.1,MacIntel,60.60606061,66fa4ebf79326e780c390304,,,,,,,,,,,,,,,,,,,,,743.6108,743.6108,743.6122,744.4094,0,1,left,0.277,,744.4106,745.0265,0,0,left,745.028,745.7093,1,1,right,0,745.7094,745.7094,745.7106,747.2092,0,40,40,40,1,0.2,0.8,0.2,0.8,,,,,,,,,,,,,,,0.0809,,0.8,0.2,0.6,0.4,0.2,0.8,0.6,0.4,,,0.1479,,0.2,0.8,0.4,0.6,0.2,0.8,0.8,0.2,1,0
,,66ce527e14f31490d3e5e44b,66fc97dff25af90ab5b70f20,2024-10-02_01h48.49.958,mdp,2024.2.1,MacIntel,60.60606061,66fa4ebf79326e780c390304,,,,,,,,,,,,,,,,,,,,,747.2099,747.2099,747.2112,748.0098,0,1,left,0.2722,,748.0112,748.5597,1,0,right,748.5609,749.1428,0,1,left,0,749.1429,749.1429,749.144,750.6431,0,41,41,41,1,0.2,0.8,0.2,0.8,,,,,,,,,,,,,,,0.0202,,0.8,0.2,0.6,0.4,0.2,0.8,0.6,0.4,,,0.064,,0.2,0.8,0.4,0.6,0.2,0.8,0.8,0.2,1,0
,,66ce527e14f31490d3e5e44b,66fc97dff25af90ab5b70f20,2024-10-02_01h48.49.958,mdp,2024.2.1,MacIntel,60.60606061,66fa4ebf79326e780c390304,,,,,,,,,,,,,,,,,,,,,750.6438,750.6438,750.645,752.1763,0,1,left,1.0106,,752.1776,752.7598,1,0,right,752.761,753.4097,1,0,right,1,753.4098,753.4098,753.4111,754.9094,0,42,42,42,1,0.2,0.8,0.2,0.8,,,,,,,,,,,,,,,0.0518,,0.8,0.2,0.6,0.4,0.2,0.8,0.6,0.4,,,0.1299,,0.2,0.8,0.4,0.6,0.2,0.8,0.8,0.2,1,0
,,66ce527e14f31490d3e5e44b,66fc97dff25af90ab5b70f20,2024-10-02_01h48.49.958,mdp,2024.2.1,MacIntel,60.60606061,66fa4ebf79326e780c390304,,,,,,,,,,,,,,,,,,,,,754.9102,754.9102,754.9114,755.9429,0,0,left,0.5006,,755.9443,756.7263,0,0,left,756.7276,757.443,0,0,left,1,757.4431,757.4431,757.4444,758.9431,0,43,43,43,1,0.2,0.8,0.2,0.8,,,,,,,,,,,,,,,0.2689,,0.8,0.2,0.6,0.4,0.6,0.4,0.2,0.8,,,0.1836,,0.2,0.8,0.4,0.6,0.2,0.8,0.8,0.2,1,0
,,66ce527e14f31490d3e5e44b,66fc97dff25af90ab5b70f20,2024-10-02_01h48.49.958,mdp,2024.2.1,MacIntel,60.60606061,66fa4ebf79326e780c390304,,,,,,,,,,,,,,,,,,,,,758.9438,758.9439,758.945,759.7097,0,0,left,0.2346,,759.7109,760.5597,0,0,left,760.561,761.3424,0,1,left,0,761.3425,761.3425,761.3438,762.8427,0,44,44,44,1,0.2,0.8,0.2,0.8,,,,,,,,,,,,,,,0.3208,,0.8,0.2,0.6,0.4,0.6,0.4,0.2,0.8,,,0.2623,,0.2,0.8,0.4,0.6,0.2,0.8,0.8,0.2,1,0
,,66ce527e14f31490d3e5e44b,66fc97dff25af90ab5b70f20,2024-10-02_01h48.49.958,mdp,2024.2.1,MacIntel,60.60606061,66fa4ebf79326e780c390304,,,,,,,,,,,,,,,,,,,,,762.8435,762.8435,762.8446,763.6264,0,1,left,0.2535,,763.6277,764.443,0,1,left,764.4443,765.1931,1,1,right,0,765.1932,765.1932,765.1944,766.6924,0,45,45,45,1,0.2,0.8,0.2,0.8,,,,,,,,,,,,,,,0.2819,,0.8,0.2,0.6,0.4,0.6,0.4,0.2,0.8,,,0.2169,,0.2,0.8,0.4,0.6,0.2,0.8,0.8,0.2,1,0
,,66ce527e14f31490d3e5e44b,66fc97dff25af90ab5b70f20,2024-10-02_01h48.49.958,mdp,2024.2.1,MacIntel,60.60606061,66fa4ebf79326e780c390304,,,,,,,,,,,,,,,,,,,,,766.6932,766.6932,766.6945,767.5098,0,1,left,0.2957,,767.5111,768.1764,1,1,right,768.1777,768.859,0,1,left,0,768.8591,768.8591,768.8602,770.36,0,46,46,46,1,0.2,0.8,0.2,0.8,,,,,,,,,,,,,,,0.1333,,0.8,0.2,0.6,0.4,0.6,0.4,0.2,0.8,,,0.1604,,0.2,0.8,0.4,0.6,0.2,0.8,0.8,0.2,1,0
,,66ce527e14f31490d3e5e44b,66fc97dff25af90ab5b70f20,2024-10-02_01h48.49.958,mdp,2024.2.1,MacIntel,60.60606061,66fa4ebf79326e780c390304,,,,,,,,,,,,,,,,,,,,,770.3607,770.3608,770.3619,771.1431,0,1,left,0.2613,,771.1443,771.7432,1,0,right,771.7443,772.343,1,1,right,0,772.3431,772.3431,772.3444,773.8431,0,47,47,47,1,0.2,0.8,0.2,0.8,,,,,,,,,,,,,,,0.073,,0.8,0.2,0.6,0.4,0.6,0.4,0.2,0.8,,,0.0754,,0.2,0.8,0.4,0.6,0.2,0.8,0.8,0.2,1,0
,,66ce527e14f31490d3e5e44b,66fc97dff25af90ab5b70f20,2024-10-02_01h48.49.958,mdp,2024.2.1,MacIntel,60.60606061,66fa4ebf79326e780c390304,,,,,,,,,,,,,,,,,,,,,773.8438,773.8438,773.845,774.4431,1,1,right,0.0686,,774.4444,775.043,0,1,left,775.0443,775.7924,0,1,left,0,775.7925,775.7925,775.7936,777.2932,0,48,48,48,1,0.2,0.8,0.2,0.8,,,,,,,,,,,,,,,0.0732,,0.8,0.2,0.6,0.4,0.6,0.4,0.2,0.8,,,0.2249,,0.2,0.8,0.4,0.6,0.2,0.8,0.8,0.2,1,0
,,66ce527e14f31490d3e5e44b,66fc97dff25af90ab5b70f20,2024-10-02_01h48.49.958,mdp,2024.2.1,MacIntel,60.60606061,66fa4ebf79326e780c390304,,,,,,,,,,,,,,,,,,,,,777.294,777.294,777.2953,779.6764,1,1,right,1.8615,,779.6776,780.2765,0,0,left,780.2773,780.8756,1,0,right,1,780.8758,780.8758,780.877,782.3764,0,49,49,49,1,0.2,0.8,0.2,0.8,,,,,,,,,,,,,,,0.0866,,0.8,0.2,0.6,0.4,0.6,0.4,0.2,0.8,,,0.0635,,0.2,0.8,0.4,0.6,0.2,0.8,0.8,0.2,1,0
,,66ce527e14f31490d3e5e44b,66fc97dff25af90ab5b70f20,2024-10-02_01h48.49.958,mdp,2024.2.1,MacIntel,60.60606061,66fa4ebf79326e780c390304,,,,,,,,,,,,,,,,,,,,,,,,,,,,,,,,,,,,,,,,,,,,,,,,,,,,,,,,782.3766,840.8766,0,2,2,5,1,imgs/cat.png,imgs/dog.png,imgs/kangaroo.png,imgs/goat.png,imgs/giraffe.png,,,,,,,,,,,,,,,,,,,,,,,,
,,66ce527e14f31490d3e5e44b,66fc97dff25af90ab5b70f20,2024-10-02_01h48.49.958,mdp,2024.2.1,MacIntel,60.60606061,66fa4ebf79326e780c390304,,,,,,,,,,,,,,3,seqs/st3seq17.csv,840.8774,848.0924,space,6.6844,,848.0987,848.0987,848.0998,852.4599,0,0,left,3.8403,,852.4613,853.1267,0,1,left,853.1281,853.7434,0,0,left,1,853.7435,853.7435,853.7447,855.2423,0,0,0,0,1,0.4,0.6,0.6,0.4,,,,,,,,,,,,,,,0.1284,,0.6,0.4,0.2,0.8,0.6,0.4,0.2,0.8,,,0.082,,0.2,0.8,0.6,0.4,0.8,0.2,0.6,0.4,1,0
,,66ce527e14f31490d3e5e44b,66fc97dff25af90ab5b70f20,2024-10-02_01h48.49.958,mdp,2024.2.1,MacIntel,60.60606061,66fa4ebf79326e780c390304,,,,,,,,,,,,,,,,,,,,,855.2431,855.2431,855.2443,855.7766,0,1,left,0.022,,855.7779,856.3932,0,0,left,856.3945,857.0266,0,1,left,0,857.0267,857.0267,857.0278,858.5266,0,1,1,1,1,0.4,0.6,0.6,0.4,,,,,,,,,,,,,,,0.0837,,0.6,0.4,0.2,0.8,0.6,0.4,0.2,0.8,,,0.1072,,0.2,0.8,0.6,0.4,0.8,0.2,0.6,0.4,1,0
,,66ce527e14f31490d3e5e44b,66fc97dff25af90ab5b70f20,2024-10-02_01h48.49.958,mdp,2024.2.1,MacIntel,60.60606061,66fa4ebf79326e780c390304,,,,,,,,,,,,,,,,,,,,,858.5273,858.5273,858.5285,859.36,0,1,left,0.3059,,859.3612,859.9433,0,0,left,859.9445,860.559,1,1,right,0,860.559,860.559,860.56,862.0599,0,2,2,2,1,0.4,0.6,0.6,0.4,,,,,,,,,,,,,,,0.0635,,0.6,0.4,0.2,0.8,0.6,0.4,0.2,0.8,,,0.0842,,0.2,0.8,0.6,0.4,0.4,0.6,0.8,0.2,1,0
,,66ce527e14f31490d3e5e44b,66fc97dff25af90ab5b70f20,2024-10-02_01h48.49.958,mdp,2024.2.1,MacIntel,60.60606061,66fa4ebf79326e780c390304,,,,,,,,,,,,,,,,,,,,,862.0606,862.0606,862.0618,862.6932,0,1,left,0.1055,,862.6945,863.2934,1,1,right,863.2947,863.8596,0,1,left,0,863.8597,863.8597,863.8608,865.3599,0,3,3,3,1,0.4,0.6,0.6,0.4,,,,,,,,,,,,,,,0.0671,,0.6,0.4,0.2,0.8,0.6,0.4,0.2,0.8,,,0.0316,,0.2,0.8,0.6,0.4,0.4,0.6,0.8,0.2,1,0
,,66ce527e14f31490d3e5e44b,66fc97dff25af90ab5b70f20,2024-10-02_01h48.49.958,mdp,2024.2.1,MacIntel,60.60606061,66fa4ebf79326e780c390304,,,,,,,,,,,,,,,,,,,,,865.3607,865.3607,865.3619,865.9099,0,0,left,0.0166,,865.9113,866.4933,1,1,right,866.4946,867.0933,1,0,right,1,867.0934,867.0934,867.0944,868.5932,0,4,4,4,1,0.4,0.6,0.6,0.4,,,,,,,,,,,,,,,0.0495,,0.6,0.4,0.2,0.8,0.6,0.4,0.2,0.8,,,0.0726,,0.2,0.8,0.6,0.4,0.4,0.6,0.8,0.2,1,0
,,66ce527e14f31490d3e5e44b,66fc97dff25af90ab5b70f20,2024-10-02_01h48.49.958,mdp,2024.2.1,MacIntel,60.60606061,66fa4ebf79326e780c390304,,,,,,,,,,,,,,,,,,,,,868.5939,868.5939,868.5953,869.76,1,0,right,0.6457,,869.7613,870.6266,0,0,left,870.6278,871.26,0,1,left,0,871.26,871.26,871.2613,872.7598,0,5,5,5,1,0.4,0.6,0.6,0.4,,,,,,,,,,,,,,,0.3438,,0.6,0.4,0.2,0.8,0.6,0.4,0.2,0.8,,,0.097,,0.2,0.8,0.6,0.4,0.4,0.6,0.8,0.2,1,0
,,66ce527e14f31490d3e5e44b,66fc97dff25af90ab5b70f20,2024-10-02_01h48.49.958,mdp,2024.2.1,MacIntel,60.60606061,66fa4ebf79326e780c390304,,,,,,,,,,,,,,,,,,,,,872.7606,872.7606,872.7619,874.8102,0,0,left,1.5169,,874.8115,875.3932,0,0,left,875.3943,875.9923,0,1,left,0,875.9924,875.9924,875.9937,877.4922,0,6,6,6,1,0.4,0.6,0.6,0.4,,,,,,,,,,,,,,,0.0598,,0.6,0.4,0.2,0.8,0.6,0.4,0.2,0.8,,,0.0676,,0.2,0.8,0.6,0.4,0.4,0.6,0.8,0.2,1,0
,,66ce527e14f31490d3e5e44b,66fc97dff25af90ab5b70f20,2024-10-02_01h48.49.958,mdp,2024.2.1,MacIntel,60.60606061,66fa4ebf79326e780c390304,,,,,,,,,,,,,,,,,,,,,877.4929,877.4929,877.494,878.0766,0,1,left,0.0776,,878.0778,878.6934,0,1,left,878.6946,879.26,1,0,right,1,879.26,879.26,879.2613,880.7599,0,7,7,7,1,0.4,0.6,0.6,0.4,,,,,,,,,,,,,,,0.092,,0.6,0.4,0.2,0.8,0.6,0.4,0.2,0.8,,,0.0422,,0.2,0.8,0.6,0.4,0.4,0.6,0.8,0.2,1,0
,,66ce527e14f31490d3e5e44b,66fc97dff25af90ab5b70f20,2024-10-02_01h48.49.958,mdp,2024.2.1,MacIntel,60.60606061,66fa4ebf79326e780c390304,,,,,,,,,,,,,,,,,,,,,880.7607,880.7607,880.7618,881.5434,0,1,left,0.2546,,881.5447,882.1263,0,1,left,882.1274,882.7099,0,0,left,1,882.71,882.71,882.7113,884.21,0,8,8,8,1,0.6,0.4,0.2,0.8,,,,,,,,,,,,,,,0.0602,,0.6,0.4,0.2,0.8,0.6,0.4,0.2,0.8,,,0.0793,,0.2,0.8,0.6,0.4,0.4,0.6,0.8,0.2,1,0
,,66ce527e14f31490d3e5e44b,66fc97dff25af90ab5b70f20,2024-10-02_01h48.49.958,mdp,2024.2.1,MacIntel,60.60606061,66fa4ebf79326e780c390304,,,,,,,,,,,,,,,,,,,,,884.2107,884.2107,884.212,885.0933,0,0,left,0.3566,,885.0946,885.6433,0,0,left,885.6445,886.26,0,0,left,1,886.2602,886.2602,886.2614,887.76,0,9,9,9,1,0.6,0.4,0.2,0.8,,,,,,,,,,,,,,,0.0237,,0.6,0.4,0.2,0.8,0.6,0.4,0.2,0.8,,,0.0808,,0.2,0.8,0.6,0.4,0.4,0.6,0.8,0.2,1,0
,,66ce527e14f31490d3e5e44b,66fc97dff25af90ab5b70f20,2024-10-02_01h48.49.958,mdp,2024.2.1,MacIntel,60.60606061,66fa4ebf79326e780c390304,,,,,,,,,,,,,,,,,,,,,887.7607,887.7607,887.762,888.5597,0,1,left,0.2707,,888.5606,889.1933,0,1,left,889.1946,889.8764,0,0,left,1,889.8764,889.8764,889.877,891.3766,0,10,10,10,1,0.6,0.4,0.2,0.8,,,,,,,,,,,,,,,0.1125,,0.6,0.4,0.2,0.8,0.6,0.4,0.2,0.8,,,0.1542,,0.2,0.8,0.6,0.4,0.4,0.6,0.8,0.2,1,0
,,66ce527e14f31490d3e5e44b,66fc97dff25af90ab5b70f20,2024-10-02_01h48.49.958,mdp,2024.2.1,MacIntel,60.60606061,66fa4ebf79326e780c390304,,,,,,,,,,,,,,,,,,,,,891.377,891.377,891.3781,891.9933,0,1,left,0.0873,,891.9945,892.7428,0,0,left,892.7441,893.3101,0,0,left,1,893.3102,893.3102,893.3114,894.8099,0,11,11,11,1,0.6,0.4,0.2,0.8,,,,,,,,,,,,,,,0.2196,,0.6,0.4,0.2,0.8,0.6,0.4,0.2,0.8,,,0.0608,,0.2,0.8,0.6,0.4,0.2,0.8,0.4,0.6,1,0
,,66ce527e14f31490d3e5e44b,66fc97dff25af90ab5b70f20,2024-10-02_01h48.49.958,mdp,2024.2.1,MacIntel,60.60606061,66fa4ebf79326e780c390304,,,,,,,,,,,,,,,,,,,,,894.8107,894.8107,894.8117,895.5267,0,0,left,0.1879,,895.5281,896.06,0,1,left,896.0611,896.66,0,1,left,0,896.6602,896.6602,896.6614,898.16,0,12,12,12,1,0.6,0.4,0.2,0.8,,,,,,,,,,,,,,,0.009,,0.6,0.4,0.2,0.8,0.6,0.4,0.2,0.8,,,0.0776,,0.2,0.8,0.6,0.4,0.2,0.8,0.4,0.6,1,0
,,66ce527e14f31490d3e5e44b,66fc97dff25af90ab5b70f20,2024-10-02_01h48.49.958,mdp,2024.2.1,MacIntel,60.60606061,66fa4ebf79326e780c390304,,,,,,,,,,,,,,,,,,,,,898.1607,898.1608,898.162,898.7257,0,0,left,0.0403,,898.727,899.3601,0,0,left,899.3615,901.5434,1,1,right,0,901.5434,901.5434,901.5446,903.0432,0,13,13,13,1,0.6,0.4,0.2,0.8,,,,,,,,,,,,,,,0.1214,,0.6,0.4,0.2,0.8,0.6,0.4,0.2,0.8,,,1.6475,,0.2,0.8,0.6,0.4,0.2,0.8,0.4,0.6,1,0
,,66ce527e14f31490d3e5e44b,66fc97dff25af90ab5b70f20,2024-10-02_01h48.49.958,mdp,2024.2.1,MacIntel,60.60606061,66fa4ebf79326e780c390304,,,,,,,,,,,,,,,,,,,,,903.0439,903.0439,903.0451,903.9434,0,1,left,0.3678,,903.9445,904.5594,1,1,right,904.5607,905.1434,0,1,left,0,905.1435,905.1435,905.1449,906.6433,0,14,14,14,1,0.6,0.4,0.2,0.8,,,,,,,,,,,,,,,0.0916,,0.6,0.4,0.2,0.8,0.6,0.4,0.2,0.8,,,0.0691,,0.2,0.8,0.6,0.4,0.2,0.8,0.4,0.6,1,0
,,66ce527e14f31490d3e5e44b,66fc97dff25af90ab5b70f20,2024-10-02_01h48.49.958,mdp,2024.2.1,MacIntel,60.60606061,66fa4ebf79326e780c390304,,,,,,,,,,,,,,,,,,,,,906.6441,906.6442,906.6453,907.4933,0,0,left,0.3303,,907.4946,908.109,1,0,right,908.1103,908.6933,1,0,right,1,908.6934,908.6934,908.6946,910.1933,0,15,15,15,1,0.6,0.4,0.2,0.8,,,,,,,,,,,,,,,0.0905,,0.2,0.8,0.6,0.4,0.6,0.4,0.2,0.8,,,0.076,,0.2,0.8,0.6,0.4,0.2,0.8,0.4,0.6,1,0
,,66ce527e14f31490d3e5e44b,66fc97dff25af90ab5b70f20,2024-10-02_01h48.49.958,mdp,2024.2.1,MacIntel,60.60606061,66fa4ebf79326e780c390304,,,,,,,,,,,,,,,,,,,,,910.194,910.194,910.195,910.9932,0,1,left,0.2797,,910.9945,911.9268,0,0,left,911.9282,912.56,0,1,left,0,912.5601,912.5601,912.5614,914.06,0,16,16,16,1,0.6,0.4,0.2,0.8,,,,,,,,,,,,,,,0.4131,,0.2,0.8,0.6,0.4,0.6,0.4,0.2,0.8,,,0.103,,0.2,0.8,0.6,0.4,0.2,0.8,0.4,0.6,1,0
,,66ce527e14f31490d3e5e44b,66fc97dff25af90ab5b70f20,2024-10-02_01h48.49.958,mdp,2024.2.1,MacIntel,60.60606061,66fa4ebf79326e780c390304,,,,,,,,,,,,,,,,,,,,,914.0607,914.0607,914.062,915.1766,0,0,left,0.595,,915.1781,915.8433,0,0,left,915.8446,916.4766,1,0,right,1,916.4767,916.4767,916.4779,917.9766,0,17,17,17,1,0.6,0.4,0.2,0.8,,,,,,,,,,,,,,,0.1299,,0.2,0.8,0.6,0.4,0.6,0.4,0.2,0.8,,,0.1121,,0.2,0.8,0.6,0.4,0.2,0.8,0.4,0.6,1,0
,,66ce527e14f31490d3e5e44b,66fc97dff25af90ab5b70f20,2024-10-02_01h48.49.958,mdp,2024.2.1,MacIntel,60.60606061,66fa4ebf79326e780c390304,,,,,,,,,,,,,,,,,,,,,917.9773,917.9773,917.9785,918.76,0,0,left,0.2623,,918.7613,919.4268,0,1,left,919.4278,920.1433,0,1,left,0,920.1433,920.1433,920.1442,921.6433,0,18,18,18,1,0.6,0.4,0.2,0.8,,,,,,,,,,,,,,,0.1336,,0.2,0.8,0.6,0.4,0.6,0.4,0.2,0.8,,,0.1844,,0.2,0.8,0.6,0.4,0.2,0.8,0.4,0.6,1,0
,,66ce527e14f31490d3e5e44b,66fc97dff25af90ab5b70f20,2024-10-02_01h48.49.958,mdp,2024.2.1,MacIntel,60.60606061,66fa4ebf79326e780c390304,,,,,,,,,,,,,,,,,,,,,921.6441,921.6441,921.6453,922.51,0,1,left,0.3414,,922.511,923.1267,0,0,left,923.128,923.7101,1,1,right,0,923.7102,923.7102,923.7115,925.2101,0,19,19,19,1,0.6,0.4,0.2,0.8,,,,,,,,,,,,,,,0.0859,,0.2,0.8,0.6,0.4,0.6,0.4,0.2,0.8,,,0.0474,,0.2,0.8,0.6,0.4,0.2,0.8,0.4,0.6,1,0
,,66ce527e14f31490d3e5e44b,66fc97dff25af90ab5b70f20,2024-10-02_01h48.49.958,mdp,2024.2.1,MacIntel,60.60606061,66fa4ebf79326e780c390304,,,,,,,,,,,,,,,,,,,,,925.2109,925.2109,925.2122,926.026,0,0,left,0.2952,,926.0272,926.6267,1,0,right,926.628,927.1591,0,0,left,1,927.1592,927.1592,927.1602,928.66,0,20,20,20,1,0.6,0.4,0.2,0.8,,,,,,,,,,,,,,,0.0803,,0.2,0.8,0.6,0.4,0.6,0.4,0.2,0.8,,,0.0004,,0.2,0.8,0.6,0.4,0.2,0.8,0.4,0.6,1,0
,,66ce527e14f31490d3e5e44b,66fc97dff25af90ab5b70f20,2024-10-02_01h48.49.958,mdp,2024.2.1,MacIntel,60.60606061,66fa4ebf79326e780c390304,,,,,,,,,,,,,,,,,,,,,928.6607,928.6608,928.662,929.2599,0,1,left,0.0722,,929.2613,929.8267,0,1,left,929.828,930.4762,0,0,left,1,930.4763,930.4763,930.4774,931.9766,0,21,21,21,1,0.8,0.2,0.8,0.2,,,,,,,,,,,,,,,0.0357,,0.2,0.8,0.6,0.4,0.6,0.4,0.2,0.8,,,0.1186,,0.2,0.8,0.6,0.4,0.2,0.8,0.4,0.6,1,0
,,66ce527e14f31490d3e5e44b,66fc97dff25af90ab5b70f20,2024-10-02_01h48.49.958,mdp,2024.2.1,MacIntel,60.60606061,66fa4ebf79326e780c390304,,,,,,,,,,,,,,,,,,,,,931.9773,931.9774,931.9786,933.2924,0,0,left,0.7942,,933.2937,933.81,0,1,left,933.8113,934.3433,0,1,left,0,934.3434,934.3434,934.3446,935.8433,0,22,22,22,1,0.8,0.2,0.8,0.2,,,,,,,,,,,,,,,0.009,,0.2,0.8,0.6,0.4,0.6,0.4,0.2,0.8,,,0.0122,,0.2,0.8,0.6,0.4,0.2,0.8,0.4,0.6,1,0
,,66ce527e14f31490d3e5e44b,66fc97dff25af90ab5b70f20,2024-10-02_01h48.49.958,mdp,2024.2.1,MacIntel,60.60606061,66fa4ebf79326e780c390304,,,,,,,,,,,,,,,,,,,,,935.8441,935.8442,935.8454,936.66,0,0,left,0.2933,,936.6612,937.2435,1,1,right,937.2447,937.8267,0,1,left,0,937.8268,937.8268,937.828,939.3266,0,23,23,23,1,0.8,0.2,0.8,0.2,,,,,,,,,,,,,,,0.0494,,0.2,0.8,0.6,0.4,0.6,0.4,0.2,0.8,,,0.0511,,0.2,0.8,0.6,0.4,0.4,0.6,0.2,0.8,1,0
,,66ce527e14f31490d3e5e44b,66fc97dff25af90ab5b70f20,2024-10-02_01h48.49.958,mdp,2024.2.1,MacIntel,60.60606061,66fa4ebf79326e780c390304,,,,,,,,,,,,,,,,,,,,,939.3274,939.3274,939.3286,941.2934,0,0,left,1.4396,,941.2946,941.9258,0,1,left,941.9271,942.5101,1,1,right,0,942.5102,942.5102,942.5114,944.0099,0,24,24,24,1,0.8,0.2,0.8,0.2,,,,,,,,,,,,,,,0.1115,,0.2,0.8,0.6,0.4,0.6,0.4,0.2,0.8,,,0.0634,,0.2,0.8,0.6,0.4,0.4,0.6,0.2,0.8,1,0
,,66ce527e14f31490d3e5e44b,66fc97dff25af90ab5b70f20,2024-10-02_01h48.49.958,mdp,2024.2.1,MacIntel,60.60606061,66fa4ebf79326e780c390304,,,,,,,,,,,,,,,,,,,,,944.0107,944.0107,944.012,944.6923,0,0,left,0.1564,,944.6936,945.2431,1,0,right,945.2438,945.7935,1,1,right,0,945.7936,945.7937,945.795,947.2933,0,25,25,25,1,0.8,0.2,0.8,0.2,,,,,,,,,,,,,,,0.0379,,0.2,0.8,0.6,0.4,0.6,0.4,0.2,0.8,,,0.0355,,0.2,0.8,0.6,0.4,0.4,0.6,0.2,0.8,1,0
,,66ce527e14f31490d3e5e44b,66fc97dff25af90ab5b70f20,2024-10-02_01h48.49.958,mdp,2024.2.1,MacIntel,60.60606061,66fa4ebf79326e780c390304,,,,,,,,,,,,,,,,,,,,,947.294,947.2941,947.2955,948.0601,1,0,right,0.2367,,948.0614,948.6766,0,1,left,948.6779,949.759,0,1,left,0,949.7591,949.7591,949.7603,951.2601,0,26,26,26,1,0.8,0.2,0.8,0.2,,,,,,,,,,,,,,,0.0847,,0.2,0.8,0.6,0.4,0.6,0.4,0.2,0.8,,,0.5465,,0.2,0.8,0.6,0.4,0.4,0.6,0.2,0.8,1,0
,,66ce527e14f31490d3e5e44b,66fc97dff25af90ab5b70f20,2024-10-02_01h48.49.958,mdp,2024.2.1,MacIntel,60.60606061,66fa4ebf79326e780c390304,,,,,,,,,,,,,,,,,,,,,951.2607,951.2607,951.2616,952.3602,1,0,right,0.572,,952.3614,953.2267,0,1,left,953.2279,953.8434,1,0,right,1,953.8435,953.8435,953.8449,955.3425,0,27,27,27,1,0.8,0.2,0.8,0.2,,,,,,,,,,,,,,,0.3456,,0.2,0.8,0.6,0.4,0.6,0.4,0.2,0.8,,,0.0967,,0.2,0.8,0.6,0.4,0.8,0.2,0.8,0.2,1,0
,,66ce527e14f31490d3e5e44b,66fc97dff25af90ab5b70f20,2024-10-02_01h48.49.958,mdp,2024.2.1,MacIntel,60.60606061,66fa4ebf79326e780c390304,,,,,,,,,,,,,,,,,,,,,955.3432,955.3432,955.3445,956.0434,0,0,left,0.1959,,956.0446,956.5933,0,1,left,956.5946,957.2267,0,0,left,1,957.2268,957.2268,957.2279,958.7267,0,28,28,28,1,0.8,0.2,0.8,0.2,,,,,,,,,,,,,,,0.0301,,0.2,0.8,0.6,0.4,0.4,0.6,0.6,0.4,,,0.1062,,0.2,0.8,0.6,0.4,0.8,0.2,0.8,0.2,1,0
,,66ce527e14f31490d3e5e44b,66fc97dff25af90ab5b70f20,2024-10-02_01h48.49.958,mdp,2024.2.1,MacIntel,60.60606061,66fa4ebf79326e780c390304,,,,,,,,,,,,,,,,,,,,,958.7274,958.7275,958.7287,959.5424,0,0,left,0.286,,959.5438,960.0766,0,1,left,960.0779,960.6766,0,0,left,1,960.6767,960.6767,960.6779,962.1768,0,29,29,29,1,0.8,0.2,0.8,0.2,,,,,,,,,,,,,,,0.0189,,0.2,0.8,0.6,0.4,0.4,0.6,0.6,0.4,,,0.0786,,0.2,0.8,0.6,0.4,0.8,0.2,0.8,0.2,1,0
,,66ce527e14f31490d3e5e44b,66fc97dff25af90ab5b70f20,2024-10-02_01h48.49.958,mdp,2024.2.1,MacIntel,60.60606061,66fa4ebf79326e780c390304,,,,,,,,,,,,,,,,,,,,,962.1775,962.1775,962.1787,962.7757,0,0,left,0.0663,,962.7769,963.3596,0,1,left,963.3607,963.9268,0,0,left,1,963.9269,963.9269,963.928,965.4267,0,30,30,30,1,0.8,0.2,0.8,0.2,,,,,,,,,,,,,,,0.0613,,0.2,0.8,0.6,0.4,0.4,0.6,0.6,0.4,,,0.0615,,0.2,0.8,0.6,0.4,0.8,0.2,0.8,0.2,1,0
,,66ce527e14f31490d3e5e44b,66fc97dff25af90ab5b70f20,2024-10-02_01h48.49.958,mdp,2024.2.1,MacIntel,60.60606061,66fa4ebf79326e780c390304,,,,,,,,,,,,,,,,,,,,,965.4274,965.4274,965.4287,966.1601,0,0,left,0.2123,,966.1615,966.7601,0,1,left,966.7615,967.3426,0,0,left,1,967.3426,967.3427,967.3438,968.8434,0,31,31,31,1,0.8,0.2,0.8,0.2,,,,,,,,,,,,,,,0.0727,,0.6,0.4,0.2,0.8,0.4,0.6,0.6,0.4,,,0.0509,,0.2,0.8,0.6,0.4,0.8,0.2,0.8,0.2,1,0
,,66ce527e14f31490d3e5e44b,66fc97dff25af90ab5b70f20,2024-10-02_01h48.49.958,mdp,2024.2.1,MacIntel,60.60606061,66fa4ebf79326e780c390304,,,,,,,,,,,,,,,,,,,,,968.8442,968.8442,968.8454,969.4933,0,0,left,0.1235,,969.4946,970.3432,0,0,left,970.3442,970.9267,0,1,left,0,970.9269,970.9269,970.928,972.4267,0,32,32,32,1,0.8,0.2,0.8,0.2,,,,,,,,,,,,,,,0.327,,0.6,0.4,0.2,0.8,0.4,0.6,0.6,0.4,,,0.0582,,0.2,0.8,0.6,0.4,0.8,0.2,0.8,0.2,1,0
,,66ce527e14f31490d3e5e44b,66fc97dff25af90ab5b70f20,2024-10-02_01h48.49.958,mdp,2024.2.1,MacIntel,60.60606061,66fa4ebf79326e780c390304,,,,,,,,,,,,,,,,,,,,,972.427,972.427,972.4277,973.0762,0,1,left,0.119,,973.0774,973.6923,0,0,left,973.6929,974.3768,1,0,right,1,974.3769,974.3769,974.378,975.8766,0,33,33,33,1,0.8,0.2,0.8,0.2,,,,,,,,,,,,,,,0.107,,0.6,0.4,0.2,0.8,0.4,0.6,0.6,0.4,,,0.1783,,0.2,0.8,0.6,0.4,0.8,0.2,0.8,0.2,1,0
,,66ce527e14f31490d3e5e44b,66fc97dff25af90ab5b70f20,2024-10-02_01h48.49.958,mdp,2024.2.1,MacIntel,60.60606061,66fa4ebf79326e780c390304,,,,,,,,,,,,,,,,,,,,,975.8774,975.8774,975.8785,976.4268,0,0,left,0.0298,,976.4281,976.9933,0,0,left,976.9945,977.6264,0,1,left,0,977.6265,977.6265,977.6277,979.1266,0,34,34,34,1,0.8,0.2,0.8,0.2,,,,,,,,,,,,,,,0.0341,,0.6,0.4,0.2,0.8,0.4,0.6,0.6,0.4,,,0.1107,,0.2,0.8,0.6,0.4,0.8,0.2,0.8,0.2,1,0
,,66ce527e14f31490d3e5e44b,66fc97dff25af90ab5b70f20,2024-10-02_01h48.49.958,mdp,2024.2.1,MacIntel,60.60606061,66fa4ebf79326e780c390304,,,,,,,,,,,,,,,,,,,,,979.1273,979.1274,979.1286,979.6933,0,0,left,0.0443,,979.6946,980.2925,0,1,left,980.2937,980.9089,1,0,right,1,980.909,980.909,980.9096,982.4101,0,35,35,35,1,0.8,0.2,0.8,0.2,,,,,,,,,,,,,,,0.077,,0.6,0.4,0.2,0.8,0.4,0.6,0.6,0.4,,,0.1099,,0.2,0.8,0.6,0.4,0.8,0.2,0.8,0.2,1,0
,,66ce527e14f31490d3e5e44b,66fc97dff25af90ab5b70f20,2024-10-02_01h48.49.958,mdp,2024.2.1,MacIntel,60.60606061,66fa4ebf79326e780c390304,,,,,,,,,,,,,,,,,,,,,982.4108,982.4108,982.4122,983.0101,0,0,left,0.0734,,983.0113,983.5934,0,0,left,983.5947,984.209,0,0,left,1,984.2091,984.2092,984.2103,985.7101,0,36,36,36,1,0.8,0.2,0.8,0.2,,,,,,,,,,,,,,,0.0542,,0.6,0.4,0.2,0.8,0.4,0.6,0.6,0.4,,,0.0904,,0.2,0.8,0.6,0.4,0.8,0.2,0.8,0.2,1,0
,,66ce527e14f31490d3e5e44b,66fc97dff25af90ab5b70f20,2024-10-02_01h48.49.958,mdp,2024.2.1,MacIntel,60.60606061,66fa4ebf79326e780c390304,,,,,,,,,,,,,,,,,,,,,985.7109,985.7109,985.7121,986.2434,0,0,left,0.0078,,986.2446,986.8434,0,0,left,986.8446,987.4436,0,1,left,0,987.4436,987.4436,987.445,988.9433,0,37,37,37,1,0.8,0.2,0.8,0.2,,,,,,,,,,,,,,,0.0786,,0.6,0.4,0.2,0.8,0.4,0.6,0.6,0.4,,,0.0729,,0.2,0.8,0.6,0.4,0.8,0.2,0.8,0.2,1,0
,,66ce527e14f31490d3e5e44b,66fc97dff25af90ab5b70f20,2024-10-02_01h48.49.958,mdp,2024.2.1,MacIntel,60.60606061,66fa4ebf79326e780c390304,,,,,,,,,,,,,,,,,,,,,988.9441,988.9441,988.9453,989.86,0,0,left,0.3892,,989.8614,990.6601,0,1,left,990.6613,991.2771,1,1,right,0,991.2771,991.2771,991.2783,992.7767,0,38,38,38,1,0.8,0.2,0.8,0.2,,,,,,,,,,,,,,,0.2731,,0.6,0.4,0.2,0.8,0.4,0.6,0.6,0.4,,,0.0822,,0.2,0.8,0.6,0.4,0.8,0.2,0.8,0.2,1,0
,,66ce527e14f31490d3e5e44b,66fc97dff25af90ab5b70f20,2024-10-02_01h48.49.958,mdp,2024.2.1,MacIntel,60.60606061,66fa4ebf79326e780c390304,,,,,,,,,,,,,,,,,,,,,992.7774,992.7774,992.7786,993.3264,0,0,left,0.0281,,993.3276,993.9434,1,1,right,993.9446,994.5601,0,0,left,1,994.5602,994.5602,994.5614,996.0601,0,39,39,39,1,0.8,0.2,0.8,0.2,,,,,,,,,,,,,,,0.1004,,0.6,0.4,0.2,0.8,0.4,0.6,0.6,0.4,,,0.0949,,0.2,0.8,0.6,0.4,0.8,0.2,0.8,0.2,1,0
,,66ce527e14f31490d3e5e44b,66fc97dff25af90ab5b70f20,2024-10-02_01h48.49.958,mdp,2024.2.1,MacIntel,60.60606061,66fa4ebf79326e780c390304,,,,,,,,,,,,,,,,,,,,,996.0608,996.0608,996.062,996.7925,0,0,left,0.2012,,996.7937,997.4436,1,1,right,997.4449,998.0434,1,0,right,1,998.0435,998.0435,998.0446,999.5434,0,40,40,40,1,0.8,0.2,0.8,0.2,,,,,,,,,,,,,,,0.1354,,0.6,0.4,0.2,0.8,0.4,0.6,0.6,0.4,,,0.0783,,0.2,0.8,0.6,0.4,0.8,0.2,0.8,0.2,1,0
,,66ce527e14f31490d3e5e44b,66fc97dff25af90ab5b70f20,2024-10-02_01h48.49.958,mdp,2024.2.1,MacIntel,60.60606061,66fa4ebf79326e780c390304,,,,,,,,,,,,,,,,,,,,,999.5441,999.5442,999.5452,1000.0935,0,0,left,0.0226,,1000.0947,1000.7768,0,1,left,1000.7783,1001.4268,0,0,left,1,1001.4269,1001.4269,1001.4282,1002.9267,0,41,41,41,1,0.8,0.2,0.8,0.2,,,,,,,,,,,,,,,0.1506,,0.6,0.4,0.2,0.8,0.4,0.6,0.6,0.4,,,0.1188,,0.2,0.8,0.6,0.4,0.8,0.2,0.8,0.2,1,0
,,66ce527e14f31490d3e5e44b,66fc97dff25af90ab5b70f20,2024-10-02_01h48.49.958,mdp,2024.2.1,MacIntel,60.60606061,66fa4ebf79326e780c390304,,,,,,,,,,,,,,,,,,,,,1002.9276,1002.9276,1002.9289,1003.5934,0,0,left,0.1388,,1003.5948,1004.1434,0,0,left,1004.1447,1004.7095,0,0,left,1,1004.7096,1004.7096,1004.7107,1006.21,0,42,42,42,1,0.8,0.2,0.8,0.2,,,,,,,,,,,,,,,0.021,,0.6,0.4,0.2,0.8,0.4,0.6,0.6,0.4,,,0.0299,,0.2,0.8,0.6,0.4,0.8,0.2,0.8,0.2,1,0
,,66ce527e14f31490d3e5e44b,66fc97dff25af90ab5b70f20,2024-10-02_01h48.49.958,mdp,2024.2.1,MacIntel,60.60606061,66fa4ebf79326e780c390304,,,,,,,,,,,,,,,,,,,,,1006.2108,1006.2108,1006.2119,1007.0091,0,0,left,0.2784,,1007.0104,1007.5602,0,0,left,1007.5617,1008.11,0,1,left,0,1008.1101,1008.1101,1008.1113,1009.6101,0,43,43,43,1,0.8,0.2,0.8,0.2,,,,,,,,,,,,,,,0.033,,0.2,0.8,0.4,0.6,0.4,0.6,0.6,0.4,,,0.02,,0.2,0.8,0.6,0.4,0.8,0.2,0.8,0.2,1,0
,,66ce527e14f31490d3e5e44b,66fc97dff25af90ab5b70f20,2024-10-02_01h48.49.958,mdp,2024.2.1,MacIntel,60.60606061,66fa4ebf79326e780c390304,,,,,,,,,,,,,,,,,,,,,1009.6109,1009.6109,1009.6122,1010.3601,0,0,left,0.2291,,1010.3614,1010.9268,0,1,left,1010.9281,1011.5434,1,0,right,1,1011.5435,1011.5435,1011.5446,1013.0435,0,44,44,44,1,0.4,0.6,0.6,0.4,,,,,,,,,,,,,,,0.0354,,0.2,0.8,0.4,0.6,0.4,0.6,0.6,0.4,,,0.0796,,0.2,0.8,0.6,0.4,0.8,0.2,0.8,0.2,1,0
,,66ce527e14f31490d3e5e44b,66fc97dff25af90ab5b70f20,2024-10-02_01h48.49.958,mdp,2024.2.1,MacIntel,60.60606061,66fa4ebf79326e780c390304,,,,,,,,,,,,,,,,,,,,,1013.0442,1013.0442,1013.0452,1013.8267,0,0,left,0.2527,,1013.828,1014.3934,0,1,left,1014.3948,1015.0101,0,0,left,1,1015.0102,1015.0102,1015.0115,1016.5101,0,45,45,45,1,0.8,0.2,0.8,0.2,,,,,,,,,,,,,,,0.0336,,0.2,0.8,0.4,0.6,0.4,0.6,0.6,0.4,,,0.0884,,0.2,0.8,0.6,0.4,0.8,0.2,0.8,0.2,1,0
,,66ce527e14f31490d3e5e44b,66fc97dff25af90ab5b70f20,2024-10-02_01h48.49.958,mdp,2024.2.1,MacIntel,60.60606061,66fa4ebf79326e780c390304,,,,,,,,,,,,,,,,,,,,,1016.5109,1016.5109,1016.5121,1017.2933,0,1,left,0.2502,,1017.2947,1017.86,0,1,left,1017.8613,1018.4268,0,0,left,1,1018.4269,1018.4269,1018.4281,1019.9268,0,46,46,46,1,0.8,0.2,0.8,0.2,,,,,,,,,,,,,,,0.0339,,0.2,0.8,0.4,0.6,0.4,0.6,0.6,0.4,,,0.045,,0.2,0.8,0.6,0.4,0.8,0.2,0.8,0.2,1,0
,,66ce527e14f31490d3e5e44b,66fc97dff25af90ab5b70f20,2024-10-02_01h48.49.958,mdp,2024.2.1,MacIntel,60.60606061,66fa4ebf79326e780c390304,,,,,,,,,,,,,,,,,,,,,1019.9275,1019.9276,1019.9289,1020.5436,0,0,left,0.0955,,1020.5447,1021.1923,0,1,left,1021.1937,1021.7601,0,0,left,1,1021.7602,1021.7602,1021.7614,1023.26,0,47,47,47,1,0.8,0.2,0.8,0.2,,,,,,,,,,,,,,,0.1195,,0.2,0.8,0.4,0.6,0.6,0.4,0.4,0.6,,,0.0501,,0.2,0.8,0.6,0.4,0.8,0.2,0.8,0.2,1,0
,,66ce527e14f31490d3e5e44b,66fc97dff25af90ab5b70f20,2024-10-02_01h48.49.958,mdp,2024.2.1,MacIntel,60.60606061,66fa4ebf79326e780c390304,,,,,,,,,,,,,,,,,,,,,1023.2608,1023.2608,1023.262,1023.9767,0,0,left,0.1832,,1023.978,1024.643,0,1,left,1024.6442,1025.3101,0,0,left,1,1025.3102,1025.3102,1025.3113,1026.81,0,48,48,48,1,0.8,0.2,0.8,0.2,,,,,,,,,,,,,,,0.14,,0.2,0.8,0.4,0.6,0.6,0.4,0.4,0.6,,,0.162,,0.2,0.8,0.6,0.4,0.8,0.2,0.8,0.2,1,0
,,66ce527e14f31490d3e5e44b,66fc97dff25af90ab5b70f20,2024-10-02_01h48.49.958,mdp,2024.2.1,MacIntel,60.60606061,66fa4ebf79326e780c390304,,,,,,,,,,,,,,,,,,,,,1026.8107,1026.8107,1026.8119,1027.6101,0,0,left,0.2676,,1027.6114,1028.1759,0,1,left,1028.1771,1028.7934,0,0,left,1,1028.7936,1028.7936,1028.7948,1030.2923,0,49,49,49,1,0.8,0.2,0.8,0.2,,,,,,,,,,,,,,,0.038,,0.2,0.8,0.4,0.6,0.6,0.4,0.4,0.6,,,0.0998,,0.6,0.4,0.2,0.8,0.8,0.2,0.8,0.2,1,0
,,66ce527e14f31490d3e5e44b,66fc97dff25af90ab5b70f20,2024-10-02_01h48.49.958,mdp,2024.2.1,MacIntel,60.60606061,66fa4ebf79326e780c390304,,,,,,,,,,,,,,,,,,,,,,,,,,,,,,,,,,,,,,,,,,,,,,,,,,,,,,,,1030.2925,1088.8102,0,3,3,2,1,imgs/goat.png,imgs/elephant.png,imgs/kangaroo.png,imgs/bear.png,imgs/lion.png,,,,,,,,,,,,,,,,,,,,,,,,
,,66ce527e14f31490d3e5e44b,66fc97dff25af90ab5b70f20,2024-10-02_01h48.49.958,mdp,2024.2.1,MacIntel,60.60606061,66fa4ebf79326e780c390304,,,,,,,,,,,,,,1,seqs/st1seq49.csv,1088.8118,1109.5269,space,20.1965,,1109.5299,1109.5299,1109.5309,1110.9269,0,1,left,0.8635,,1110.9282,1110.9291,0,1,,1110.9297,1110.9301,0,0,,0,1110.9302,1110.9302,1110.9305,1112.4268,0,0,0,0,1,0.4,0.6,0.6,0.4,1,0,,,,,,,,,,,,,,,,,,,,,,,,,,,,,,,,,,,,
,,66ce527e14f31490d3e5e44b,66fc97dff25af90ab5b70f20,2024-10-02_01h48.49.958,mdp,2024.2.1,MacIntel,60.60606061,66fa4ebf79326e780c390304,,,,,,,,,,,,,,,,,,,,,1112.4275,1112.4275,1112.4286,1113.3601,1,1,right,0.4061,,1113.3614,1113.3622,0,1,,1113.3628,1113.3632,0,1,,0,1113.3632,1113.3632,1113.3637,1114.8601,0,1,1,1,1,0.4,0.6,0.6,0.4,1,0,,,,,,,,,,,,,,,,,,,,,,,,,,,,,,,,,,,,
,,66ce527e14f31490d3e5e44b,66fc97dff25af90ab5b70f20,2024-10-02_01h48.49.958,mdp,2024.2.1,MacIntel,60.60606061,66fa4ebf79326e780c390304,,,,,,,,,,,,,,,,,,,,,1114.8606,1114.8606,1114.8616,1115.4768,0,1,left,0.0858,,1115.4781,1115.4789,0,0,,1115.4795,1115.4799,0,1,,0,1115.4799,1115.4799,1115.4803,1116.9766,0,2,2,2,1,0.4,0.6,0.6,0.4,1,0,,,,,,,,,,,,,,,,,,,,,,,,,,,,,,,,,,,,
,,66ce527e14f31490d3e5e44b,66fc97dff25af90ab5b70f20,2024-10-02_01h48.49.958,mdp,2024.2.1,MacIntel,60.60606061,66fa4ebf79326e780c390304,,,,,,,,,,,,,,,,,,,,,1116.9772,1116.9772,1116.9784,1117.5102,0,1,left,0.012,,1117.5113,1117.5121,0,1,,1117.5125,1117.5127,0,0,,0,1117.5128,1117.5129,1117.5131,1119.0102,0,3,3,3,1,0.4,0.6,0.6,0.4,1,0,,,,,,,,,,,,,,,,,,,,,,,,,,,,,,,,,,,,
,,66ce527e14f31490d3e5e44b,66fc97dff25af90ab5b70f20,2024-10-02_01h48.49.958,mdp,2024.2.1,MacIntel,60.60606061,66fa4ebf79326e780c390304,,,,,,,,,,,,,,,,,,,,,1119.0109,1119.0109,1119.012,1119.9103,0,0,left,0.3781,,1119.9115,1119.9124,0,1,,1119.9131,1119.9136,0,1,,1,1119.9136,1119.9136,1119.914,1121.4099,0,4,4,4,1,0.6,0.4,0.8,0.2,1,0,,,,,,,,,,,,,,,,,,,,,,,,,,,,,,,,,,,,
,,66ce527e14f31490d3e5e44b,66fc97dff25af90ab5b70f20,2024-10-02_01h48.49.958,mdp,2024.2.1,MacIntel,60.60606061,66fa4ebf79326e780c390304,,,,,,,,,,,,,,,,,,,,,1121.4103,1121.4103,1121.4113,1122.243,1,0,right,0.3119,,1122.2441,1122.2449,0,0,,1122.2454,1122.2458,0,1,,1,1122.2459,1122.2459,1122.2462,1123.7433,0,5,5,5,1,0.6,0.4,0.8,0.2,1,0,,,,,,,,,,,,,,,,,,,,,,,,,,,,,,,,,,,,
,,66ce527e14f31490d3e5e44b,66fc97dff25af90ab5b70f20,2024-10-02_01h48.49.958,mdp,2024.2.1,MacIntel,60.60606061,66fa4ebf79326e780c390304,,,,,,,,,,,,,,,,,,,,,1123.7436,1123.7436,1123.7441,1124.5769,1,0,right,0.3106,,1124.5781,1124.5788,0,1,,1124.5793,1124.5796,0,0,,1,1124.5797,1124.5797,1124.58,1126.0769,0,6,6,6,1,0.6,0.4,0.8,0.2,1,0,,,,,,,,,,,,,,,,,,,,,,,,,,,,,,,,,,,,
,,66ce527e14f31490d3e5e44b,66fc97dff25af90ab5b70f20,2024-10-02_01h48.49.958,mdp,2024.2.1,MacIntel,60.60606061,66fa4ebf79326e780c390304,,,,,,,,,,,,,,,,,,,,,1126.0775,1126.0776,1126.0788,1126.7936,0,1,left,0.1839,,1126.7951,1126.796,0,0,,1126.7966,1126.797,0,1,,0,1126.7971,1126.7971,1126.7976,1128.2934,0,7,7,7,1,0.4,0.6,0.6,0.4,1,0,,,,,,,,,,,,,,,,,,,,,,,,,,,,,,,,,,,,
,,66ce527e14f31490d3e5e44b,66fc97dff25af90ab5b70f20,2024-10-02_01h48.49.958,mdp,2024.2.1,MacIntel,60.60606061,66fa4ebf79326e780c390304,,,,,,,,,,,,,,,,,,,,,1128.294,1128.294,1128.2953,1129.1269,0,0,left,0.312,,1129.1281,1129.129,0,0,,1129.1297,1129.1301,0,0,,1,1129.1302,1129.1302,1129.1306,1130.6269,0,8,8,8,1,0.8,0.2,0.2,0.8,1,0,,,,,,,,,,,,,,,,,,,,,,,,,,,,,,,,,,,,
,,66ce527e14f31490d3e5e44b,66fc97dff25af90ab5b70f20,2024-10-02_01h48.49.958,mdp,2024.2.1,MacIntel,60.60606061,66fa4ebf79326e780c390304,,,,,,,,,,,,,,,,,,,,,1130.6276,1130.6276,1130.6289,1131.6936,0,0,left,0.5386,,1131.6948,1131.6956,0,0,,1131.6962,1131.6967,0,1,,1,1131.6967,1131.6967,1131.6971,1133.1935,0,9,9,9,1,0.8,0.2,0.2,0.8,1,0,,,,,,,,,,,,,,,,,,,,,,,,,,,,,,,,,,,,
,,66ce527e14f31490d3e5e44b,66fc97dff25af90ab5b70f20,2024-10-02_01h48.49.958,mdp,2024.2.1,MacIntel,60.60606061,66fa4ebf79326e780c390304,,,,,,,,,,,,,,,,,,,,,1133.1941,1133.1941,1133.1953,1134.0593,1,1,right,0.3399,,1134.0606,1134.0614,0,0,,1134.062,1134.0625,0,1,,0,1134.0626,1134.0626,1134.063,1135.5603,0,10,10,10,1,0.8,0.2,0.2,0.8,1,0,,,,,,,,,,,,,,,,,,,,,,,,,,,,,,,,,,,,
,,66ce527e14f31490d3e5e44b,66fc97dff25af90ab5b70f20,2024-10-02_01h48.49.958,mdp,2024.2.1,MacIntel,60.60606061,66fa4ebf79326e780c390304,,,,,,,,,,,,,,,,,,,,,1135.5609,1135.5609,1135.5622,1136.2769,1,0,right,0.1966,,1136.2782,1136.279,0,1,,1136.2796,1136.2801,0,1,,1,1136.2801,1136.2801,1136.2805,1137.777,0,11,11,11,1,0.8,0.2,0.2,0.8,1,0,,,,,,,,,,,,,,,,,,,,,,,,,,,,,,,,,,,,
,,66ce527e14f31490d3e5e44b,66fc97dff25af90ab5b70f20,2024-10-02_01h48.49.958,mdp,2024.2.1,MacIntel,60.60606061,66fa4ebf79326e780c390304,,,,,,,,,,,,,,,,,,,,,1137.7776,1137.7776,1137.779,1138.4102,0,0,left,0.0999,,1138.4117,1138.4125,0,0,,1138.4131,1138.4135,0,0,,1,1138.4136,1138.4136,1138.414,1139.9101,0,12,12,12,1,0.8,0.2,0.2,0.8,1,0,,,,,,,,,,,,,,,,,,,,,,,,,,,,,,,,,,,,
,,66ce527e14f31490d3e5e44b,66fc97dff25af90ab5b70f20,2024-10-02_01h48.49.958,mdp,2024.2.1,MacIntel,60.60606061,66fa4ebf79326e780c390304,,,,,,,,,,,,,,,,,,,,,1139.9108,1139.9108,1139.9121,1140.5435,0,1,left,0.1047,,1140.5448,1140.5456,0,0,,1140.5462,1140.5467,0,1,,0,1140.5468,1140.5468,1140.5472,1142.0435,0,13,13,13,1,0.2,0.8,0.8,0.2,1,0,,,,,,,,,,,,,,,,,,,,,,,,,,,,,,,,,,,,
,,66ce527e14f31490d3e5e44b,66fc97dff25af90ab5b70f20,2024-10-02_01h48.49.958,mdp,2024.2.1,MacIntel,60.60606061,66fa4ebf79326e780c390304,,,,,,,,,,,,,,,,,,,,,1142.0441,1142.0441,1142.0454,1142.6435,1,0,right,0.0689,,1142.6448,1142.6456,0,0,,1142.6462,1142.6467,0,0,,1,1142.6467,1142.6467,1142.6472,1144.1435,0,14,14,14,1,0.2,0.8,0.8,0.2,1,0,,,,,,,,,,,,,,,,,,,,,,,,,,,,,,,,,,,,
,,66ce527e14f31490d3e5e44b,66fc97dff25af90ab5b70f20,2024-10-02_01h48.49.958,mdp,2024.2.1,MacIntel,60.60606061,66fa4ebf79326e780c390304,,,,,,,,,,,,,,,,,,,,,1144.1441,1144.1441,1144.1453,1144.7935,1,1,right,0.1219,,1144.7949,1144.7958,0,0,,1144.7965,1144.797,0,0,,0,1144.797,1144.797,1144.7975,1146.2935,0,15,15,15,1,0.8,0.2,0.2,0.8,1,0,,,,,,,,,,,,,,,,,,,,,,,,,,,,,,,,,,,,
,,66ce527e14f31490d3e5e44b,66fc97dff25af90ab5b70f20,2024-10-02_01h48.49.958,mdp,2024.2.1,MacIntel,60.60606061,66fa4ebf79326e780c390304,,,,,,,,,,,,,,,,,,,,,1146.2941,1146.2942,1146.2955,1147.1102,1,1,right,0.2877,,1147.1114,1147.1122,0,1,,1147.1128,1147.1132,0,1,,0,1147.1132,1147.1132,1147.1136,1148.6101,0,16,16,16,1,0.8,0.2,0.2,0.8,1,0,,,,,,,,,,,,,,,,,,,,,,,,,,,,,,,,,,,,
,,66ce527e14f31490d3e5e44b,66fc97dff25af90ab5b70f20,2024-10-02_01h48.49.958,mdp,2024.2.1,MacIntel,60.60606061,66fa4ebf79326e780c390304,,,,,,,,,,,,,,,,,,,,,1148.6108,1148.6108,1148.612,1149.1602,0,0,left,0.0202,,1149.1614,1149.1622,0,0,,1149.1628,1149.1632,0,0,,1,1149.1633,1149.1633,1149.1637,1150.6602,0,17,17,17,1,0.8,0.2,0.2,0.8,1,0,,,,,,,,,,,,,,,,,,,,,,,,,,,,,,,,,,,,
,,66ce527e14f31490d3e5e44b,66fc97dff25af90ab5b70f20,2024-10-02_01h48.49.958,mdp,2024.2.1,MacIntel,60.60606061,66fa4ebf79326e780c390304,,,,,,,,,,,,,,,,,,,,,1150.6609,1150.6609,1150.6621,1151.2268,0,1,left,0.0351,,1151.2281,1151.2289,0,1,,1151.2295,1151.2299,0,1,,0,1151.2299,1151.2299,1151.2303,1152.7268,0,18,18,18,1,0.2,0.8,0.8,0.2,1,0,,,,,,,,,,,,,,,,,,,,,,,,,,,,,,,,,,,,
,,66ce527e14f31490d3e5e44b,66fc97dff25af90ab5b70f20,2024-10-02_01h48.49.958,mdp,2024.2.1,MacIntel,60.60606061,66fa4ebf79326e780c390304,,,,,,,,,,,,,,,,,,,,,1152.7274,1152.7274,1152.7287,1153.4436,0,1,left,0.1864,,1153.4449,1153.4457,0,1,,1153.4462,1153.4467,0,0,,0,1153.4467,1153.4467,1153.4471,1154.9434,0,19,19,19,1,0.2,0.8,0.8,0.2,1,0,,,,,,,,,,,,,,,,,,,,,,,,,,,,,,,,,,,,
,,66ce527e14f31490d3e5e44b,66fc97dff25af90ab5b70f20,2024-10-02_01h48.49.958,mdp,2024.2.1,MacIntel,60.60606061,66fa4ebf79326e780c390304,,,,,,,,,,,,,,,,,,,,,1154.944,1154.9441,1154.9453,1155.5929,1,0,right,0.1293,,1155.5941,1155.5949,0,0,,1155.5956,1155.596,0,0,,1,1155.5961,1155.5961,1155.5966,1157.0935,0,20,20,20,1,0.2,0.8,0.8,0.2,1,0,,,,,,,,,,,,,,,,,,,,,,,,,,,,,,,,,,,,
,,66ce527e14f31490d3e5e44b,66fc97dff25af90ab5b70f20,2024-10-02_01h48.49.958,mdp,2024.2.1,MacIntel,60.60606061,66fa4ebf79326e780c390304,,,,,,,,,,,,,,,,,,,,,1157.0941,1157.0941,1157.0954,1157.6435,1,0,right,0.0168,,1157.6448,1157.6456,0,0,,1157.6463,1157.6468,0,1,,1,1157.6468,1157.6468,1157.6473,1159.1435,0,21,21,21,1,0.2,0.8,0.8,0.2,1,0,,,,,,,,,,,,,,,,,,,,,,,,,,,,,,,,,,,,
,,66ce527e14f31490d3e5e44b,66fc97dff25af90ab5b70f20,2024-10-02_01h48.49.958,mdp,2024.2.1,MacIntel,60.60606061,66fa4ebf79326e780c390304,,,,,,,,,,,,,,,,,,,,,1159.144,1159.1441,1159.1453,1159.7769,1,1,right,0.1006,,1159.7781,1159.7789,0,1,,1159.7794,1159.7798,0,0,,0,1159.7799,1159.7799,1159.7804,1161.2768,0,22,22,22,1,0.2,0.8,0.8,0.2,1,0,,,,,,,,,,,,,,,,,,,,,,,,,,,,,,,,,,,,
,,66ce527e14f31490d3e5e44b,66fc97dff25af90ab5b70f20,2024-10-02_01h48.49.958,mdp,2024.2.1,MacIntel,60.60606061,66fa4ebf79326e780c390304,,,,,,,,,,,,,,,,,,,,,1161.2774,1161.2774,1161.2786,1162.0936,1,0,right,0.2877,,1162.0948,1162.0957,0,1,,1162.0963,1162.0968,0,0,,1,1162.0968,1162.0969,1162.0973,1163.5935,0,23,23,23,1,0.2,0.8,0.8,0.2,1,0,,,,,,,,,,,,,,,,,,,,,,,,,,,,,,,,,,,,
,,66ce527e14f31490d3e5e44b,66fc97dff25af90ab5b70f20,2024-10-02_01h48.49.958,mdp,2024.2.1,MacIntel,60.60606061,66fa4ebf79326e780c390304,,,,,,,,,,,,,,,,,,,,,1163.5941,1163.5941,1163.5954,1164.1262,1,0,right,0.0127,,1164.1274,1164.1282,0,0,,1164.1289,1164.1293,0,0,,1,1164.1293,1164.1293,1164.1297,1165.6268,0,24,24,24,1,0.2,0.8,0.8,0.2,1,0,,,,,,,,,,,,,,,,,,,,,,,,,,,,,,,,,,,,
,,66ce527e14f31490d3e5e44b,66fc97dff25af90ab5b70f20,2024-10-02_01h48.49.958,mdp,2024.2.1,MacIntel,60.60606061,66fa4ebf79326e780c390304,,,,,,,,,,,,,,,,,,,,,1165.6273,1165.6274,1165.6284,1166.3936,1,0,right,0.2395,,1166.3946,1166.3953,0,0,,1166.3959,1166.3963,0,0,,1,1166.3963,1166.3963,1166.3967,1167.8936,0,25,25,25,1,0.2,0.8,0.8,0.2,1,0,,,,,,,,,,,,,,,,,,,,,,,,,,,,,,,,,,,,
,,66ce527e14f31490d3e5e44b,66fc97dff25af90ab5b70f20,2024-10-02_01h48.49.958,mdp,2024.2.1,MacIntel,60.60606061,66fa4ebf79326e780c390304,,,,,,,,,,,,,,,,,,,,,1167.8941,1167.8941,1167.8954,1168.6769,1,0,right,0.2529,,1168.6782,1168.6789,0,0,,1168.6795,1168.68,0,1,,1,1168.68,1168.68,1168.6804,1170.1769,0,26,26,26,1,0.2,0.8,0.8,0.2,1,0,,,,,,,,,,,,,,,,,,,,,,,,,,,,,,,,,,,,
,,66ce527e14f31490d3e5e44b,66fc97dff25af90ab5b70f20,2024-10-02_01h48.49.958,mdp,2024.2.1,MacIntel,60.60606061,66fa4ebf79326e780c390304,,,,,,,,,,,,,,,,,,,,,1170.1775,1170.1775,1170.1788,1170.9269,1,0,right,0.222,,1170.9281,1170.9289,0,0,,1170.9294,1170.9299,0,0,,1,1170.9299,1170.9299,1170.9303,1172.4268,0,27,27,27,1,0.2,0.8,0.8,0.2,1,0,,,,,,,,,,,,,,,,,,,,,,,,,,,,,,,,,,,,
,,66ce527e14f31490d3e5e44b,66fc97dff25af90ab5b70f20,2024-10-02_01h48.49.958,mdp,2024.2.1,MacIntel,60.60606061,66fa4ebf79326e780c390304,,,,,,,,,,,,,,,,,,,,,1172.4274,1172.4274,1172.4288,1173.1602,1,0,right,0.2101,,1173.1615,1173.1622,0,0,,1173.1627,1173.1631,0,0,,1,1173.1631,1173.1631,1173.1635,1174.6591,0,28,28,28,1,0.2,0.8,0.8,0.2,1,0,,,,,,,,,,,,,,,,,,,,,,,,,,,,,,,,,,,,
,,66ce527e14f31490d3e5e44b,66fc97dff25af90ab5b70f20,2024-10-02_01h48.49.958,mdp,2024.2.1,MacIntel,60.60606061,66fa4ebf79326e780c390304,,,,,,,,,,,,,,,,,,,,,1174.6597,1174.6597,1174.6609,1175.2758,1,1,right,0.101,,1175.2771,1175.2779,0,0,,1175.2784,1175.279,0,0,,0,1175.279,1175.279,1175.2794,1176.7769,0,29,29,29,1,0.2,0.8,0.8,0.2,1,0,,,,,,,,,,,,,,,,,,,,,,,,,,,,,,,,,,,,
,,66ce527e14f31490d3e5e44b,66fc97dff25af90ab5b70f20,2024-10-02_01h48.49.958,mdp,2024.2.1,MacIntel,60.60606061,66fa4ebf79326e780c390304,,,,,,,,,,,,,,,,,,,,,1176.7776,1176.7776,1176.7789,1177.9436,0,1,left,0.6463,,1177.9448,1177.9456,0,0,,1177.9461,1177.9466,0,1,,0,1177.9466,1177.9466,1177.947,1179.4436,0,30,30,30,1,0.2,0.8,0.8,0.2,1,0,,,,,,,,,,,,,,,,,,,,,,,,,,,,,,,,,,,,
,,66ce527e14f31490d3e5e44b,66fc97dff25af90ab5b70f20,2024-10-02_01h48.49.958,mdp,2024.2.1,MacIntel,60.60606061,66fa4ebf79326e780c390304,,,,,,,,,,,,,,,,,,,,,1179.4442,1179.4442,1179.4455,1180.0769,0,1,left,0.1035,,1180.0782,1180.0789,0,1,,1180.0795,1180.0799,0,1,,0,1180.0799,1180.0799,1180.0804,1181.5758,0,31,31,31,1,0.2,0.8,0.8,0.2,1,0,,,,,,,,,,,,,,,,,,,,,,,,,,,,,,,,,,,,
,,66ce527e14f31490d3e5e44b,66fc97dff25af90ab5b70f20,2024-10-02_01h48.49.958,mdp,2024.2.1,MacIntel,60.60606061,66fa4ebf79326e780c390304,,,,,,,,,,,,,,,,,,,,,1181.5763,1181.5763,1181.5775,1182.1937,0,0,left,0.1121,,1182.1949,1182.1957,0,1,,1182.1963,1182.1967,0,1,,1,1182.1967,1182.1967,1182.1972,1183.6929,0,32,32,32,1,0.8,0.2,0.6,0.4,1,0,,,,,,,,,,,,,,,,,,,,,,,,,,,,,,,,,,,,
,,66ce527e14f31490d3e5e44b,66fc97dff25af90ab5b70f20,2024-10-02_01h48.49.958,mdp,2024.2.1,MacIntel,60.60606061,66fa4ebf79326e780c390304,,,,,,,,,,,,,,,,,,,,,1183.6934,1183.6934,1183.6945,1184.2597,0,0,left,0.033,,1184.2605,1184.2611,0,0,,1184.2614,1184.2617,0,0,,1,1184.2617,1184.2617,1184.262,1185.7602,0,33,33,33,1,0.8,0.2,0.6,0.4,1,0,,,,,,,,,,,,,,,,,,,,,,,,,,,,,,,,,,,,
,,66ce527e14f31490d3e5e44b,66fc97dff25af90ab5b70f20,2024-10-02_01h48.49.958,mdp,2024.2.1,MacIntel,60.60606061,66fa4ebf79326e780c390304,,,,,,,,,,,,,,,,,,,,,1185.7608,1185.7608,1185.7621,1186.427,0,0,left,0.1449,,1186.4282,1186.4289,0,0,,1186.4293,1186.4298,0,1,,1,1186.4298,1186.4298,1186.4301,1187.9269,0,34,34,34,1,0.6,0.4,0.4,0.6,1,0,,,,,,,,,,,,,,,,,,,,,,,,,,,,,,,,,,,,
,,66ce527e14f31490d3e5e44b,66fc97dff25af90ab5b70f20,2024-10-02_01h48.49.958,mdp,2024.2.1,MacIntel,60.60606061,66fa4ebf79326e780c390304,,,,,,,,,,,,,,,,,,,,,1187.9276,1187.9276,1187.9288,1188.5603,0,0,left,0.1032,,1188.5615,1188.5623,0,0,,1188.5631,1188.5636,0,0,,1,1188.5636,1188.5636,1188.5641,1190.0602,0,35,35,35,1,0.6,0.4,0.4,0.6,1,0,,,,,,,,,,,,,,,,,,,,,,,,,,,,,,,,,,,,
,,66ce527e14f31490d3e5e44b,66fc97dff25af90ab5b70f20,2024-10-02_01h48.49.958,mdp,2024.2.1,MacIntel,60.60606061,66fa4ebf79326e780c390304,,,,,,,,,,,,,,,,,,,,,1190.0607,1190.0608,1190.0621,1190.8103,0,1,left,0.2187,,1190.8116,1190.8124,0,1,,1190.813,1190.8136,0,1,,0,1190.8136,1190.8136,1190.8141,1192.3102,0,36,36,36,1,0.2,0.8,0.8,0.2,1,0,,,,,,,,,,,,,,,,,,,,,,,,,,,,,,,,,,,,
,,66ce527e14f31490d3e5e44b,66fc97dff25af90ab5b70f20,2024-10-02_01h48.49.958,mdp,2024.2.1,MacIntel,60.60606061,66fa4ebf79326e780c390304,,,,,,,,,,,,,,,,,,,,,1192.3107,1192.3108,1192.312,1192.9768,1,0,right,0.1431,,1192.978,1192.9788,0,0,,1192.9793,1192.9798,0,0,,1,1192.9798,1192.9798,1192.9802,1194.477,0,37,37,37,1,0.2,0.8,0.8,0.2,1,0,,,,,,,,,,,,,,,,,,,,,,,,,,,,,,,,,,,,
,,66ce527e14f31490d3e5e44b,66fc97dff25af90ab5b70f20,2024-10-02_01h48.49.958,mdp,2024.2.1,MacIntel,60.60606061,66fa4ebf79326e780c390304,,,,,,,,,,,,,,,,,,,,,1194.4776,1194.4777,1194.4791,1195.2603,1,0,right,0.2494,,1195.2617,1195.2624,0,0,,1195.263,1195.2632,0,0,,1,1195.2634,1195.2634,1195.2636,1196.7602,0,38,38,38,1,0.2,0.8,0.8,0.2,1,0,,,,,,,,,,,,,,,,,,,,,,,,,,,,,,,,,,,,
,,66ce527e14f31490d3e5e44b,66fc97dff25af90ab5b70f20,2024-10-02_01h48.49.958,mdp,2024.2.1,MacIntel,60.60606061,66fa4ebf79326e780c390304,,,,,,,,,,,,,,,,,,,,,1196.7607,1196.7607,1196.7618,1197.4436,1,0,right,0.1507,,1197.4449,1197.4456,0,0,,1197.4462,1197.4466,0,1,,1,1197.4467,1197.4467,1197.447,1198.9436,0,39,39,39,1,0.2,0.8,0.8,0.2,1,0,,,,,,,,,,,,,,,,,,,,,,,,,,,,,,,,,,,,
