init_exp.started,init_exp.stopped,participant,session,date,expName,psychopyVersion,OS,frameRate,study_id,disp_instruction.started,disp_instruction.stopped,instruction.thisRepN,instruction.thisTrialN,instruction.thisN,instruction.thisIndex,instruction.ran,instimg_path,consent.started,consent.stopped,key_resp_3.keys,key_resp_3.rt,key_resp_3.duration,n_steps,sequence_path,init_block.started,init_block.stopped,key_resp.keys,key_resp.rt,key_resp.duration,init_trials.started,init_trials.stopped,step0.started,step0.stopped,act0,s1,res0.keys,res0.rt,res0.duration,step1.started,step1.stopped,act1,s2,res1.keys,step2.started,step2.stopped,act2,s3,res2.keys,rew,reward_comp.started,reward_comp.stopped,reward_disp.started,reward_disp.stopped,trials.thisRepN,trials.thisTrialN,trials.thisN,trials.thisIndex,trials.ran,s00a0s10,s00a0s11,s00a1s10,s00a1s11,rew10,rew11,break_block.started,break_block.stopped,block.thisRepN,block.thisTrialN,block.thisN,block.thisIndex,block.ran,s00path,s10path,s11path,s20path,s21path,res1.rt,res1.duration,s10a0s20,s10a0s21,s10a1s20,s10a1s21,s11a0s20,s11a0s21,s11a1s20,s11a1s21,rew20,rew21,res2.rt,res2.duration,s20a0s30,s20a0s31,s20a1s30,s20a1s31,s21a0s30,s21a0s31,s21a1s30,s21a1s31,rew30,rew31
0.0001,0.0007,66cf21fac640537abe16a607,66fc9b158cfd00dc61387fb1,2024-10-02_03h02.50.576,mdp,2024.2.1,Win32,144.9275362,66fa4ebf79326e780c390304,,,,,,,,,,,,,,,,,,,,,,,,,,,,,,,,,,,,,,,,,,,,,,,,,,,,,,,,,,,,,,,,,,,,,,,,,,,,,,,,,,,,,,,,,,,
,,66cf21fac640537abe16a607,66fc9b158cfd00dc61387fb1,2024-10-02_03h02.50.576,mdp,2024.2.1,Win32,144.9275362,66fa4ebf79326e780c390304,0.003,50.708,0,0,0,0,1,rlnn_exp/rlnn_exp.001.png,,,,,,,,,,,,,,,,,,,,,,,,,,,,,,,,,,,,,,,,,,,,,,,,,,,,,,,,,,,,,,,,,,,,,,,,,,,,,,,,,,,
,,66cf21fac640537abe16a607,66fc9b158cfd00dc61387fb1,2024-10-02_03h02.50.576,mdp,2024.2.1,Win32,144.9275362,66fa4ebf79326e780c390304,50.7085,71.4231,0,1,1,1,1,rlnn_exp/rlnn_exp.002.png,,,,,,,,,,,,,,,,,,,,,,,,,,,,,,,,,,,,,,,,,,,,,,,,,,,,,,,,,,,,,,,,,,,,,,,,,,,,,,,,,,,
,,66cf21fac640537abe16a607,66fc9b158cfd00dc61387fb1,2024-10-02_03h02.50.576,mdp,2024.2.1,Win32,144.9275362,66fa4ebf79326e780c390304,71.4235,97.2165,0,2,2,2,1,rlnn_exp/rlnn_exp.003.png,,,,,,,,,,,,,,,,,,,,,,,,,,,,,,,,,,,,,,,,,,,,,,,,,,,,,,,,,,,,,,,,,,,,,,,,,,,,,,,,,,,
,,66cf21fac640537abe16a607,66fc9b158cfd00dc61387fb1,2024-10-02_03h02.50.576,mdp,2024.2.1,Win32,144.9275362,66fa4ebf79326e780c390304,97.2169,137.4467,0,3,3,3,1,rlnn_exp/rlnn_exp.004.png,,,,,,,,,,,,,,,,,,,,,,,,,,,,,,,,,,,,,,,,,,,,,,,,,,,,,,,,,,,,,,,,,,,,,,,,,,,,,,,,,,,
,,66cf21fac640537abe16a607,66fc9b158cfd00dc61387fb1,2024-10-02_03h02.50.576,mdp,2024.2.1,Win32,144.9275362,66fa4ebf79326e780c390304,,,,,,,,,137.4469,156.7121,y,9.2492,,,,,,,,,,,,,,,,,,,,,,,,,,,,,,,,,,,,,,,,,,,,,,,,,,,,,,,,,,,,,,,,,,,,,,,,,,,,,,,
,,66cf21fac640537abe16a607,66fc9b158cfd00dc61387fb1,2024-10-02_03h02.50.576,mdp,2024.2.1,Win32,144.9275362,66fa4ebf79326e780c390304,,,,,,,,,,,,,,1,seqs/st1seq20.csv,156.7142,161.5477,space,4.3233,,161.5496,161.5497,161.5499,175.5194,0,1,left,13.4561,,175.5198,175.521,,0,,175.5212,175.5218,,0,,0,175.5218,175.5218,175.5221,177.018,0,0,0,0,1,0.6,0.4,0.4,0.6,1,0,,,,,,,,,,,,,,,,,,,,,,,,,,,,,,,,,,,,
,,66cf21fac640537abe16a607,66fc9b158cfd00dc61387fb1,2024-10-02_03h02.50.576,mdp,2024.2.1,Win32,144.9275362,66fa4ebf79326e780c390304,,,,,,,,,,,,,,,,,,,,,177.0184,177.0184,177.0192,178.9533,1,0,right,1.4249,,178.954,178.9546,,1,,178.9549,178.9552,,0,,1,178.9552,178.9552,178.9554,180.4518,0,1,1,1,1,0.6,0.4,0.4,0.6,1,0,,,,,,,,,,,,,,,,,,,,,,,,,,,,,,,,,,,,
,,66cf21fac640537abe16a607,66fc9b158cfd00dc61387fb1,2024-10-02_03h02.50.576,mdp,2024.2.1,Win32,144.9275362,66fa4ebf79326e780c390304,,,,,,,,,,,,,,,,,,,,,180.4522,180.4522,180.4534,182.089,1,0,right,1.1274,,182.0895,182.09,,0,,182.0902,182.0904,,0,,1,182.0905,182.0905,182.0906,183.5875,0,2,2,2,1,0.6,0.4,0.4,0.6,1,0,,,,,,,,,,,,,,,,,,,,,,,,,,,,,,,,,,,,
,,66cf21fac640537abe16a607,66fc9b158cfd00dc61387fb1,2024-10-02_03h02.50.576,mdp,2024.2.1,Win32,144.9275362,66fa4ebf79326e780c390304,,,,,,,,,,,,,,,,,,,,,183.5879,183.5879,183.5889,185.7589,0,0,left,1.6597,,185.7596,185.76,,1,,185.7604,185.7607,,0,,1,185.7607,185.7607,185.7609,187.2576,0,3,3,3,1,0.6,0.4,0.4,0.6,1,0,,,,,,,,,,,,,,,,,,,,,,,,,,,,,,,,,,,,
,,66cf21fac640537abe16a607,66fc9b158cfd00dc61387fb1,2024-10-02_03h02.50.576,mdp,2024.2.1,Win32,144.9275362,66fa4ebf79326e780c390304,,,,,,,,,,,,,,,,,,,,,187.258,187.258,187.2588,188.9434,0,0,left,1.1739,,188.9446,188.945,,1,,188.9452,188.9455,,0,,1,188.9455,188.9455,188.9457,190.4416,0,4,4,4,1,0.6,0.4,0.4,0.6,1,0,,,,,,,,,,,,,,,,,,,,,,,,,,,,,,,,,,,,
,,66cf21fac640537abe16a607,66fc9b158cfd00dc61387fb1,2024-10-02_03h02.50.576,mdp,2024.2.1,Win32,144.9275362,66fa4ebf79326e780c390304,,,,,,,,,,,,,,,,,,,,,190.4419,190.4419,190.4428,192.4328,0,1,left,1.4819,,192.4336,192.434,,0,,192.4343,192.4346,,0,,0,192.4346,192.4346,192.4348,193.9312,0,5,5,5,1,0.6,0.4,0.4,0.6,1,0,,,,,,,,,,,,,,,,,,,,,,,,,,,,,,,,,,,,
,,66cf21fac640537abe16a607,66fc9b158cfd00dc61387fb1,2024-10-02_03h02.50.576,mdp,2024.2.1,Win32,144.9275362,66fa4ebf79326e780c390304,,,,,,,,,,,,,,,,,,,,,193.9314,193.9314,193.9321,194.9234,1,0,right,0.4789,,194.9243,194.9247,,1,,194.925,194.9253,,0,,1,194.9253,194.9253,194.9255,196.4218,0,6,6,6,1,0.6,0.4,0.4,0.6,1,0,,,,,,,,,,,,,,,,,,,,,,,,,,,,,,,,,,,,
,,66cf21fac640537abe16a607,66fc9b158cfd00dc61387fb1,2024-10-02_03h02.50.576,mdp,2024.2.1,Win32,144.9275362,66fa4ebf79326e780c390304,,,,,,,,,,,,,,,,,,,,,196.422,196.4221,196.4228,197.4763,1,1,right,0.5413,,197.477,197.4775,,0,,197.4777,197.478,,1,,0,197.478,197.478,197.4782,198.9747,0,7,7,7,1,0.6,0.4,0.4,0.6,1,0,,,,,,,,,,,,,,,,,,,,,,,,,,,,,,,,,,,,
,,66cf21fac640537abe16a607,66fc9b158cfd00dc61387fb1,2024-10-02_03h02.50.576,mdp,2024.2.1,Win32,144.9275362,66fa4ebf79326e780c390304,,,,,,,,,,,,,,,,,,,,,198.9749,198.9749,198.9755,200.1888,0,1,left,0.7019,,200.1894,200.19,,0,,200.1902,200.1905,,0,,0,200.1905,200.1905,200.1907,201.6872,0,8,8,8,1,0.6,0.4,0.4,0.6,1,0,,,,,,,,,,,,,,,,,,,,,,,,,,,,,,,,,,,,
,,66cf21fac640537abe16a607,66fc9b158cfd00dc61387fb1,2024-10-02_03h02.50.576,mdp,2024.2.1,Win32,144.9275362,66fa4ebf79326e780c390304,,,,,,,,,,,,,,,,,,,,,201.6875,201.6875,201.688,202.6724,1,0,right,0.4727,,202.6734,202.6737,,1,,202.674,202.6742,,1,,1,202.6742,202.6742,202.6744,204.1709,0,9,9,9,1,0.6,0.4,0.4,0.6,1,0,,,,,,,,,,,,,,,,,,,,,,,,,,,,,,,,,,,,
,,66cf21fac640537abe16a607,66fc9b158cfd00dc61387fb1,2024-10-02_03h02.50.576,mdp,2024.2.1,Win32,144.9275362,66fa4ebf79326e780c390304,,,,,,,,,,,,,,,,,,,,,204.1713,204.1713,204.1723,205.3434,1,1,right,0.6594,,205.3439,205.3444,,1,,205.3447,205.3449,,0,,0,205.345,205.345,205.3451,206.8419,0,10,10,10,1,0.6,0.4,0.4,0.6,1,0,,,,,,,,,,,,,,,,,,,,,,,,,,,,,,,,,,,,
,,66cf21fac640537abe16a607,66fc9b158cfd00dc61387fb1,2024-10-02_03h02.50.576,mdp,2024.2.1,Win32,144.9275362,66fa4ebf79326e780c390304,,,,,,,,,,,,,,,,,,,,,206.8422,206.8422,206.8434,207.8893,0,1,left,0.5387,,207.8898,207.8901,,0,,207.8906,207.8908,,0,,0,207.8908,207.8908,207.8911,209.3879,0,11,11,11,1,0.6,0.4,0.4,0.6,1,0,,,,,,,,,,,,,,,,,,,,,,,,,,,,,,,,,,,,
,,66cf21fac640537abe16a607,66fc9b158cfd00dc61387fb1,2024-10-02_03h02.50.576,mdp,2024.2.1,Win32,144.9275362,66fa4ebf79326e780c390304,,,,,,,,,,,,,,,,,,,,,209.3881,209.3881,209.3887,210.3176,0,0,left,0.417,,210.3182,210.3187,,1,,210.319,210.3192,,0,,1,210.3192,210.3192,210.3194,211.8159,0,12,12,12,1,0.6,0.4,0.4,0.6,1,0,,,,,,,,,,,,,,,,,,,,,,,,,,,,,,,,,,,,
,,66cf21fac640537abe16a607,66fc9b158cfd00dc61387fb1,2024-10-02_03h02.50.576,mdp,2024.2.1,Win32,144.9275362,66fa4ebf79326e780c390304,,,,,,,,,,,,,,,,,,,,,211.8162,211.8162,211.8168,212.8636,0,1,left,0.5372,,212.8642,212.8647,,1,,212.865,212.8652,,1,,0,212.8652,212.8652,212.8655,214.3621,0,13,13,13,1,0.2,0.8,0.8,0.2,1,0,,,,,,,,,,,,,,,,,,,,,,,,,,,,,,,,,,,,
,,66cf21fac640537abe16a607,66fc9b158cfd00dc61387fb1,2024-10-02_03h02.50.576,mdp,2024.2.1,Win32,144.9275362,66fa4ebf79326e780c390304,,,,,,,,,,,,,,,,,,,,,214.3626,214.3626,214.3634,215.3402,0,0,left,0.469,,215.3407,215.3413,,0,,215.3416,215.3418,,1,,1,215.3419,215.3419,215.3421,216.8387,0,14,14,14,1,0.2,0.8,0.8,0.2,1,0,,,,,,,,,,,,,,,,,,,,,,,,,,,,,,,,,,,,
,,66cf21fac640537abe16a607,66fc9b158cfd00dc61387fb1,2024-10-02_03h02.50.576,mdp,2024.2.1,Win32,144.9275362,66fa4ebf79326e780c390304,,,,,,,,,,,,,,,,,,,,,216.8391,216.8391,216.8404,217.7197,1,0,right,0.3729,,217.7203,217.7207,,0,,217.721,217.7213,,0,,1,217.7213,217.7213,217.7216,219.2182,0,15,15,15,1,0.2,0.8,0.8,0.2,1,0,,,,,,,,,,,,,,,,,,,,,,,,,,,,,,,,,,,,
,,66cf21fac640537abe16a607,66fc9b158cfd00dc61387fb1,2024-10-02_03h02.50.576,mdp,2024.2.1,Win32,144.9275362,66fa4ebf79326e780c390304,,,,,,,,,,,,,,,,,,,,,219.2184,219.2184,219.2189,220.0853,0,1,left,0.3542,,220.086,220.0865,,1,,220.0867,220.0869,,1,,0,220.0869,220.0869,220.0872,221.5838,0,16,16,16,1,0.2,0.8,0.8,0.2,1,0,,,,,,,,,,,,,,,,,,,,,,,,,,,,,,,,,,,,
,,66cf21fac640537abe16a607,66fc9b158cfd00dc61387fb1,2024-10-02_03h02.50.576,mdp,2024.2.1,Win32,144.9275362,66fa4ebf79326e780c390304,,,,,,,,,,,,,,,,,,,,,221.5842,221.5842,221.5852,222.3747,1,0,right,0.2811,,222.3753,222.3756,,0,,222.3758,222.3761,,1,,1,222.3761,222.3761,222.3763,223.8732,0,17,17,17,1,0.2,0.8,0.8,0.2,1,0,,,,,,,,,,,,,,,,,,,,,,,,,,,,,,,,,,,,
,,66cf21fac640537abe16a607,66fc9b158cfd00dc61387fb1,2024-10-02_03h02.50.576,mdp,2024.2.1,Win32,144.9275362,66fa4ebf79326e780c390304,,,,,,,,,,,,,,,,,,,,,223.8734,223.8735,223.874,224.7126,1,0,right,0.3302,,224.7132,224.7137,,0,,224.7141,224.7144,,1,,1,224.7144,224.7144,224.7147,226.2111,0,18,18,18,1,0.4,0.6,0.6,0.4,1,0,,,,,,,,,,,,,,,,,,,,,,,,,,,,,,,,,,,,
,,66cf21fac640537abe16a607,66fc9b158cfd00dc61387fb1,2024-10-02_03h02.50.576,mdp,2024.2.1,Win32,144.9275362,66fa4ebf79326e780c390304,,,,,,,,,,,,,,,,,,,,,226.2113,226.2113,226.2119,227.6682,0,1,left,0.9487,,227.6689,227.6692,,1,,227.6695,227.6698,,0,,0,227.6698,227.6698,227.67,229.1666,0,19,19,19,1,0.4,0.6,0.6,0.4,1,0,,,,,,,,,,,,,,,,,,,,,,,,,,,,,,,,,,,,
,,66cf21fac640537abe16a607,66fc9b158cfd00dc61387fb1,2024-10-02_03h02.50.576,mdp,2024.2.1,Win32,144.9275362,66fa4ebf79326e780c390304,,,,,,,,,,,,,,,,,,,,,229.167,229.167,229.1678,230.0128,1,0,right,0.3335,,230.0134,230.014,,0,,230.0143,230.0145,,0,,1,230.0146,230.0146,230.0148,231.5113,0,20,20,20,1,0.2,0.8,0.8,0.2,1,0,,,,,,,,,,,,,,,,,,,,,,,,,,,,,,,,,,,,
,,66cf21fac640537abe16a607,66fc9b158cfd00dc61387fb1,2024-10-02_03h02.50.576,mdp,2024.2.1,Win32,144.9275362,66fa4ebf79326e780c390304,,,,,,,,,,,,,,,,,,,,,231.5117,231.5117,231.5124,232.33,1,0,right,0.3095,,232.3304,232.3307,,1,,232.3309,232.3312,,0,,1,232.3312,232.3312,232.3314,233.8284,0,21,21,21,1,0.2,0.8,0.8,0.2,1,0,,,,,,,,,,,,,,,,,,,,,,,,,,,,,,,,,,,,
,,66cf21fac640537abe16a607,66fc9b158cfd00dc61387fb1,2024-10-02_03h02.50.576,mdp,2024.2.1,Win32,144.9275362,66fa4ebf79326e780c390304,,,,,,,,,,,,,,,,,,,,,233.8287,233.8287,233.8292,234.5915,0,0,left,0.2486,,234.5922,234.5927,,0,,234.593,234.5931,,1,,1,234.5931,234.5932,234.5933,236.0901,0,22,22,22,1,0.8,0.2,0.2,0.8,1,0,,,,,,,,,,,,,,,,,,,,,,,,,,,,,,,,,,,,
,,66cf21fac640537abe16a607,66fc9b158cfd00dc61387fb1,2024-10-02_03h02.50.576,mdp,2024.2.1,Win32,144.9275362,66fa4ebf79326e780c390304,,,,,,,,,,,,,,,,,,,,,236.0904,236.0904,236.0914,236.9919,0,0,left,0.3908,,236.9926,236.9931,,0,,236.9934,236.9936,,0,,1,236.9936,236.9937,236.994,238.4904,0,23,23,23,1,0.8,0.2,0.2,0.8,1,0,,,,,,,,,,,,,,,,,,,,,,,,,,,,,,,,,,,,
,,66cf21fac640537abe16a607,66fc9b158cfd00dc61387fb1,2024-10-02_03h02.50.576,mdp,2024.2.1,Win32,144.9275362,66fa4ebf79326e780c390304,,,,,,,,,,,,,,,,,,,,,238.4906,238.4906,238.4911,239.2259,1,1,right,0.2225,,239.2266,239.227,,0,,239.2273,239.2276,,1,,0,239.2276,239.2276,239.2278,240.7243,0,24,24,24,1,0.8,0.2,0.2,0.8,1,0,,,,,,,,,,,,,,,,,,,,,,,,,,,,,,,,,,,,
,,66cf21fac640537abe16a607,66fc9b158cfd00dc61387fb1,2024-10-02_03h02.50.576,mdp,2024.2.1,Win32,144.9275362,66fa4ebf79326e780c390304,,,,,,,,,,,,,,,,,,,,,240.7246,240.7246,240.7252,241.4387,1,1,right,0.2058,,241.4394,241.44,,0,,241.4402,241.4404,,0,,0,241.4404,241.4404,241.4406,242.9373,0,25,25,25,1,0.6,0.4,0.4,0.6,1,0,,,,,,,,,,,,,,,,,,,,,,,,,,,,,,,,,,,,
,,66cf21fac640537abe16a607,66fc9b158cfd00dc61387fb1,2024-10-02_03h02.50.576,mdp,2024.2.1,Win32,144.9275362,66fa4ebf79326e780c390304,,,,,,,,,,,,,,,,,,,,,242.9375,242.9375,242.9379,243.5825,0,1,left,0.1357,,243.5831,243.5836,,0,,243.5839,243.5842,,0,,0,243.5842,243.5842,243.5844,245.081,0,26,26,26,1,0.6,0.4,0.4,0.6,1,0,,,,,,,,,,,,,,,,,,,,,,,,,,,,,,,,,,,,
,,66cf21fac640537abe16a607,66fc9b158cfd00dc61387fb1,2024-10-02_03h02.50.576,mdp,2024.2.1,Win32,144.9275362,66fa4ebf79326e780c390304,,,,,,,,,,,,,,,,,,,,,245.0814,245.0814,245.0822,245.7542,0,1,left,0.1607,,245.7549,245.7556,,0,,245.7558,245.7561,,0,,0,245.7561,245.7562,245.7564,247.2524,0,27,27,27,1,0.6,0.4,0.4,0.6,1,0,,,,,,,,,,,,,,,,,,,,,,,,,,,,,,,,,,,,
,,66cf21fac640537abe16a607,66fc9b158cfd00dc61387fb1,2024-10-02_03h02.50.576,mdp,2024.2.1,Win32,144.9275362,66fa4ebf79326e780c390304,,,,,,,,,,,,,,,,,,,,,247.2526,247.2526,247.2532,248.0641,0,0,left,0.3014,,248.065,248.0657,,1,,248.0659,248.0661,,1,,1,248.0661,248.0661,248.0663,249.5625,0,28,28,28,1,0.6,0.4,0.4,0.6,1,0,,,,,,,,,,,,,,,,,,,,,,,,,,,,,,,,,,,,
,,66cf21fac640537abe16a607,66fc9b158cfd00dc61387fb1,2024-10-02_03h02.50.576,mdp,2024.2.1,Win32,144.9275362,66fa4ebf79326e780c390304,,,,,,,,,,,,,,,,,,,,,249.5628,249.5628,249.5636,250.3395,1,1,right,0.2669,,250.3401,250.3405,,1,,250.3408,250.341,,1,,0,250.341,250.341,250.3411,251.838,0,29,29,29,1,0.6,0.4,0.4,0.6,1,0,,,,,,,,,,,,,,,,,,,,,,,,,,,,,,,,,,,,
,,66cf21fac640537abe16a607,66fc9b158cfd00dc61387fb1,2024-10-02_03h02.50.576,mdp,2024.2.1,Win32,144.9275362,66fa4ebf79326e780c390304,,,,,,,,,,,,,,,,,,,,,251.8382,251.8382,251.8389,252.5664,0,1,left,0.216,,252.567,252.568,,0,,252.5684,252.5686,,1,,0,252.5686,252.5686,252.5688,254.065,0,30,30,30,1,0.6,0.4,0.4,0.6,1,0,,,,,,,,,,,,,,,,,,,,,,,,,,,,,,,,,,,,
,,66cf21fac640537abe16a607,66fc9b158cfd00dc61387fb1,2024-10-02_03h02.50.576,mdp,2024.2.1,Win32,144.9275362,66fa4ebf79326e780c390304,,,,,,,,,,,,,,,,,,,,,254.0651,254.0651,254.0656,254.9529,1,1,right,0.3758,,254.9535,254.954,,1,,254.9542,254.9544,,1,,0,254.9544,254.9544,254.9546,256.4514,0,31,31,31,1,0.6,0.4,0.4,0.6,1,0,,,,,,,,,,,,,,,,,,,,,,,,,,,,,,,,,,,,
,,66cf21fac640537abe16a607,66fc9b158cfd00dc61387fb1,2024-10-02_03h02.50.576,mdp,2024.2.1,Win32,144.9275362,66fa4ebf79326e780c390304,,,,,,,,,,,,,,,,,,,,,256.4516,256.4516,256.452,257.2146,0,1,left,0.251,,257.2153,257.2161,,1,,257.2164,257.2166,,1,,0,257.2166,257.2166,257.2167,258.7131,0,32,32,32,1,0.6,0.4,0.4,0.6,1,0,,,,,,,,,,,,,,,,,,,,,,,,,,,,,,,,,,,,
,,66cf21fac640537abe16a607,66fc9b158cfd00dc61387fb1,2024-10-02_03h02.50.576,mdp,2024.2.1,Win32,144.9275362,66fa4ebf79326e780c390304,,,,,,,,,,,,,,,,,,,,,258.7136,258.7136,258.7143,259.5455,1,0,right,0.3237,,259.5461,259.5464,,0,,259.5468,259.5471,,1,,1,259.5471,259.5471,259.5473,261.044,0,33,33,33,1,0.4,0.6,0.8,0.2,1,0,,,,,,,,,,,,,,,,,,,,,,,,,,,,,,,,,,,,
,,66cf21fac640537abe16a607,66fc9b158cfd00dc61387fb1,2024-10-02_03h02.50.576,mdp,2024.2.1,Win32,144.9275362,66fa4ebf79326e780c390304,,,,,,,,,,,,,,,,,,,,,261.0442,261.0442,261.0448,262.4732,1,0,right,0.9169,,262.4737,262.4741,,1,,262.4744,262.4745,,1,,1,262.4745,262.4745,262.4748,263.9717,0,34,34,34,1,0.8,0.2,0.4,0.6,1,0,,,,,,,,,,,,,,,,,,,,,,,,,,,,,,,,,,,,
,,66cf21fac640537abe16a607,66fc9b158cfd00dc61387fb1,2024-10-02_03h02.50.576,mdp,2024.2.1,Win32,144.9275362,66fa4ebf79326e780c390304,,,,,,,,,,,,,,,,,,,,,263.972,263.972,263.9729,264.7972,1,0,right,0.3138,,264.7979,264.7985,,1,,264.7988,264.7989,,0,,1,264.799,264.799,264.7992,266.2956,0,35,35,35,1,0.8,0.2,0.4,0.6,1,0,,,,,,,,,,,,,,,,,,,,,,,,,,,,,,,,,,,,
,,66cf21fac640537abe16a607,66fc9b158cfd00dc61387fb1,2024-10-02_03h02.50.576,mdp,2024.2.1,Win32,144.9275362,66fa4ebf79326e780c390304,,,,,,,,,,,,,,,,,,,,,266.2958,266.2958,266.2965,266.9339,0,1,left,0.1259,,266.935,266.9358,,0,,266.9361,266.9362,,1,,0,266.9362,266.9362,266.9364,268.4324,0,36,36,36,1,0.8,0.2,0.4,0.6,1,0,,,,,,,,,,,,,,,,,,,,,,,,,,,,,,,,,,,,
,,66cf21fac640537abe16a607,66fc9b158cfd00dc61387fb1,2024-10-02_03h02.50.576,mdp,2024.2.1,Win32,144.9275362,66fa4ebf79326e780c390304,,,,,,,,,,,,,,,,,,,,,268.4329,268.4329,268.4335,269.3134,1,0,right,0.3723,,269.314,269.3144,,0,,269.3148,269.315,,0,,1,269.315,269.315,269.3153,270.8119,0,37,37,37,1,0.6,0.4,0.6,0.4,1,0,,,,,,,,,,,,,,,,,,,,,,,,,,,,,,,,,,,,
,,66cf21fac640537abe16a607,66fc9b158cfd00dc61387fb1,2024-10-02_03h02.50.576,mdp,2024.2.1,Win32,144.9275362,66fa4ebf79326e780c390304,,,,,,,,,,,,,,,,,,,,,270.8121,270.8121,270.8129,271.464,1,0,right,0.1403,,271.4646,271.465,,0,,271.4654,271.4656,,0,,1,271.4656,271.4656,271.4657,272.9625,0,38,38,38,1,0.6,0.4,0.6,0.4,1,0,,,,,,,,,,,,,,,,,,,,,,,,,,,,,,,,,,,,
,,66cf21fac640537abe16a607,66fc9b158cfd00dc61387fb1,2024-10-02_03h02.50.576,mdp,2024.2.1,Win32,144.9275362,66fa4ebf79326e780c390304,,,,,,,,,,,,,,,,,,,,,272.9627,272.9627,272.9633,273.8714,1,1,right,0.3962,,273.872,273.8725,,0,,273.8729,273.873,,0,,0,273.873,273.873,273.8733,275.3699,0,39,39,39,1,0.8,0.2,0.8,0.2,1,0,,,,,,,,,,,,,,,,,,,,,,,,,,,,,,,,,,,,
,,66cf21fac640537abe16a607,66fc9b158cfd00dc61387fb1,2024-10-02_03h02.50.576,mdp,2024.2.1,Win32,144.9275362,66fa4ebf79326e780c390304,,,,,,,,,,,,,,,,,,,,,275.3701,275.3701,275.3719,275.9526,1,0,right,0.0729,,275.9532,275.9536,,0,,275.954,275.9542,,0,,1,275.9542,275.9542,275.9544,277.4511,0,40,40,40,1,0.8,0.2,0.8,0.2,1,0,,,,,,,,,,,,,,,,,,,,,,,,,,,,,,,,,,,,
,,66cf21fac640537abe16a607,66fc9b158cfd00dc61387fb1,2024-10-02_03h02.50.576,mdp,2024.2.1,Win32,144.9275362,66fa4ebf79326e780c390304,,,,,,,,,,,,,,,,,,,,,277.4514,277.4515,277.4519,278.5473,1,1,right,0.5831,,278.5479,278.5484,,0,,278.5488,278.549,,0,,0,278.549,278.549,278.5492,280.0457,0,41,41,41,1,0.8,0.2,0.8,0.2,1,0,,,,,,,,,,,,,,,,,,,,,,,,,,,,,,,,,,,,
,,66cf21fac640537abe16a607,66fc9b158cfd00dc61387fb1,2024-10-02_03h02.50.576,mdp,2024.2.1,Win32,144.9275362,66fa4ebf79326e780c390304,,,,,,,,,,,,,,,,,,,,,280.046,280.046,280.0466,281.1487,1,0,right,0.5937,,281.1492,281.1496,,0,,281.1501,281.1503,,0,,1,281.1503,281.1503,281.1504,282.6472,0,42,42,42,1,0.8,0.2,0.8,0.2,1,0,,,,,,,,,,,,,,,,,,,,,,,,,,,,,,,,,,,,
,,66cf21fac640537abe16a607,66fc9b158cfd00dc61387fb1,2024-10-02_03h02.50.576,mdp,2024.2.1,Win32,144.9275362,66fa4ebf79326e780c390304,,,,,,,,,,,,,,,,,,,,,282.6474,282.6474,282.648,283.1814,0,1,left,0.0258,,283.1819,283.1823,,0,,283.1826,283.1828,,1,,0,283.1828,283.1828,283.183,284.6798,0,43,43,43,1,0.6,0.4,0.2,0.8,1,0,,,,,,,,,,,,,,,,,,,,,,,,,,,,,,,,,,,,
,,66cf21fac640537abe16a607,66fc9b158cfd00dc61387fb1,2024-10-02_03h02.50.576,mdp,2024.2.1,Win32,144.9275362,66fa4ebf79326e780c390304,,,,,,,,,,,,,,,,,,,,,284.68,284.68,284.6806,285.2349,0,0,left,0.0415,,285.2355,285.2359,,0,,285.2362,285.2364,,1,,1,285.2365,285.2365,285.2367,286.7334,0,44,44,44,1,0.4,0.6,0.8,0.2,1,0,,,,,,,,,,,,,,,,,,,,,,,,,,,,,,,,,,,,
,,66cf21fac640537abe16a607,66fc9b158cfd00dc61387fb1,2024-10-02_03h02.50.576,mdp,2024.2.1,Win32,144.9275362,66fa4ebf79326e780c390304,,,,,,,,,,,,,,,,,,,,,286.7337,286.7337,286.7342,287.7602,1,0,right,0.5138,,287.7608,287.7613,,0,,287.7617,287.7619,,0,,1,287.7619,287.7619,287.7621,289.2586,0,45,45,45,1,0.8,0.2,0.4,0.6,1,0,,,,,,,,,,,,,,,,,,,,,,,,,,,,,,,,,,,,
,,66cf21fac640537abe16a607,66fc9b158cfd00dc61387fb1,2024-10-02_03h02.50.576,mdp,2024.2.1,Win32,144.9275362,66fa4ebf79326e780c390304,,,,,,,,,,,,,,,,,,,,,289.2588,289.2588,289.2595,289.9246,1,1,right,0.1548,,289.9252,289.9255,,0,,289.9257,289.926,,1,,0,289.926,289.926,289.9262,291.4231,0,46,46,46,1,0.8,0.2,0.4,0.6,1,0,,,,,,,,,,,,,,,,,,,,,,,,,,,,,,,,,,,,
,,66cf21fac640537abe16a607,66fc9b158cfd00dc61387fb1,2024-10-02_03h02.50.576,mdp,2024.2.1,Win32,144.9275362,66fa4ebf79326e780c390304,,,,,,,,,,,,,,,,,,,,,291.4236,291.4237,291.4247,292.0682,0,0,left,0.1319,,292.0688,292.0692,,0,,292.0694,292.0696,,0,,1,292.0696,292.0696,292.0698,293.5667,0,47,47,47,1,0.8,0.2,0.4,0.6,1,0,,,,,,,,,,,,,,,,,,,,,,,,,,,,,,,,,,,,
,,66cf21fac640537abe16a607,66fc9b158cfd00dc61387fb1,2024-10-02_03h02.50.576,mdp,2024.2.1,Win32,144.9275362,66fa4ebf79326e780c390304,,,,,,,,,,,,,,,,,,,,,293.5669,293.5669,293.5674,294.1217,1,0,right,0.044,,294.1223,294.1228,,0,,294.1232,294.1234,,0,,1,294.1234,294.1234,294.1237,295.6202,0,48,48,48,1,0.8,0.2,0.4,0.6,1,0,,,,,,,,,,,,,,,,,,,,,,,,,,,,,,,,,,,,
,,66cf21fac640537abe16a607,66fc9b158cfd00dc61387fb1,2024-10-02_03h02.50.576,mdp,2024.2.1,Win32,144.9275362,66fa4ebf79326e780c390304,,,,,,,,,,,,,,,,,,,,,295.6204,295.6204,295.6212,296.5568,0,0,left,0.4284,,296.5573,296.5577,,0,,296.5579,296.5581,,0,,1,296.5581,296.5581,296.5583,298.0553,0,49,49,49,1,0.8,0.2,0.4,0.6,1,0,,,,,,,,,,,,,,,,,,,,,,,,,,,,,,,,,,,,
,,66cf21fac640537abe16a607,66fc9b158cfd00dc61387fb1,2024-10-02_03h02.50.576,mdp,2024.2.1,Win32,144.9275362,66fa4ebf79326e780c390304,,,,,,,,,,,,,,,,,,,,,,,,,,,,,,,,,,,,,,,,,,,,,,,,,,,,,,,,298.0558,356.5589,0,0,0,0,1,imgs/giraffe.png,imgs/horse.png,imgs/squirrel.png,imgs/bear.png,imgs/rabbit.png,,,,,,,,,,,,,,,,,,,,,,,,
,,66cf21fac640537abe16a607,66fc9b158cfd00dc61387fb1,2024-10-02_03h02.50.576,mdp,2024.2.1,Win32,144.9275362,66fa4ebf79326e780c390304,,,,,,,,,,,,,,2,seqs/st2seq15.csv,356.5602,364.1761,space,7.1073,,364.1788,364.1788,364.1793,365.7023,0,0,left,1.0077,,365.7031,369.3513,1,1,right,369.3522,369.3526,,1,,0,369.3526,369.3526,369.3528,370.8498,0,0,0,0,1,0.2,0.8,0.8,0.2,,,,,,,,,,,,,,,3.1312,,0.6,0.4,0.2,0.8,0.6,0.4,0.8,0.2,1,0,,,,,,,,,,,,
,,66cf21fac640537abe16a607,66fc9b158cfd00dc61387fb1,2024-10-02_03h02.50.576,mdp,2024.2.1,Win32,144.9275362,66fa4ebf79326e780c390304,,,,,,,,,,,,,,,,,,,,,370.8501,370.8502,370.8507,372.147,0,0,left,0.7834,,372.1476,375.3176,0,1,left,375.318,375.3183,,0,,0,375.3184,375.3184,375.3186,376.816,0,1,1,1,1,0.2,0.8,0.8,0.2,,,,,,,,,,,,,,,2.6618,,0.4,0.6,0.8,0.2,0.6,0.4,0.8,0.2,1,0,,,,,,,,,,,,
,,66cf21fac640537abe16a607,66fc9b158cfd00dc61387fb1,2024-10-02_03h02.50.576,mdp,2024.2.1,Win32,144.9275362,66fa4ebf79326e780c390304,,,,,,,,,,,,,,,,,,,,,376.8164,376.8164,376.8169,378.5227,0,1,left,1.1966,,378.5234,381.6794,1,0,right,381.68,381.6805,,0,,1,381.6805,381.6805,381.6807,383.1776,0,2,2,2,1,0.2,0.8,0.8,0.2,,,,,,,,,,,,,,,2.6387,,0.4,0.6,0.8,0.2,0.6,0.4,0.8,0.2,1,0,,,,,,,,,,,,
,,66cf21fac640537abe16a607,66fc9b158cfd00dc61387fb1,2024-10-02_03h02.50.576,mdp,2024.2.1,Win32,144.9275362,66fa4ebf79326e780c390304,,,,,,,,,,,,,,,,,,,,,383.1779,383.1779,383.1783,384.1212,1,0,right,0.431,,384.1218,387.7287,1,0,right,387.7297,387.7304,,0,,1,387.7304,387.7304,387.7306,389.2271,0,3,3,3,1,0.2,0.8,0.8,0.2,,,,,,,,,,,,,,,3.0871,,0.4,0.6,0.8,0.2,0.6,0.4,0.8,0.2,1,0,,,,,,,,,,,,
,,66cf21fac640537abe16a607,66fc9b158cfd00dc61387fb1,2024-10-02_03h02.50.576,mdp,2024.2.1,Win32,144.9275362,66fa4ebf79326e780c390304,,,,,,,,,,,,,,,,,,,,,389.2275,389.2275,389.2285,391.3014,0,1,left,1.5648,,391.3019,392.5433,0,0,left,392.5443,392.5446,,0,,1,392.5447,392.5447,392.545,394.0416,0,4,4,4,1,0.2,0.8,0.8,0.2,,,,,,,,,,,,,,,0.7241,,0.4,0.6,0.8,0.2,0.6,0.4,0.8,0.2,1,0,,,,,,,,,,,,
,,66cf21fac640537abe16a607,66fc9b158cfd00dc61387fb1,2024-10-02_03h02.50.576,mdp,2024.2.1,Win32,144.9275362,66fa4ebf79326e780c390304,,,,,,,,,,,,,,,,,,,,,394.0419,394.0419,394.0424,394.9574,0,0,left,0.4032,,394.958,395.9009,1,1,right,395.9015,395.9019,,0,,0,395.9019,395.9019,395.9022,397.3994,0,5,5,5,1,0.8,0.2,0.6,0.4,,,,,,,,,,,,,,,0.4273,,0.4,0.6,0.8,0.2,0.6,0.4,0.8,0.2,1,0,,,,,,,,,,,,
,,66cf21fac640537abe16a607,66fc9b158cfd00dc61387fb1,2024-10-02_03h02.50.576,mdp,2024.2.1,Win32,144.9275362,66fa4ebf79326e780c390304,,,,,,,,,,,,,,,,,,,,,397.3999,397.3999,397.4005,398.3151,0,0,left,0.4028,,398.3157,399.1892,0,1,left,399.1898,399.1901,,0,,0,399.1901,399.1901,399.1905,400.6877,0,6,6,6,1,0.8,0.2,0.6,0.4,,,,,,,,,,,,,,,0.3659,,0.4,0.6,0.8,0.2,0.6,0.4,0.8,0.2,1,0,,,,,,,,,,,,
,,66cf21fac640537abe16a607,66fc9b158cfd00dc61387fb1,2024-10-02_03h02.50.576,mdp,2024.2.1,Win32,144.9275362,66fa4ebf79326e780c390304,,,,,,,,,,,,,,,,,,,,,400.6879,400.6879,400.6885,401.4439,1,1,right,0.2427,,401.4447,402.2279,1,0,right,402.2284,402.2288,,0,,1,402.2288,402.2288,402.2291,403.7263,0,7,7,7,1,0.8,0.2,0.6,0.4,,,,,,,,,,,,,,,0.2635,,0.4,0.6,0.8,0.2,0.6,0.4,0.8,0.2,1,0,,,,,,,,,,,,
,,66cf21fac640537abe16a607,66fc9b158cfd00dc61387fb1,2024-10-02_03h02.50.576,mdp,2024.2.1,Win32,144.9275362,66fa4ebf79326e780c390304,,,,,,,,,,,,,,,,,,,,,403.7268,403.7268,403.7276,405.0099,1,0,right,0.7752,,405.0104,406.4805,1,0,right,406.4811,406.4815,,1,,1,406.4815,406.4815,406.4817,407.9789,0,8,8,8,1,0.8,0.2,0.6,0.4,,,,,,,,,,,,,,,0.9517,,0.4,0.6,0.8,0.2,0.6,0.4,0.8,0.2,1,0,,,,,,,,,,,,
,,66cf21fac640537abe16a607,66fc9b158cfd00dc61387fb1,2024-10-02_03h02.50.576,mdp,2024.2.1,Win32,144.9275362,66fa4ebf79326e780c390304,,,,,,,,,,,,,,,,,,,,,407.9791,407.9791,407.9797,408.9295,0,0,left,0.4378,,408.9301,410.6431,1,0,right,410.6436,410.644,,1,,1,410.6441,410.6441,410.6442,412.1414,0,9,9,9,1,0.8,0.2,0.6,0.4,,,,,,,,,,,,,,,1.2011,,0.4,0.6,0.8,0.2,0.6,0.4,0.8,0.2,1,0,,,,,,,,,,,,
,,66cf21fac640537abe16a607,66fc9b158cfd00dc61387fb1,2024-10-02_03h02.50.576,mdp,2024.2.1,Win32,144.9275362,66fa4ebf79326e780c390304,,,,,,,,,,,,,,,,,,,,,412.1417,412.1417,412.1423,412.9254,1,0,right,0.2744,,412.926,414.3754,1,1,right,414.376,414.3765,,1,,0,414.3765,414.3765,414.3768,415.8738,0,10,10,10,1,0.8,0.2,0.6,0.4,,,,,,,,,,,,,,,0.9367,,0.4,0.6,0.8,0.2,0.4,0.6,0.4,0.6,1,0,,,,,,,,,,,,
,,66cf21fac640537abe16a607,66fc9b158cfd00dc61387fb1,2024-10-02_03h02.50.576,mdp,2024.2.1,Win32,144.9275362,66fa4ebf79326e780c390304,,,,,,,,,,,,,,,,,,,,,415.874,415.874,415.8745,416.7063,0,0,left,0.323,,416.7068,419.0025,0,1,left,419.0031,419.0036,,0,,0,419.0036,419.0036,419.0038,420.5011,0,11,11,11,1,0.8,0.2,0.6,0.4,,,,,,,,,,,,,,,1.7878,,0.4,0.6,0.8,0.2,0.4,0.6,0.4,0.6,1,0,,,,,,,,,,,,
,,66cf21fac640537abe16a607,66fc9b158cfd00dc61387fb1,2024-10-02_03h02.50.576,mdp,2024.2.1,Win32,144.9275362,66fa4ebf79326e780c390304,,,,,,,,,,,,,,,,,,,,,420.5015,420.5015,420.5024,421.2851,1,0,right,0.2718,,421.286,422.5614,1,0,right,422.562,422.5624,,0,,1,422.5624,422.5624,422.5627,424.06,0,12,12,12,1,0.8,0.2,0.6,0.4,,,,,,,,,,,,,,,0.7628,,0.4,0.6,0.8,0.2,0.4,0.6,0.4,0.6,1,0,,,,,,,,,,,,
,,66cf21fac640537abe16a607,66fc9b158cfd00dc61387fb1,2024-10-02_03h02.50.576,mdp,2024.2.1,Win32,144.9275362,66fa4ebf79326e780c390304,,,,,,,,,,,,,,,,,,,,,424.0604,424.0604,424.0613,424.858,1,0,right,0.288,,424.8588,426.1551,1,1,right,426.1557,426.1561,,0,,0,426.1561,426.1562,426.1564,427.6536,0,13,13,13,1,0.8,0.2,0.6,0.4,,,,,,,,,,,,,,,0.7848,,0.4,0.6,0.8,0.2,0.8,0.2,0.6,0.4,1,0,,,,,,,,,,,,
,,66cf21fac640537abe16a607,66fc9b158cfd00dc61387fb1,2024-10-02_03h02.50.576,mdp,2024.2.1,Win32,144.9275362,66fa4ebf79326e780c390304,,,,,,,,,,,,,,,,,,,,,427.6538,427.6538,427.6551,428.8122,1,1,right,0.6456,,428.8127,429.6516,1,1,right,429.6522,429.6526,,0,,0,429.6526,429.6526,429.6528,431.1501,0,14,14,14,1,0.8,0.2,0.6,0.4,,,,,,,,,,,,,,,0.3209,,0.4,0.6,0.8,0.2,0.8,0.2,0.6,0.4,1,0,,,,,,,,,,,,
,,66cf21fac640537abe16a607,66fc9b158cfd00dc61387fb1,2024-10-02_03h02.50.576,mdp,2024.2.1,Win32,144.9275362,66fa4ebf79326e780c390304,,,,,,,,,,,,,,,,,,,,,431.1504,431.1504,431.1511,431.8856,1,0,right,0.2237,,431.8863,432.7387,1,0,right,432.7398,432.7402,,1,,1,432.7403,432.7403,432.7405,434.2371,0,15,15,15,1,0.8,0.2,0.6,0.4,,,,,,,,,,,,,,,0.3343,,0.4,0.6,0.8,0.2,0.8,0.2,0.6,0.4,1,0,,,,,,,,,,,,
,,66cf21fac640537abe16a607,66fc9b158cfd00dc61387fb1,2024-10-02_03h02.50.576,mdp,2024.2.1,Win32,144.9275362,66fa4ebf79326e780c390304,,,,,,,,,,,,,,,,,,,,,434.2375,434.2375,434.2381,434.9726,0,0,left,0.222,,434.9738,435.8605,0,0,left,435.8613,435.8617,,1,,1,435.8617,435.8617,435.862,437.3591,0,16,16,16,1,0.8,0.2,0.6,0.4,,,,,,,,,,,,,,,0.3769,,0.4,0.6,0.8,0.2,0.8,0.2,0.6,0.4,1,0,,,,,,,,,,,,
,,66cf21fac640537abe16a607,66fc9b158cfd00dc61387fb1,2024-10-02_03h02.50.576,mdp,2024.2.1,Win32,144.9275362,66fa4ebf79326e780c390304,,,,,,,,,,,,,,,,,,,,,437.3594,437.3594,437.36,438.7326,1,1,right,0.8627,,438.7332,440.141,0,0,left,440.1415,440.1419,,0,,1,440.142,440.142,440.1422,441.6395,0,17,17,17,1,0.8,0.2,0.6,0.4,,,,,,,,,,,,,,,0.8919,,0.4,0.6,0.8,0.2,0.8,0.2,0.6,0.4,1,0,,,,,,,,,,,,
,,66cf21fac640537abe16a607,66fc9b158cfd00dc61387fb1,2024-10-02_03h02.50.576,mdp,2024.2.1,Win32,144.9275362,66fa4ebf79326e780c390304,,,,,,,,,,,,,,,,,,,,,441.6397,441.6397,441.6402,442.2014,1,1,right,0.0534,,442.2019,443.8248,0,0,left,443.8253,443.8259,,0,,1,443.826,443.826,443.8262,445.3231,0,18,18,18,1,0.8,0.2,0.6,0.4,,,,,,,,,,,,,,,1.1134,,0.4,0.6,0.8,0.2,0.8,0.2,0.6,0.4,1,0,,,,,,,,,,,,
,,66cf21fac640537abe16a607,66fc9b158cfd00dc61387fb1,2024-10-02_03h02.50.576,mdp,2024.2.1,Win32,144.9275362,66fa4ebf79326e780c390304,,,,,,,,,,,,,,,,,,,,,445.3234,445.3234,445.3239,446.1071,1,0,right,0.2724,,446.1077,447.2657,1,1,right,447.2663,447.2665,,0,,0,447.2666,447.2666,447.2668,448.7641,0,19,19,19,1,0.8,0.2,0.6,0.4,,,,,,,,,,,,,,,0.6426,,0.4,0.6,0.8,0.2,0.8,0.2,0.6,0.4,1,0,,,,,,,,,,,,
,,66cf21fac640537abe16a607,66fc9b158cfd00dc61387fb1,2024-10-02_03h02.50.576,mdp,2024.2.1,Win32,144.9275362,66fa4ebf79326e780c390304,,,,,,,,,,,,,,,,,,,,,448.7643,448.7643,448.7649,449.5272,0,0,left,0.2521,,449.528,450.7277,0,0,left,450.7282,450.7287,,1,,1,450.7287,450.7287,450.729,452.226,0,20,20,20,1,0.8,0.2,0.6,0.4,,,,,,,,,,,,,,,0.6883,,0.4,0.6,0.8,0.2,0.8,0.2,0.6,0.4,1,0,,,,,,,,,,,,
,,66cf21fac640537abe16a607,66fc9b158cfd00dc61387fb1,2024-10-02_03h02.50.576,mdp,2024.2.1,Win32,144.9275362,66fa4ebf79326e780c390304,,,,,,,,,,,,,,,,,,,,,452.2262,452.2262,452.2267,453.0518,1,0,right,0.3123,,453.0525,454.1894,1,0,right,454.1905,454.1909,,0,,1,454.191,454.191,454.1911,455.6877,0,21,21,21,1,0.8,0.2,0.6,0.4,,,,,,,,,,,,,,,0.6245,,0.4,0.6,0.8,0.2,0.8,0.2,0.6,0.4,1,0,,,,,,,,,,,,
,,66cf21fac640537abe16a607,66fc9b158cfd00dc61387fb1,2024-10-02_03h02.50.576,mdp,2024.2.1,Win32,144.9275362,66fa4ebf79326e780c390304,,,,,,,,,,,,,,,,,,,,,455.6881,455.6881,455.6888,456.5412,0,1,left,0.3409,,456.5422,457.5263,0,1,left,457.5272,457.5276,,0,,0,457.5276,457.5276,457.5279,459.0246,0,22,22,22,1,0.8,0.2,0.6,0.4,,,,,,,,,,,,,,,0.4649,,0.4,0.6,0.8,0.2,0.4,0.6,0.2,0.8,1,0,,,,,,,,,,,,
,,66cf21fac640537abe16a607,66fc9b158cfd00dc61387fb1,2024-10-02_03h02.50.576,mdp,2024.2.1,Win32,144.9275362,66fa4ebf79326e780c390304,,,,,,,,,,,,,,,,,,,,,459.0249,459.0249,459.0257,459.8224,1,0,right,0.2871,,459.823,461.2586,0,1,left,461.26,461.2604,,1,,0,461.2604,461.2604,461.2606,462.757,0,23,23,23,1,0.8,0.2,0.6,0.4,,,,,,,,,,,,,,,0.9158,,0.2,0.8,0.6,0.4,0.4,0.6,0.2,0.8,1,0,,,,,,,,,,,,
,,66cf21fac640537abe16a607,66fc9b158cfd00dc61387fb1,2024-10-02_03h02.50.576,mdp,2024.2.1,Win32,144.9275362,66fa4ebf79326e780c390304,,,,,,,,,,,,,,,,,,,,,462.7573,462.7573,462.7578,463.4855,1,1,right,0.2164,,463.4861,464.3873,1,1,right,464.3879,464.3885,,1,,0,464.3885,464.3885,464.3887,465.8858,0,24,24,24,1,0.8,0.2,0.6,0.4,,,,,,,,,,,,,,,0.3815,,0.2,0.8,0.6,0.4,0.4,0.6,0.2,0.8,1,0,,,,,,,,,,,,
,,66cf21fac640537abe16a607,66fc9b158cfd00dc61387fb1,2024-10-02_03h02.50.576,mdp,2024.2.1,Win32,144.9275362,66fa4ebf79326e780c390304,,,,,,,,,,,,,,,,,,,,,465.8863,465.8863,465.8869,466.8155,0,0,left,0.4206,,466.8163,468.2584,1,1,right,468.2591,468.2596,,0,,0,468.2596,468.2596,468.26,469.7568,0,25,25,25,1,0.8,0.2,0.6,0.4,,,,,,,,,,,,,,,0.9231,,0.2,0.8,0.6,0.4,0.2,0.8,0.4,0.6,1,0,,,,,,,,,,,,
,,66cf21fac640537abe16a607,66fc9b158cfd00dc61387fb1,2024-10-02_03h02.50.576,mdp,2024.2.1,Win32,144.9275362,66fa4ebf79326e780c390304,,,,,,,,,,,,,,,,,,,,,469.7571,469.7572,469.7575,470.5547,0,0,left,0.2847,,470.5553,471.5537,0,1,left,471.5546,471.5551,,1,,0,471.5551,471.5551,471.5557,473.0522,0,26,26,26,1,0.8,0.2,0.6,0.4,,,,,,,,,,,,,,,0.4879,,0.2,0.8,0.6,0.4,0.2,0.8,0.4,0.6,1,0,,,,,,,,,,,,
,,66cf21fac640537abe16a607,66fc9b158cfd00dc61387fb1,2024-10-02_03h02.50.576,mdp,2024.2.1,Win32,144.9275362,66fa4ebf79326e780c390304,,,,,,,,,,,,,,,,,,,,,473.0524,473.0525,473.053,473.8499,1,0,right,0.2859,,473.8505,474.7381,1,0,right,474.7389,474.7392,,0,,1,474.7393,474.7393,474.7395,476.2364,0,27,27,27,1,0.8,0.2,0.6,0.4,,,,,,,,,,,,,,,0.3748,,0.2,0.8,0.6,0.4,0.2,0.8,0.4,0.6,1,0,,,,,,,,,,,,
,,66cf21fac640537abe16a607,66fc9b158cfd00dc61387fb1,2024-10-02_03h02.50.576,mdp,2024.2.1,Win32,144.9275362,66fa4ebf79326e780c390304,,,,,,,,,,,,,,,,,,,,,476.2368,476.2368,476.2376,476.972,1,0,right,0.2222,,476.9727,477.8182,1,1,right,477.8189,477.8193,,0,,0,477.8193,477.8193,477.8195,479.3167,0,28,28,28,1,0.8,0.2,0.6,0.4,,,,,,,,,,,,,,,0.3364,,0.2,0.8,0.6,0.4,0.2,0.8,0.4,0.6,1,0,,,,,,,,,,,,
,,66cf21fac640537abe16a607,66fc9b158cfd00dc61387fb1,2024-10-02_03h02.50.576,mdp,2024.2.1,Win32,144.9275362,66fa4ebf79326e780c390304,,,,,,,,,,,,,,,,,,,,,479.3171,479.3171,479.3183,480.3435,1,0,right,0.5134,,480.3445,481.4327,0,1,left,481.4332,481.4335,,1,,0,481.4335,481.4336,481.4338,482.9311,0,29,29,29,1,0.8,0.2,0.6,0.4,,,,,,,,,,,,,,,0.5769,,0.2,0.8,0.6,0.4,0.2,0.8,0.4,0.6,1,0,,,,,,,,,,,,
,,66cf21fac640537abe16a607,66fc9b158cfd00dc61387fb1,2024-10-02_03h02.50.576,mdp,2024.2.1,Win32,144.9275362,66fa4ebf79326e780c390304,,,,,,,,,,,,,,,,,,,,,482.9313,482.9313,482.9318,483.7427,1,0,right,0.3031,,483.7433,484.6447,1,0,right,484.6452,484.6456,,0,,1,484.6456,484.6456,484.646,486.143,0,30,30,30,1,0.8,0.2,0.6,0.4,,,,,,,,,,,,,,,0.3892,,0.2,0.8,0.6,0.4,0.2,0.8,0.4,0.6,1,0,,,,,,,,,,,,
,,66cf21fac640537abe16a607,66fc9b158cfd00dc61387fb1,2024-10-02_03h02.50.576,mdp,2024.2.1,Win32,144.9275362,66fa4ebf79326e780c390304,,,,,,,,,,,,,,,,,,,,,486.1434,486.1434,486.144,486.9548,0,0,left,0.3029,,486.9557,487.8082,0,1,left,487.8095,487.81,,1,,0,487.81,487.81,487.8102,489.3066,0,31,31,31,1,0.8,0.2,0.6,0.4,,,,,,,,,,,,,,,0.3394,,0.2,0.8,0.6,0.4,0.2,0.8,0.4,0.6,1,0,,,,,,,,,,,,
,,66cf21fac640537abe16a607,66fc9b158cfd00dc61387fb1,2024-10-02_03h02.50.576,mdp,2024.2.1,Win32,144.9275362,66fa4ebf79326e780c390304,,,,,,,,,,,,,,,,,,,,,489.3069,489.3069,489.3076,490.0281,1,0,right,0.2099,,490.0286,490.8051,1,1,right,490.8058,490.8062,,1,,0,490.8062,490.8062,490.8065,492.3036,0,32,32,32,1,0.8,0.2,0.6,0.4,,,,,,,,,,,,,,,0.2636,,0.2,0.8,0.6,0.4,0.2,0.8,0.4,0.6,1,0,,,,,,,,,,,,
,,66cf21fac640537abe16a607,66fc9b158cfd00dc61387fb1,2024-10-02_03h02.50.576,mdp,2024.2.1,Win32,144.9275362,66fa4ebf79326e780c390304,,,,,,,,,,,,,,,,,,,,,492.3039,492.3039,492.3048,493.1152,0,0,left,0.2986,,493.1158,494.0518,0,1,left,494.0524,494.053,,1,,0,494.053,494.053,494.0533,495.5502,0,33,33,33,1,0.8,0.2,0.6,0.4,,,,,,,,,,,,,,,0.4243,,0.2,0.8,0.6,0.4,0.2,0.8,0.4,0.6,1,0,,,,,,,,,,,,
,,66cf21fac640537abe16a607,66fc9b158cfd00dc61387fb1,2024-10-02_03h02.50.576,mdp,2024.2.1,Win32,144.9275362,66fa4ebf79326e780c390304,,,,,,,,,,,,,,,,,,,,,495.5505,495.5505,495.5511,496.1469,1,0,right,0.0834,,496.148,496.9655,1,0,right,496.966,496.9665,,0,,1,496.9665,496.9665,496.9669,498.4639,0,34,34,34,1,0.8,0.2,0.6,0.4,,,,,,,,,,,,,,,0.31,,0.2,0.8,0.6,0.4,0.2,0.8,0.4,0.6,1,0,,,,,,,,,,,,
,,66cf21fac640537abe16a607,66fc9b158cfd00dc61387fb1,2024-10-02_03h02.50.576,mdp,2024.2.1,Win32,144.9275362,66fa4ebf79326e780c390304,,,,,,,,,,,,,,,,,,,,,498.4643,498.4643,498.4649,499.2757,1,0,right,0.3028,,499.2763,500.0666,1,0,right,500.0674,500.0679,,1,,1,500.0679,500.0679,500.0681,501.565,0,35,35,35,1,0.8,0.2,0.6,0.4,,,,,,,,,,,,,,,0.2774,,0.2,0.8,0.6,0.4,0.2,0.8,0.4,0.6,1,0,,,,,,,,,,,,
,,66cf21fac640537abe16a607,66fc9b158cfd00dc61387fb1,2024-10-02_03h02.50.576,mdp,2024.2.1,Win32,144.9275362,66fa4ebf79326e780c390304,,,,,,,,,,,,,,,,,,,,,501.5653,501.5654,501.5661,502.1409,1,0,right,0.0605,,502.1414,502.9803,1,1,right,502.9809,502.9812,,0,,0,502.9812,502.9812,502.9815,504.4787,0,36,36,36,1,0.8,0.2,0.6,0.4,,,,,,,,,,,,,,,0.329,,0.2,0.8,0.6,0.4,0.2,0.8,0.4,0.6,1,0,,,,,,,,,,,,
,,66cf21fac640537abe16a607,66fc9b158cfd00dc61387fb1,2024-10-02_03h02.50.576,mdp,2024.2.1,Win32,144.9275362,66fa4ebf79326e780c390304,,,,,,,,,,,,,,,,,,,,,504.4789,504.4789,504.4797,505.3112,0,0,left,0.3199,,505.312,506.2617,0,1,left,506.2623,506.2626,,1,,0,506.2626,506.2626,506.263,507.7602,0,37,37,37,1,0.8,0.2,0.6,0.4,,,,,,,,,,,,,,,0.4395,,0.2,0.8,0.6,0.4,0.2,0.8,0.4,0.6,1,0,,,,,,,,,,,,
,,66cf21fac640537abe16a607,66fc9b158cfd00dc61387fb1,2024-10-02_03h02.50.576,mdp,2024.2.1,Win32,144.9275362,66fa4ebf79326e780c390304,,,,,,,,,,,,,,,,,,,,,507.7606,507.7607,507.7613,508.6135,1,0,right,0.3408,,508.6141,509.446,1,1,right,509.4467,509.4472,,0,,0,509.4473,509.4473,509.4475,510.9445,0,38,38,38,1,0.8,0.2,0.6,0.4,,,,,,,,,,,,,,,0.32,,0.2,0.8,0.6,0.4,0.2,0.8,0.4,0.6,1,0,,,,,,,,,,,,
,,66cf21fac640537abe16a607,66fc9b158cfd00dc61387fb1,2024-10-02_03h02.50.576,mdp,2024.2.1,Win32,144.9275362,66fa4ebf79326e780c390304,,,,,,,,,,,,,,,,,,,,,510.9449,510.9449,510.9457,511.8185,0,0,left,0.366,,511.8191,512.6927,0,1,left,512.6939,512.6944,,1,,0,512.6944,512.6944,512.6947,514.1911,0,39,39,39,1,0.8,0.2,0.6,0.4,,,,,,,,,,,,,,,0.362,,0.2,0.8,0.6,0.4,0.2,0.8,0.4,0.6,1,0,,,,,,,,,,,,
,,66cf21fac640537abe16a607,66fc9b158cfd00dc61387fb1,2024-10-02_03h02.50.576,mdp,2024.2.1,Win32,144.9275362,66fa4ebf79326e780c390304,,,,,,,,,,,,,,,,,,,,,514.1913,514.1913,514.1919,514.989,1,0,right,0.2875,,514.9896,515.7799,1,1,right,515.7805,515.7808,,1,,0,515.7809,515.7809,515.7812,517.2783,0,40,40,40,1,0.8,0.2,0.6,0.4,,,,,,,,,,,,,,,0.2777,,0.8,0.2,0.2,0.8,0.2,0.8,0.4,0.6,1,0,,,,,,,,,,,,
,,66cf21fac640537abe16a607,66fc9b158cfd00dc61387fb1,2024-10-02_03h02.50.576,mdp,2024.2.1,Win32,144.9275362,66fa4ebf79326e780c390304,,,,,,,,,,,,,,,,,,,,,517.2785,517.2785,517.2791,518.0623,1,0,right,0.2709,,518.063,518.8462,1,1,right,518.8468,518.8472,,1,,0,518.8472,518.8472,518.8475,520.3448,0,41,41,41,1,0.8,0.2,0.6,0.4,,,,,,,,,,,,,,,0.2709,,0.8,0.2,0.2,0.8,0.2,0.8,0.4,0.6,1,0,,,,,,,,,,,,
,,66cf21fac640537abe16a607,66fc9b158cfd00dc61387fb1,2024-10-02_03h02.50.576,mdp,2024.2.1,Win32,144.9275362,66fa4ebf79326e780c390304,,,,,,,,,,,,,,,,,,,,,520.3452,520.3452,520.3456,521.0663,1,0,right,0.2089,,521.0669,521.7877,1,1,right,521.7882,521.7885,,1,,0,521.7885,521.7885,521.7889,523.2861,0,42,42,42,1,0.8,0.2,0.6,0.4,,,,,,,,,,,,,,,0.2127,,0.8,0.2,0.2,0.8,0.2,0.8,0.4,0.6,1,0,,,,,,,,,,,,
,,66cf21fac640537abe16a607,66fc9b158cfd00dc61387fb1,2024-10-02_03h02.50.576,mdp,2024.2.1,Win32,144.9275362,66fa4ebf79326e780c390304,,,,,,,,,,,,,,,,,,,,,523.2864,523.2864,523.2871,524.1674,0,0,left,0.37,,524.168,524.972,0,0,left,524.9726,524.9731,,0,,1,524.9731,524.9731,524.9733,526.4704,0,43,43,43,1,0.8,0.2,0.6,0.4,,,,,,,,,,,,,,,0.294,,0.8,0.2,0.2,0.8,0.2,0.8,0.4,0.6,1,0,,,,,,,,,,,,
,,66cf21fac640537abe16a607,66fc9b158cfd00dc61387fb1,2024-10-02_03h02.50.576,mdp,2024.2.1,Win32,144.9275362,66fa4ebf79326e780c390304,,,,,,,,,,,,,,,,,,,,,526.4709,526.4709,526.4716,527.303,0,0,left,0.3208,,527.3037,528.0661,0,0,left,528.0671,528.0675,,0,,1,528.0675,528.0675,528.0678,529.5646,0,44,44,44,1,0.8,0.2,0.6,0.4,,,,,,,,,,,,,,,0.2519,,0.8,0.2,0.2,0.8,0.2,0.8,0.4,0.6,1,0,,,,,,,,,,,,
,,66cf21fac640537abe16a607,66fc9b158cfd00dc61387fb1,2024-10-02_03h02.50.576,mdp,2024.2.1,Win32,144.9275362,66fa4ebf79326e780c390304,,,,,,,,,,,,,,,,,,,,,529.5648,529.5648,529.5653,530.3416,0,0,left,0.2659,,530.3426,531.0908,0,1,left,531.0915,531.0918,,1,,0,531.0918,531.0918,531.0922,532.5894,0,45,45,45,1,0.8,0.2,0.6,0.4,,,,,,,,,,,,,,,0.2382,,0.8,0.2,0.2,0.8,0.2,0.8,0.4,0.6,1,0,,,,,,,,,,,,
,,66cf21fac640537abe16a607,66fc9b158cfd00dc61387fb1,2024-10-02_03h02.50.576,mdp,2024.2.1,Win32,144.9275362,66fa4ebf79326e780c390304,,,,,,,,,,,,,,,,,,,,,532.5897,532.5897,532.5904,533.4218,1,0,right,0.324,,533.4223,534.2197,1,1,right,534.2206,534.2212,,1,,0,534.2212,534.2212,534.2215,535.7181,0,46,46,46,1,0.8,0.2,0.6,0.4,,,,,,,,,,,,,,,0.285,,0.8,0.2,0.2,0.8,0.2,0.8,0.4,0.6,1,0,,,,,,,,,,,,
,,66cf21fac640537abe16a607,66fc9b158cfd00dc61387fb1,2024-10-02_03h02.50.576,mdp,2024.2.1,Win32,144.9275362,66fa4ebf79326e780c390304,,,,,,,,,,,,,,,,,,,,,535.7183,535.7183,535.7189,536.3494,1,1,right,0.1193,,536.3499,537.0361,1,0,right,537.0368,537.0371,,0,,1,537.0372,537.0372,537.0375,538.5346,0,47,47,47,1,0.8,0.2,0.6,0.4,,,,,,,,,,,,,,,0.1702,,0.8,0.2,0.2,0.8,0.2,0.8,0.4,0.6,1,0,,,,,,,,,,,,
,,66cf21fac640537abe16a607,66fc9b158cfd00dc61387fb1,2024-10-02_03h02.50.576,mdp,2024.2.1,Win32,144.9275362,66fa4ebf79326e780c390304,,,,,,,,,,,,,,,,,,,,,538.5349,538.5349,538.5354,539.4088,1,0,right,0.3638,,539.4093,540.1372,1,1,right,540.1384,540.1389,,0,,0,540.1389,540.1389,540.1391,541.6357,0,48,48,48,1,0.8,0.2,0.6,0.4,,,,,,,,,,,,,,,0.2096,,0.8,0.2,0.2,0.8,0.2,0.8,0.4,0.6,1,0,,,,,,,,,,,,
,,66cf21fac640537abe16a607,66fc9b158cfd00dc61387fb1,2024-10-02_03h02.50.576,mdp,2024.2.1,Win32,144.9275362,66fa4ebf79326e780c390304,,,,,,,,,,,,,,,,,,,,,541.6359,541.6359,541.6366,542.5444,0,0,left,0.3954,,542.545,543.2937,0,1,left,543.2942,543.2945,,0,,0,543.2945,543.2946,543.2949,544.7922,0,49,49,49,1,0.8,0.2,0.6,0.4,,,,,,,,,,,,,,,0.2363,,0.8,0.2,0.2,0.8,0.2,0.8,0.4,0.6,1,0,,,,,,,,,,,,
,,66cf21fac640537abe16a607,66fc9b158cfd00dc61387fb1,2024-10-02_03h02.50.576,mdp,2024.2.1,Win32,144.9275362,66fa4ebf79326e780c390304,,,,,,,,,,,,,,,,,,,,,,,,,,,,,,,,,,,,,,,,,,,,,,,,,,,,,,,,544.7922,603.2957,0,1,1,4,1,imgs/goat.png,imgs/elephant.png,imgs/kangaroo.png,imgs/bear.png,imgs/lion.png,,,,,,,,,,,,,,,,,,,,,,,,
,,66cf21fac640537abe16a607,66fc9b158cfd00dc61387fb1,2024-10-02_03h02.50.576,mdp,2024.2.1,Win32,144.9275362,66fa4ebf79326e780c390304,,,,,,,,,,,,,,3,seqs/st3seq44.csv,603.2965,605.4601,space,1.6537,,605.4631,605.4631,605.4636,607.1251,0,1,left,1.1455,,607.1259,608.3461,0,1,left,608.3469,609.8099,0,0,left,1,609.8099,609.8099,609.8104,611.3085,0,0,0,0,1,0.4,0.6,0.8,0.2,,,,,,,,,,,,,,,0.7014,,0.8,0.2,0.8,0.2,0.6,0.4,0.4,0.6,,,0.9471,,0.2,0.8,0.4,0.6,0.6,0.4,0.8,0.2,1,0
,,66cf21fac640537abe16a607,66fc9b158cfd00dc61387fb1,2024-10-02_03h02.50.576,mdp,2024.2.1,Win32,144.9275362,66fa4ebf79326e780c390304,,,,,,,,,,,,,,,,,,,,,611.3089,611.3089,611.3096,612.9872,1,0,right,1.1656,,612.9882,614.3054,1,0,right,614.3059,615.3529,1,1,right,0,615.3529,615.3529,615.3533,616.8513,0,1,1,1,1,0.4,0.6,0.8,0.2,,,,,,,,,,,,,,,0.7991,,0.8,0.2,0.8,0.2,0.6,0.4,0.4,0.6,,,0.5316,,0.2,0.8,0.4,0.6,0.6,0.4,0.8,0.2,1,0
,,66cf21fac640537abe16a607,66fc9b158cfd00dc61387fb1,2024-10-02_03h02.50.576,mdp,2024.2.1,Win32,144.9275362,66fa4ebf79326e780c390304,,,,,,,,,,,,,,,,,,,,,616.8516,616.8517,616.8523,617.7325,0,1,left,0.3679,,617.733,618.7245,0,0,left,618.7251,619.8136,0,1,left,0,619.8136,619.8136,619.8143,621.3121,0,2,2,2,1,0.4,0.6,0.8,0.2,,,,,,,,,,,,,,,0.4752,,0.8,0.2,0.8,0.2,0.6,0.4,0.4,0.6,,,0.5772,,0.2,0.8,0.4,0.6,0.6,0.4,0.8,0.2,1,0
,,66cf21fac640537abe16a607,66fc9b158cfd00dc61387fb1,2024-10-02_03h02.50.576,mdp,2024.2.1,Win32,144.9275362,66fa4ebf79326e780c390304,,,,,,,,,,,,,,,,,,,,,621.3124,621.3124,621.3132,622.2696,1,0,right,0.4457,,622.2702,623.2547,1,0,right,623.2553,624.3786,1,1,right,0,624.3786,624.3786,624.3792,625.877,0,3,3,3,1,0.4,0.6,0.8,0.2,,,,,,,,,,,,,,,0.4693,,0.8,0.2,0.8,0.2,0.6,0.4,0.4,0.6,,,0.6149,,0.2,0.8,0.4,0.6,0.6,0.4,0.8,0.2,1,0
,,66cf21fac640537abe16a607,66fc9b158cfd00dc61387fb1,2024-10-02_03h02.50.576,mdp,2024.2.1,Win32,144.9275362,66fa4ebf79326e780c390304,,,,,,,,,,,,,,,,,,,,,625.8772,625.8772,625.8776,626.7511,0,1,left,0.3646,,626.7517,627.7917,0,0,left,627.7922,629.3249,0,1,left,0,629.325,629.325,629.3256,630.8234,0,4,4,4,1,0.4,0.6,0.8,0.2,,,,,,,,,,,,,,,0.52,,0.8,0.2,0.8,0.2,0.6,0.4,0.4,0.6,,,1.0221,,0.2,0.8,0.4,0.6,0.6,0.4,0.8,0.2,1,0
,,66cf21fac640537abe16a607,66fc9b158cfd00dc61387fb1,2024-10-02_03h02.50.576,mdp,2024.2.1,Win32,144.9275362,66fa4ebf79326e780c390304,,,,,,,,,,,,,,,,,,,,,630.8238,630.8238,630.8247,631.6005,0,1,left,0.2677,,631.6009,632.5162,0,1,left,632.5167,633.314,0,1,left,0,633.314,633.314,633.3147,634.8124,0,5,5,5,1,0.4,0.6,0.8,0.2,,,,,,,,,,,,,,,0.4076,,0.8,0.2,0.8,0.2,0.6,0.4,0.4,0.6,,,0.2774,,0.2,0.8,0.4,0.6,0.6,0.4,0.8,0.2,1,0
,,66cf21fac640537abe16a607,66fc9b158cfd00dc61387fb1,2024-10-02_03h02.50.576,mdp,2024.2.1,Win32,144.9275362,66fa4ebf79326e780c390304,,,,,,,,,,,,,,,,,,,,,634.8127,634.8127,634.8132,635.6588,1,0,right,0.3339,,635.6594,636.4566,1,1,right,636.4571,637.4278,1,0,right,1,637.4278,637.4278,637.4284,638.9262,0,6,6,6,1,0.4,0.6,0.8,0.2,,,,,,,,,,,,,,,0.2774,,0.6,0.4,0.2,0.8,0.6,0.4,0.4,0.6,,,0.4622,,0.2,0.8,0.4,0.6,0.6,0.4,0.8,0.2,1,0
,,66cf21fac640537abe16a607,66fc9b158cfd00dc61387fb1,2024-10-02_03h02.50.576,mdp,2024.2.1,Win32,144.9275362,66fa4ebf79326e780c390304,,,,,,,,,,,,,,,,,,,,,638.9265,638.9265,638.9269,640.0364,0,1,left,0.6005,,640.0368,641.0909,0,0,left,641.092,642.2147,0,0,left,1,642.2147,642.2147,642.2153,643.7131,0,7,7,7,1,0.4,0.6,0.8,0.2,,,,,,,,,,,,,,,0.5343,,0.6,0.4,0.2,0.8,0.6,0.4,0.4,0.6,,,0.6066,,0.2,0.8,0.4,0.6,0.6,0.4,0.8,0.2,1,0
,,66cf21fac640537abe16a607,66fc9b158cfd00dc61387fb1,2024-10-02_03h02.50.576,mdp,2024.2.1,Win32,144.9275362,66fa4ebf79326e780c390304,,,,,,,,,,,,,,,,,,,,,643.7134,643.7134,643.7139,645.2047,0,1,left,0.9818,,645.2052,646.0442,0,1,left,646.0449,647.05,1,1,right,0,647.05,647.05,647.0505,648.5486,0,8,8,8,1,0.4,0.6,0.8,0.2,,,,,,,,,,,,,,,0.3285,,0.6,0.4,0.2,0.8,0.2,0.8,0.6,0.4,,,0.4901,,0.2,0.8,0.4,0.6,0.6,0.4,0.8,0.2,1,0
,,66cf21fac640537abe16a607,66fc9b158cfd00dc61387fb1,2024-10-02_03h02.50.576,mdp,2024.2.1,Win32,144.9275362,66fa4ebf79326e780c390304,,,,,,,,,,,,,,,,,,,,,648.549,648.549,648.5502,649.4852,0,1,left,0.4235,,649.4861,650.5049,0,0,left,650.5054,652.1213,0,1,left,0,652.1214,652.1214,652.122,653.6198,0,9,9,9,1,0.4,0.6,0.8,0.2,,,,,,,,,,,,,,,0.5082,,0.6,0.4,0.2,0.8,0.2,0.8,0.6,0.4,,,1.097,,0.2,0.8,0.4,0.6,0.6,0.4,0.8,0.2,1,0
,,66cf21fac640537abe16a607,66fc9b158cfd00dc61387fb1,2024-10-02_03h02.50.576,mdp,2024.2.1,Win32,144.9275362,66fa4ebf79326e780c390304,,,,,,,,,,,,,,,,,,,,,653.6201,653.6201,653.6207,654.2234,1,0,right,0.0905,,654.224,655.0836,1,0,right,655.0842,655.8885,1,0,right,1,655.8885,655.8885,655.8893,657.3869,0,10,10,10,1,0.4,0.6,0.8,0.2,,,,,,,,,,,,,,,0.3404,,0.6,0.4,0.2,0.8,0.2,0.8,0.6,0.4,,,0.293,,0.2,0.8,0.4,0.6,0.6,0.4,0.8,0.2,1,0
,,66cf21fac640537abe16a607,66fc9b158cfd00dc61387fb1,2024-10-02_03h02.50.576,mdp,2024.2.1,Win32,144.9275362,66fa4ebf79326e780c390304,,,,,,,,,,,,,,,,,,,,,657.3873,657.3873,657.3879,658.1708,1,0,right,0.2707,,658.1714,658.9756,1,1,right,658.9762,659.7735,1,0,right,1,659.7736,659.7736,659.7742,661.2719,0,11,11,11,1,0.4,0.6,0.8,0.2,,,,,,,,,,,,,,,0.2918,,0.6,0.4,0.2,0.8,0.2,0.8,0.6,0.4,,,0.2805,,0.2,0.8,0.4,0.6,0.6,0.4,0.8,0.2,1,0
,,66cf21fac640537abe16a607,66fc9b158cfd00dc61387fb1,2024-10-02_03h02.50.576,mdp,2024.2.1,Win32,144.9275362,66fa4ebf79326e780c390304,,,,,,,,,,,,,,,,,,,,,661.2724,661.2724,661.2733,661.9933,0,0,left,0.2121,,661.9938,662.9715,0,0,left,662.9722,663.908,0,1,left,0,663.908,663.908,663.9086,665.4067,0,12,12,12,1,0.4,0.6,0.8,0.2,,,,,,,,,,,,,,,0.4696,,0.6,0.4,0.2,0.8,0.2,0.8,0.6,0.4,,,0.421,,0.2,0.8,0.4,0.6,0.6,0.4,0.8,0.2,1,0
,,66cf21fac640537abe16a607,66fc9b158cfd00dc61387fb1,2024-10-02_03h02.50.576,mdp,2024.2.1,Win32,144.9275362,66fa4ebf79326e780c390304,,,,,,,,,,,,,,,,,,,,,665.4069,665.4069,665.4078,666.2737,1,0,right,0.3546,,666.2743,667.0854,1,1,right,667.0864,667.8488,1,0,right,1,667.8488,667.8488,667.8493,669.3471,0,13,13,13,1,0.4,0.6,0.8,0.2,,,,,,,,,,,,,,,0.2991,,0.6,0.4,0.2,0.8,0.2,0.8,0.6,0.4,,,0.2478,,0.2,0.8,0.4,0.6,0.6,0.4,0.8,0.2,1,0
,,66cf21fac640537abe16a607,66fc9b158cfd00dc61387fb1,2024-10-02_03h02.50.576,mdp,2024.2.1,Win32,144.9275362,66fa4ebf79326e780c390304,,,,,,,,,,,,,,,,,,,,,669.3477,669.3477,669.3486,670.0962,1,0,right,0.2404,,670.0968,670.8941,1,1,right,670.8949,671.6919,1,1,right,0,671.6919,671.6919,671.6925,673.1904,0,14,14,14,1,0.4,0.6,0.8,0.2,,,,,,,,,,,,,,,0.2845,,0.6,0.4,0.2,0.8,0.2,0.8,0.6,0.4,,,0.2847,,0.2,0.8,0.4,0.6,0.6,0.4,0.8,0.2,1,0
,,66cf21fac640537abe16a607,66fc9b158cfd00dc61387fb1,2024-10-02_03h02.50.576,mdp,2024.2.1,Win32,144.9275362,66fa4ebf79326e780c390304,,,,,,,,,,,,,,,,,,,,,673.1906,673.1906,673.1913,674.1061,1,1,right,0.4052,,674.1068,674.8623,1,1,right,674.8629,675.5768,1,1,right,0,675.5768,675.5768,675.5776,677.0753,0,15,15,15,1,0.4,0.6,0.8,0.2,,,,,,,,,,,,,,,0.2358,,0.6,0.4,0.2,0.8,0.2,0.8,0.6,0.4,,,0.2031,,0.2,0.8,0.4,0.6,0.8,0.2,0.2,0.8,1,0
,,66cf21fac640537abe16a607,66fc9b158cfd00dc61387fb1,2024-10-02_03h02.50.576,mdp,2024.2.1,Win32,144.9275362,66fa4ebf79326e780c390304,,,,,,,,,,,,,,,,,,,,,677.0756,677.0756,677.0761,677.7829,0,0,left,0.1952,,677.7838,678.6224,0,1,left,678.6229,679.448,0,0,left,1,679.4481,679.4481,679.4489,680.9465,0,16,16,16,1,0.4,0.6,0.8,0.2,,,,,,,,,,,,,,,0.3207,,0.6,0.4,0.2,0.8,0.2,0.8,0.6,0.4,,,0.3123,,0.2,0.8,0.4,0.6,0.8,0.2,0.2,0.8,1,0
,,66cf21fac640537abe16a607,66fc9b158cfd00dc61387fb1,2024-10-02_03h02.50.576,mdp,2024.2.1,Win32,144.9275362,66fa4ebf79326e780c390304,,,,,,,,,,,,,,,,,,,,,680.9467,680.9467,680.9476,684.0752,1,1,right,2.616,,684.0758,685.2822,1,0,right,685.2828,686.4408,1,1,right,0,686.4408,686.4408,686.4415,687.9394,0,17,17,17,1,0.4,0.6,0.8,0.2,,,,,,,,,,,,,,,0.6909,,0.6,0.4,0.2,0.8,0.2,0.8,0.6,0.4,,,0.6392,,0.2,0.8,0.4,0.6,0.8,0.2,0.2,0.8,1,0
,,66cf21fac640537abe16a607,66fc9b158cfd00dc61387fb1,2024-10-02_03h02.50.576,mdp,2024.2.1,Win32,144.9275362,66fa4ebf79326e780c390304,,,,,,,,,,,,,,,,,,,,,687.9398,687.9399,687.9407,689.1048,0,1,left,0.6554,,689.1054,690.0344,0,1,left,690.035,691.0266,0,0,left,1,691.0266,691.0266,691.0272,692.5251,0,18,18,18,1,0.4,0.6,0.8,0.2,,,,,,,,,,,,,,,0.4211,,0.6,0.4,0.2,0.8,0.2,0.8,0.6,0.4,,,0.472,,0.2,0.8,0.4,0.6,0.8,0.2,0.2,0.8,1,0
,,66cf21fac640537abe16a607,66fc9b158cfd00dc61387fb1,2024-10-02_03h02.50.576,mdp,2024.2.1,Win32,144.9275362,66fa4ebf79326e780c390304,,,,,,,,,,,,,,,,,,,,,692.5253,692.5253,692.5259,693.6975,1,0,right,0.6609,,693.6982,694.8699,1,1,right,694.8705,696.4378,0,0,left,1,696.4378,696.4378,696.4384,697.9361,0,19,19,19,1,0.4,0.6,0.8,0.2,,,,,,,,,,,,,,,0.6536,,0.6,0.4,0.2,0.8,0.2,0.8,0.6,0.4,,,1.0556,,0.2,0.8,0.4,0.6,0.8,0.2,0.2,0.8,1,0
,,66cf21fac640537abe16a607,66fc9b158cfd00dc61387fb1,2024-10-02_03h02.50.576,mdp,2024.2.1,Win32,144.9275362,66fa4ebf79326e780c390304,,,,,,,,,,,,,,,,,,,,,697.9364,697.9364,697.9369,698.9282,1,1,right,0.4797,,698.9289,699.9758,1,1,right,699.9764,701.4049,0,0,left,1,701.4049,701.4049,701.4055,702.9035,0,20,20,20,1,0.4,0.6,0.8,0.2,,,,,,,,,,,,,,,0.5311,,0.6,0.4,0.2,0.8,0.2,0.8,0.6,0.4,,,0.9172,,0.2,0.8,0.4,0.6,0.8,0.2,0.2,0.8,1,0
,,66cf21fac640537abe16a607,66fc9b158cfd00dc61387fb1,2024-10-02_03h02.50.576,mdp,2024.2.1,Win32,144.9275362,66fa4ebf79326e780c390304,,,,,,,,,,,,,,,,,,,,,702.9039,702.9039,702.9047,703.7082,1,0,right,0.2917,,703.7088,705.1305,1,1,right,705.1314,706.0599,0,0,left,1,706.0599,706.0599,706.0605,707.5584,0,21,21,21,1,0.4,0.6,0.8,0.2,,,,,,,,,,,,,,,0.9029,,0.6,0.4,0.2,0.8,0.2,0.8,0.6,0.4,,,0.4189,,0.2,0.8,0.4,0.6,0.8,0.2,0.2,0.8,1,0
,,66cf21fac640537abe16a607,66fc9b158cfd00dc61387fb1,2024-10-02_03h02.50.576,mdp,2024.2.1,Win32,144.9275362,66fa4ebf79326e780c390304,,,,,,,,,,,,,,,,,,,,,707.5587,707.5588,707.5593,708.377,1,0,right,0.3053,,708.3776,709.3344,1,1,right,709.3352,710.4722,0,0,left,1,710.4723,710.4723,710.4729,711.9706,0,22,22,22,1,0.4,0.6,0.8,0.2,,,,,,,,,,,,,,,0.444,,0.6,0.4,0.2,0.8,0.2,0.8,0.6,0.4,,,0.6257,,0.2,0.8,0.4,0.6,0.8,0.2,0.2,0.8,1,0
,,66cf21fac640537abe16a607,66fc9b158cfd00dc61387fb1,2024-10-02_03h02.50.576,mdp,2024.2.1,Win32,144.9275362,66fa4ebf79326e780c390304,,,,,,,,,,,,,,,,,,,,,711.9708,711.9708,711.9716,712.7753,1,0,right,0.2933,,712.7766,713.7952,1,1,right,713.7959,714.7664,0,0,left,1,714.7665,714.7665,714.7671,716.2649,0,23,23,23,1,0.4,0.6,0.8,0.2,,,,,,,,,,,,,,,0.508,,0.6,0.4,0.2,0.8,0.2,0.8,0.6,0.4,,,0.4593,,0.2,0.8,0.4,0.6,0.8,0.2,0.2,0.8,1,0
,,66cf21fac640537abe16a607,66fc9b158cfd00dc61387fb1,2024-10-02_03h02.50.576,mdp,2024.2.1,Win32,144.9275362,66fa4ebf79326e780c390304,,,,,,,,,,,,,,,,,,,,,716.2651,716.2651,716.2657,717.035,1,0,right,0.2589,,717.0355,717.9368,1,1,right,717.9374,718.901,0,0,left,1,718.9011,718.9011,718.9016,720.3996,0,24,24,24,1,0.4,0.6,0.8,0.2,,,,,,,,,,,,,,,0.3922,,0.6,0.4,0.2,0.8,0.2,0.8,0.6,0.4,,,0.4545,,0.2,0.8,0.4,0.6,0.8,0.2,0.2,0.8,1,0
,,66cf21fac640537abe16a607,66fc9b158cfd00dc61387fb1,2024-10-02_03h02.50.576,mdp,2024.2.1,Win32,144.9275362,66fa4ebf79326e780c390304,,,,,,,,,,,,,,,,,,,,,720.3999,720.3999,720.4004,721.2251,1,0,right,0.3121,,721.2256,722.0577,1,1,right,722.0583,723.0358,0,1,left,0,723.0358,723.0358,723.0364,724.5343,0,25,25,25,1,0.4,0.6,0.8,0.2,,,,,,,,,,,,,,,0.3204,,0.6,0.4,0.2,0.8,0.2,0.8,0.6,0.4,,,0.4669,,0.2,0.8,0.4,0.6,0.8,0.2,0.2,0.8,1,0
,,66cf21fac640537abe16a607,66fc9b158cfd00dc61387fb1,2024-10-02_03h02.50.576,mdp,2024.2.1,Win32,144.9275362,66fa4ebf79326e780c390304,,,,,,,,,,,,,,,,,,,,,724.5347,724.5347,724.5357,725.3737,1,0,right,0.3272,,725.3742,726.4283,1,0,right,726.4288,727.7533,1,1,right,0,727.7533,727.7533,727.754,729.2518,0,26,26,26,1,0.4,0.6,0.8,0.2,,,,,,,,,,,,,,,0.5443,,0.4,0.6,0.4,0.6,0.2,0.8,0.6,0.4,,,0.8052,,0.2,0.8,0.4,0.6,0.8,0.2,0.2,0.8,1,0
,,66cf21fac640537abe16a607,66fc9b158cfd00dc61387fb1,2024-10-02_03h02.50.576,mdp,2024.2.1,Win32,144.9275362,66fa4ebf79326e780c390304,,,,,,,,,,,,,,,,,,,,,729.2522,729.2522,729.2529,730.0704,1,0,right,0.309,,730.071,731.1388,1,0,right,731.1395,732.1863,0,1,left,0,732.1864,732.1865,732.1874,733.6848,0,27,27,27,1,0.4,0.6,0.8,0.2,,,,,,,,,,,,,,,0.5553,,0.6,0.4,0.8,0.2,0.2,0.8,0.6,0.4,,,0.5343,,0.2,0.8,0.4,0.6,0.8,0.2,0.2,0.8,1,0
,,66cf21fac640537abe16a607,66fc9b158cfd00dc61387fb1,2024-10-02_03h02.50.576,mdp,2024.2.1,Win32,144.9275362,66fa4ebf79326e780c390304,,,,,,,,,,,,,,,,,,,,,733.685,733.685,733.6855,734.4896,1,0,right,0.2918,,734.4906,735.3222,1,0,right,735.3228,736.2794,1,1,right,0,736.2795,736.2795,736.28,737.7779,0,28,28,28,1,0.4,0.6,0.8,0.2,,,,,,,,,,,,,,,0.321,,0.6,0.4,0.8,0.2,0.2,0.8,0.6,0.4,,,0.4456,,0.2,0.8,0.4,0.6,0.8,0.2,0.2,0.8,1,0
,,66cf21fac640537abe16a607,66fc9b158cfd00dc61387fb1,2024-10-02_03h02.50.576,mdp,2024.2.1,Win32,144.9275362,66fa4ebf79326e780c390304,,,,,,,,,,,,,,,,,,,,,737.7785,737.7785,737.7794,738.6034,0,1,left,0.3126,,738.6042,739.4845,0,1,left,739.4851,740.8582,0,0,left,1,740.8582,740.8582,740.8587,742.3566,0,29,29,29,1,0.2,0.8,0.2,0.8,,,,,,,,,,,,,,,0.3634,,0.6,0.4,0.8,0.2,0.2,0.8,0.6,0.4,,,0.854,,0.2,0.8,0.4,0.6,0.8,0.2,0.2,0.8,1,0
,,66cf21fac640537abe16a607,66fc9b158cfd00dc61387fb1,2024-10-02_03h02.50.576,mdp,2024.2.1,Win32,144.9275362,66fa4ebf79326e780c390304,,,,,,,,,,,,,,,,,,,,,742.3569,742.3569,742.3576,743.8412,1,0,right,0.9714,,743.8419,744.6808,1,0,right,744.6813,745.6103,0,1,left,0,745.6103,745.6103,745.6108,747.1087,0,30,30,30,1,0.2,0.8,0.2,0.8,,,,,,,,,,,,,,,0.3208,,0.6,0.4,0.8,0.2,0.2,0.8,0.6,0.4,,,0.4098,,0.2,0.8,0.4,0.6,0.8,0.2,0.2,0.8,1,0
,,66cf21fac640537abe16a607,66fc9b158cfd00dc61387fb1,2024-10-02_03h02.50.576,mdp,2024.2.1,Win32,144.9275362,66fa4ebf79326e780c390304,,,,,,,,,,,,,,,,,,,,,747.109,747.109,747.1095,748.2605,0,0,left,0.639,,748.261,749.0651,0,0,left,749.0657,750.1891,0,1,left,0,750.1891,750.1891,750.1902,751.6875,0,31,31,31,1,0.2,0.8,0.2,0.8,,,,,,,,,,,,,,,0.2928,,0.6,0.4,0.8,0.2,0.2,0.8,0.6,0.4,,,0.6127,,0.2,0.8,0.4,0.6,0.2,0.8,0.8,0.2,1,0
,,66cf21fac640537abe16a607,66fc9b158cfd00dc61387fb1,2024-10-02_03h02.50.576,mdp,2024.2.1,Win32,144.9275362,66fa4ebf79326e780c390304,,,,,,,,,,,,,,,,,,,,,751.6878,751.6878,751.6882,752.631,1,1,right,0.4335,,752.6316,753.63,1,0,right,753.6305,754.8717,1,1,right,0,754.8718,754.8719,754.8724,756.3702,0,32,32,32,1,0.2,0.8,0.2,0.8,,,,,,,,,,,,,,,0.4796,,0.6,0.4,0.8,0.2,0.2,0.8,0.6,0.4,,,0.7281,,0.2,0.8,0.4,0.6,0.2,0.8,0.8,0.2,1,0
,,66cf21fac640537abe16a607,66fc9b158cfd00dc61387fb1,2024-10-02_03h02.50.576,mdp,2024.2.1,Win32,144.9275362,66fa4ebf79326e780c390304,,,,,,,,,,,,,,,,,,,,,756.3705,756.3705,756.3711,757.2305,0,0,left,0.3488,,757.2315,758.1948,0,0,left,758.1954,759.173,0,1,left,0,759.173,759.173,759.1742,760.6715,0,33,33,33,1,0.2,0.8,0.2,0.8,,,,,,,,,,,,,,,0.4447,,0.6,0.4,0.8,0.2,0.2,0.8,0.6,0.4,,,0.4667,,0.2,0.8,0.4,0.6,0.2,0.8,0.8,0.2,1,0
,,66cf21fac640537abe16a607,66fc9b158cfd00dc61387fb1,2024-10-02_03h02.50.576,mdp,2024.2.1,Win32,144.9275362,66fa4ebf79326e780c390304,,,,,,,,,,,,,,,,,,,,,760.6719,760.6719,760.6729,761.844,0,0,left,0.6593,,761.8447,762.6763,0,0,left,762.6769,763.7239,1,1,right,0,763.7239,763.7239,763.7244,765.2224,0,34,34,34,1,0.2,0.8,0.2,0.8,,,,,,,,,,,,,,,0.3198,,0.6,0.4,0.8,0.2,0.2,0.8,0.6,0.4,,,0.5355,,0.2,0.8,0.4,0.6,0.2,0.8,0.8,0.2,1,0
,,66cf21fac640537abe16a607,66fc9b158cfd00dc61387fb1,2024-10-02_03h02.50.576,mdp,2024.2.1,Win32,144.9275362,66fa4ebf79326e780c390304,,,,,,,,,,,,,,,,,,,,,765.2227,765.2227,765.2233,765.9995,1,1,right,0.264,,766.0002,766.9221,1,1,right,766.9226,768.1084,0,0,left,1,768.1085,768.1085,768.109,769.6069,0,35,35,35,1,0.2,0.8,0.2,0.8,,,,,,,,,,,,,,,0.4023,,0.6,0.4,0.8,0.2,0.2,0.8,0.6,0.4,,,0.6656,,0.2,0.8,0.4,0.6,0.8,0.2,0.6,0.4,1,0
,,66cf21fac640537abe16a607,66fc9b158cfd00dc61387fb1,2024-10-02_03h02.50.576,mdp,2024.2.1,Win32,144.9275362,66fa4ebf79326e780c390304,,,,,,,,,,,,,,,,,,,,,769.6071,769.6071,769.6076,770.599,1,1,right,0.4814,,770.5997,771.466,1,1,right,771.4666,772.4165,0,0,left,1,772.4165,772.4165,772.417,773.9151,0,36,36,36,1,0.2,0.8,0.2,0.8,,,,,,,,,,,,,,,0.3589,,0.6,0.4,0.8,0.2,0.2,0.8,0.6,0.4,,,0.4415,,0.2,0.8,0.4,0.6,0.8,0.2,0.6,0.4,1,0
,,66cf21fac640537abe16a607,66fc9b158cfd00dc61387fb1,2024-10-02_03h02.50.576,mdp,2024.2.1,Win32,144.9275362,66fa4ebf79326e780c390304,,,,,,,,,,,,,,,,,,,,,773.9155,773.9155,773.916,774.6783,1,1,right,0.2502,,774.6791,775.5939,1,1,right,775.5945,776.4889,0,0,left,1,776.4889,776.489,776.4902,777.9876,0,37,37,37,1,0.2,0.8,0.2,0.8,,,,,,,,,,,,,,,0.4046,,0.6,0.4,0.8,0.2,0.2,0.8,0.6,0.4,,,0.3858,,0.2,0.8,0.4,0.6,0.8,0.2,0.6,0.4,1,0
,,66cf21fac640537abe16a607,66fc9b158cfd00dc61387fb1,2024-10-02_03h02.50.576,mdp,2024.2.1,Win32,144.9275362,66fa4ebf79326e780c390304,,,,,,,,,,,,,,,,,,,,,777.9882,777.9882,777.9897,778.806,1,1,right,0.3084,,778.8066,779.6869,1,0,right,779.6874,780.5541,0,1,left,0,780.5542,780.5542,780.5546,782.0527,0,38,38,38,1,0.2,0.8,0.2,0.8,,,,,,,,,,,,,,,0.3686,,0.6,0.4,0.8,0.2,0.2,0.8,0.6,0.4,,,0.3511,,0.2,0.8,0.4,0.6,0.2,0.8,0.8,0.2,1,0
,,66cf21fac640537abe16a607,66fc9b158cfd00dc61387fb1,2024-10-02_03h02.50.576,mdp,2024.2.1,Win32,144.9275362,66fa4ebf79326e780c390304,,,,,,,,,,,,,,,,,,,,,782.0532,782.0532,782.0543,782.8366,1,1,right,0.271,,782.8371,783.6206,1,0,right,783.6212,784.8762,1,0,right,1,784.8762,784.8762,784.8768,786.3747,0,39,39,39,1,0.2,0.8,0.2,0.8,,,,,,,,,,,,,,,0.2731,,0.8,0.2,0.6,0.4,0.2,0.8,0.6,0.4,,,0.7458,,0.2,0.8,0.4,0.6,0.2,0.8,0.8,0.2,1,0
,,66cf21fac640537abe16a607,66fc9b158cfd00dc61387fb1,2024-10-02_03h02.50.576,mdp,2024.2.1,Win32,144.9275362,66fa4ebf79326e780c390304,,,,,,,,,,,,,,,,,,,,,786.375,786.375,786.3755,787.117,1,1,right,0.2305,,787.1176,787.9425,1,1,right,787.9431,789.0457,0,1,left,0,789.0457,789.0458,789.0462,790.5441,0,40,40,40,1,0.2,0.8,0.2,0.8,,,,,,,,,,,,,,,0.3136,,0.8,0.2,0.6,0.4,0.2,0.8,0.6,0.4,,,0.5879,,0.2,0.8,0.4,0.6,0.2,0.8,0.8,0.2,1,0
,,66cf21fac640537abe16a607,66fc9b158cfd00dc61387fb1,2024-10-02_03h02.50.576,mdp,2024.2.1,Win32,144.9275362,66fa4ebf79326e780c390304,,,,,,,,,,,,,,,,,,,,,790.5446,790.5446,790.5458,791.3907,1,1,right,0.3377,,791.3916,792.2022,1,1,right,792.2031,793.1317,0,1,left,0,793.1319,793.1319,793.1329,794.6302,0,41,41,41,1,0.2,0.8,0.2,0.8,,,,,,,,,,,,,,,0.3027,,0.8,0.2,0.6,0.4,0.2,0.8,0.6,0.4,,,0.4163,,0.2,0.8,0.4,0.6,0.2,0.8,0.8,0.2,1,0
,,66cf21fac640537abe16a607,66fc9b158cfd00dc61387fb1,2024-10-02_03h02.50.576,mdp,2024.2.1,Win32,144.9275362,66fa4ebf79326e780c390304,,,,,,,,,,,,,,,,,,,,,794.6306,794.6306,794.6311,795.428,1,1,right,0.2884,,795.4286,796.2744,1,1,right,796.2749,797.3359,0,1,left,0,797.3359,797.3359,797.3369,798.8343,0,42,42,42,1,0.2,0.8,0.2,0.8,,,,,,,,,,,,,,,0.3346,,0.8,0.2,0.6,0.4,0.2,0.8,0.6,0.4,,,0.5492,,0.2,0.8,0.4,0.6,0.2,0.8,0.8,0.2,1,0
,,66cf21fac640537abe16a607,66fc9b158cfd00dc61387fb1,2024-10-02_03h02.50.576,mdp,2024.2.1,Win32,144.9275362,66fa4ebf79326e780c390304,,,,,,,,,,,,,,,,,,,,,798.8346,798.8346,798.8354,799.6321,1,0,right,0.2889,,799.6326,800.5131,1,0,right,800.5137,801.5885,1,1,right,0,801.5885,801.5885,801.589,803.087,0,43,43,43,1,0.2,0.8,0.2,0.8,,,,,,,,,,,,,,,0.3619,,0.8,0.2,0.6,0.4,0.6,0.4,0.2,0.8,,,0.5584,,0.2,0.8,0.4,0.6,0.2,0.8,0.8,0.2,1,0
,,66cf21fac640537abe16a607,66fc9b158cfd00dc61387fb1,2024-10-02_03h02.50.576,mdp,2024.2.1,Win32,144.9275362,66fa4ebf79326e780c390304,,,,,,,,,,,,,,,,,,,,,803.0872,803.0872,803.0876,803.9195,0,0,left,0.3238,,803.92,804.759,0,0,left,804.7597,806.3892,0,1,left,0,806.3892,806.3892,806.3898,807.8876,0,44,44,44,1,0.2,0.8,0.2,0.8,,,,,,,,,,,,,,,0.3285,,0.8,0.2,0.6,0.4,0.6,0.4,0.2,0.8,,,1.1177,,0.2,0.8,0.4,0.6,0.2,0.8,0.8,0.2,1,0
,,66cf21fac640537abe16a607,66fc9b158cfd00dc61387fb1,2024-10-02_03h02.50.576,mdp,2024.2.1,Win32,144.9275362,66fa4ebf79326e780c390304,,,,,,,,,,,,,,,,,,,,,807.8879,807.8879,807.8884,808.5052,1,0,right,0.1082,,808.5058,809.3308,1,0,right,809.3317,810.3574,1,0,right,1,810.3574,810.3574,810.3579,811.8559,0,45,45,45,1,0.2,0.8,0.2,0.8,,,,,,,,,,,,,,,0.3129,,0.8,0.2,0.6,0.4,0.6,0.4,0.2,0.8,,,0.5181,,0.2,0.8,0.4,0.6,0.2,0.8,0.8,0.2,1,0
,,66cf21fac640537abe16a607,66fc9b158cfd00dc61387fb1,2024-10-02_03h02.50.576,mdp,2024.2.1,Win32,144.9275362,66fa4ebf79326e780c390304,,,,,,,,,,,,,,,,,,,,,811.8561,811.8561,811.8566,812.6746,1,1,right,0.3045,,812.6757,813.5625,1,0,right,813.5633,814.7766,1,0,right,1,814.7766,814.7766,814.7771,816.275,0,46,46,46,1,0.2,0.8,0.2,0.8,,,,,,,,,,,,,,,0.3678,,0.8,0.2,0.6,0.4,0.6,0.4,0.2,0.8,,,0.7042,,0.2,0.8,0.4,0.6,0.2,0.8,0.8,0.2,1,0
,,66cf21fac640537abe16a607,66fc9b158cfd00dc61387fb1,2024-10-02_03h02.50.576,mdp,2024.2.1,Win32,144.9275362,66fa4ebf79326e780c390304,,,,,,,,,,,,,,,,,,,,,816.2753,816.2753,816.2758,817.0243,1,1,right,0.2389,,817.0249,817.9054,1,0,right,817.906,818.828,1,1,right,0,818.8281,818.8281,818.829,820.3266,0,47,47,47,1,0.2,0.8,0.2,0.8,,,,,,,,,,,,,,,0.3701,,0.8,0.2,0.6,0.4,0.6,0.4,0.2,0.8,,,0.4104,,0.2,0.8,0.4,0.6,0.2,0.8,0.8,0.2,1,0
,,66cf21fac640537abe16a607,66fc9b158cfd00dc61387fb1,2024-10-02_03h02.50.576,mdp,2024.2.1,Win32,144.9275362,66fa4ebf79326e780c390304,,,,,,,,,,,,,,,,,,,,,820.327,820.327,820.3278,821.1382,1,1,right,0.2986,,821.1386,821.8319,1,1,right,821.8325,822.8864,0,1,left,0,822.8864,822.8864,822.8869,824.3849,0,48,48,48,1,0.2,0.8,0.2,0.8,,,,,,,,,,,,,,,0.1845,,0.8,0.2,0.6,0.4,0.6,0.4,0.2,0.8,,,0.5378,,0.2,0.8,0.4,0.6,0.2,0.8,0.8,0.2,1,0
,,66cf21fac640537abe16a607,66fc9b158cfd00dc61387fb1,2024-10-02_03h02.50.576,mdp,2024.2.1,Win32,144.9275362,66fa4ebf79326e780c390304,,,,,,,,,,,,,,,,,,,,,824.3852,824.3852,824.3859,825.3424,1,1,right,0.445,,825.3434,826.0499,1,1,right,826.0505,827.0142,1,0,right,1,827.0143,827.0143,827.0152,828.5127,0,49,49,49,1,0.2,0.8,0.2,0.8,,,,,,,,,,,,,,,0.195,,0.8,0.2,0.6,0.4,0.6,0.4,0.2,0.8,,,0.4516,,0.2,0.8,0.4,0.6,0.2,0.8,0.8,0.2,1,0
,,66cf21fac640537abe16a607,66fc9b158cfd00dc61387fb1,2024-10-02_03h02.50.576,mdp,2024.2.1,Win32,144.9275362,66fa4ebf79326e780c390304,,,,,,,,,,,,,,,,,,,,,,,,,,,,,,,,,,,,,,,,,,,,,,,,,,,,,,,,828.5129,887.0162,0,2,2,6,1,imgs/giraffe.png,imgs/horse.png,imgs/lion.png,imgs/elephant.png,imgs/rabbit.png,,,,,,,,,,,,,,,,,,,,,,,,
,,66cf21fac640537abe16a607,66fc9b158cfd00dc61387fb1,2024-10-02_03h02.50.576,mdp,2024.2.1,Win32,144.9275362,66fa4ebf79326e780c390304,,,,,,,,,,,,,,3,seqs/st3seq2.csv,887.0166,890.804,space,3.2799,,890.8069,890.8069,890.8072,892.9753,0,0,left,1.6549,,892.9758,894.0854,0,0,left,894.0859,895.1815,0,0,left,1,895.1815,895.1815,895.182,896.6799,0,0,0,0,1,0.6,0.4,0.4,0.6,,,,,,,,,,,,,,,0.5945,,0.4,0.6,0.4,0.6,0.4,0.6,0.6,0.4,,,0.5769,,0.4,0.6,0.2,0.8,0.2,0.8,0.8,0.2,1,0
,,66cf21fac640537abe16a607,66fc9b158cfd00dc61387fb1,2024-10-02_03h02.50.576,mdp,2024.2.1,Win32,144.9275362,66fa4ebf79326e780c390304,,,,,,,,,,,,,,,,,,,,,896.6802,896.6802,896.6807,898.8236,0,0,left,1.6313,,898.8242,899.559,0,1,left,899.5596,900.7383,1,0,right,1,900.7384,900.7384,900.7391,902.2369,0,1,1,1,1,0.6,0.4,0.4,0.6,,,,,,,,,,,,,,,0.2226,,0.4,0.6,0.4,0.6,0.4,0.6,0.6,0.4,,,0.6625,,0.4,0.6,0.2,0.8,0.2,0.8,0.8,0.2,1,0
,,66cf21fac640537abe16a607,66fc9b158cfd00dc61387fb1,2024-10-02_03h02.50.576,mdp,2024.2.1,Win32,144.9275362,66fa4ebf79326e780c390304,,,,,,,,,,,,,,,,,,,,,902.2372,902.2372,902.238,903.0764,0,1,left,0.3261,,903.0772,903.8256,0,1,left,903.8262,904.8523,0,1,left,0,904.8523,904.8523,904.8529,906.3507,0,2,2,2,1,0.6,0.4,0.4,0.6,,,,,,,,,,,,,,,0.2309,,0.4,0.6,0.4,0.6,0.4,0.6,0.6,0.4,,,0.5156,,0.4,0.6,0.2,0.8,0.2,0.8,0.8,0.2,1,0
,,66cf21fac640537abe16a607,66fc9b158cfd00dc61387fb1,2024-10-02_03h02.50.576,mdp,2024.2.1,Win32,144.9275362,66fa4ebf79326e780c390304,,,,,,,,,,,,,,,,,,,,,906.351,906.351,906.3514,907.1279,1,1,right,0.2667,,907.1285,907.9602,1,0,right,907.9614,909.32,0,1,left,0,909.32,909.32,909.3208,910.8185,0,3,3,3,1,0.6,0.4,0.4,0.6,,,,,,,,,,,,,,,0.3196,,0.4,0.6,0.4,0.6,0.6,0.4,0.2,0.8,,,0.8391,,0.4,0.6,0.2,0.8,0.2,0.8,0.8,0.2,1,0
,,66cf21fac640537abe16a607,66fc9b158cfd00dc61387fb1,2024-10-02_03h02.50.576,mdp,2024.2.1,Win32,144.9275362,66fa4ebf79326e780c390304,,,,,,,,,,,,,,,,,,,,,910.8188,910.8188,910.8194,911.5816,1,0,right,0.25,,911.5829,912.3656,1,1,right,912.3667,913.42,1,0,right,1,913.4202,913.4202,913.4206,914.9185,0,4,4,4,1,0.6,0.4,0.4,0.6,,,,,,,,,,,,,,,0.2629,,0.4,0.6,0.4,0.6,0.6,0.4,0.2,0.8,,,0.539,,0.4,0.6,0.2,0.8,0.2,0.8,0.8,0.2,1,0
,,66cf21fac640537abe16a607,66fc9b158cfd00dc61387fb1,2024-10-02_03h02.50.576,mdp,2024.2.1,Win32,144.9275362,66fa4ebf79326e780c390304,,,,,,,,,,,,,,,,,,,,,914.9187,914.9187,914.9191,915.6538,1,1,right,0.2266,,915.6545,916.4169,1,1,right,916.4176,917.3952,1,0,right,1,917.3952,917.3952,917.3958,918.8936,0,5,5,5,1,0.6,0.4,0.4,0.6,,,,,,,,,,,,,,,0.2443,,0.4,0.6,0.4,0.6,0.6,0.4,0.2,0.8,,,0.4663,,0.4,0.6,0.2,0.8,0.2,0.8,0.8,0.2,1,0
,,66cf21fac640537abe16a607,66fc9b158cfd00dc61387fb1,2024-10-02_03h02.50.576,mdp,2024.2.1,Win32,144.9275362,66fa4ebf79326e780c390304,,,,,,,,,,,,,,,,,,,,,918.8939,918.8939,918.8943,919.5943,1,1,right,0.1905,,919.5948,920.3158,1,1,right,920.3168,921.183,1,1,right,0,921.1832,921.1832,921.1837,922.6815,0,6,6,6,1,0.6,0.4,0.4,0.6,,,,,,,,,,,,,,,0.211,,0.4,0.6,0.4,0.6,0.6,0.4,0.2,0.8,,,0.3547,,0.4,0.6,0.2,0.8,0.2,0.8,0.8,0.2,1,0
,,66cf21fac640537abe16a607,66fc9b158cfd00dc61387fb1,2024-10-02_03h02.50.576,mdp,2024.2.1,Win32,144.9275362,66fa4ebf79326e780c390304,,,,,,,,,,,,,,,,,,,,,922.682,922.682,922.6826,923.4377,1,0,right,0.2459,,923.4387,924.18,1,0,right,924.1806,925.4288,0,1,left,0,925.4288,925.4289,925.4297,926.9271,0,7,7,7,1,0.6,0.4,0.4,0.6,,,,,,,,,,,,,,,0.2255,,0.4,0.6,0.4,0.6,0.6,0.4,0.2,0.8,,,0.7291,,0.4,0.6,0.2,0.8,0.2,0.8,0.8,0.2,1,0
,,66cf21fac640537abe16a607,66fc9b158cfd00dc61387fb1,2024-10-02_03h02.50.576,mdp,2024.2.1,Win32,144.9275362,66fa4ebf79326e780c390304,,,,,,,,,,,,,,,,,,,,,926.9274,926.9274,926.9279,927.6418,1,1,right,0.2014,,927.6423,928.3563,1,0,right,928.3568,929.0916,1,1,right,0,929.0917,929.0917,929.0922,930.5901,0,8,8,8,1,0.6,0.4,0.4,0.6,,,,,,,,,,,,,,,0.1963,,0.4,0.6,0.4,0.6,0.6,0.4,0.2,0.8,,,0.2264,,0.4,0.6,0.2,0.8,0.2,0.8,0.8,0.2,1,0
,,66cf21fac640537abe16a607,66fc9b158cfd00dc61387fb1,2024-10-02_03h02.50.576,mdp,2024.2.1,Win32,144.9275362,66fa4ebf79326e780c390304,,,,,,,,,,,,,,,,,,,,,930.5904,930.5904,930.5914,931.3533,0,1,left,0.252,,931.3538,932.0816,0,1,left,932.0822,932.9836,0,1,left,0,932.9836,932.9837,932.9843,934.482,0,9,9,9,1,0.6,0.4,0.4,0.6,,,,,,,,,,,,,,,0.2191,,0.4,0.6,0.4,0.6,0.6,0.4,0.2,0.8,,,0.3819,,0.4,0.6,0.2,0.8,0.2,0.8,0.8,0.2,1,0
,,66cf21fac640537abe16a607,66fc9b158cfd00dc61387fb1,2024-10-02_03h02.50.576,mdp,2024.2.1,Win32,144.9275362,66fa4ebf79326e780c390304,,,,,,,,,,,,,,,,,,,,,934.4824,934.4824,934.4829,935.2522,1,1,right,0.2608,,935.2527,936.0708,0,0,left,936.0716,936.9448,1,1,right,0,936.9448,936.9448,936.9453,938.4433,0,10,10,10,1,0.6,0.4,0.4,0.6,,,,,,,,,,,,,,,0.3055,,0.4,0.6,0.4,0.6,0.6,0.4,0.2,0.8,,,0.3583,,0.4,0.6,0.2,0.8,0.2,0.8,0.8,0.2,1,0
,,66cf21fac640537abe16a607,66fc9b158cfd00dc61387fb1,2024-10-02_03h02.50.576,mdp,2024.2.1,Win32,144.9275362,66fa4ebf79326e780c390304,,,,,,,,,,,,,,,,,,,,,938.4438,938.4438,938.4445,939.3038,0,0,left,0.3491,,939.3044,940.3304,0,1,left,940.3313,941.5443,0,1,left,0,941.5444,941.5444,941.545,943.0429,0,11,11,11,1,0.6,0.4,0.4,0.6,,,,,,,,,,,,,,,0.5077,,0.4,0.6,0.4,0.6,0.6,0.4,0.2,0.8,,,0.6988,,0.4,0.6,0.2,0.8,0.2,0.8,0.8,0.2,1,0
,,66cf21fac640537abe16a607,66fc9b158cfd00dc61387fb1,2024-10-02_03h02.50.576,mdp,2024.2.1,Win32,144.9275362,66fa4ebf79326e780c390304,,,,,,,,,,,,,,,,,,,,,943.0433,943.0433,943.0445,943.8893,1,1,right,0.3357,,943.8904,945.0825,1,0,right,945.083,946.019,1,1,right,0,946.0191,946.0191,946.0198,947.5175,0,12,12,12,1,0.6,0.4,0.4,0.6,,,,,,,,,,,,,,,0.6732,,0.4,0.6,0.4,0.6,0.6,0.4,0.2,0.8,,,0.418,,0.4,0.6,0.2,0.8,0.2,0.8,0.8,0.2,1,0
,,66cf21fac640537abe16a607,66fc9b158cfd00dc61387fb1,2024-10-02_03h02.50.576,mdp,2024.2.1,Win32,144.9275362,66fa4ebf79326e780c390304,,,,,,,,,,,,,,,,,,,,,947.5177,947.5177,947.5182,948.6415,0,1,left,0.6112,,948.6422,950.3202,1,1,right,950.3207,951.3471,0,1,left,0,951.3471,951.3471,951.348,952.8455,0,13,13,13,1,0.6,0.4,0.4,0.6,,,,,,,,,,,,,,,1.1697,,0.4,0.6,0.4,0.6,0.6,0.4,0.2,0.8,,,0.5076,,0.4,0.6,0.2,0.8,0.2,0.8,0.8,0.2,1,0
,,66cf21fac640537abe16a607,66fc9b158cfd00dc61387fb1,2024-10-02_03h02.50.576,mdp,2024.2.1,Win32,144.9275362,66fa4ebf79326e780c390304,,,,,,,,,,,,,,,,,,,,,952.846,952.846,952.8469,953.7056,1,0,right,0.3469,,953.7062,954.5105,1,1,right,954.5119,955.3014,1,0,right,1,955.3014,955.3014,955.302,956.7997,0,14,14,14,1,0.6,0.4,0.4,0.6,,,,,,,,,,,,,,,0.2855,,0.2,0.8,0.2,0.8,0.6,0.4,0.2,0.8,,,0.2804,,0.4,0.6,0.2,0.8,0.2,0.8,0.8,0.2,1,0
,,66cf21fac640537abe16a607,66fc9b158cfd00dc61387fb1,2024-10-02_03h02.50.576,mdp,2024.2.1,Win32,144.9275362,66fa4ebf79326e780c390304,,,,,,,,,,,,,,,,,,,,,956.7999,956.8,956.8004,957.5699,1,0,right,0.2577,,957.5711,958.2705,1,1,right,958.2711,959.0059,1,1,right,0,959.006,959.006,959.0065,960.5044,0,15,15,15,1,0.6,0.4,0.4,0.6,,,,,,,,,,,,,,,0.1905,,0.2,0.8,0.2,0.8,0.6,0.4,0.2,0.8,,,0.2219,,0.4,0.6,0.2,0.8,0.2,0.8,0.8,0.2,1,0
,,66cf21fac640537abe16a607,66fc9b158cfd00dc61387fb1,2024-10-02_03h02.50.576,mdp,2024.2.1,Win32,144.9275362,66fa4ebf79326e780c390304,,,,,,,,,,,,,,,,,,,,,960.5048,960.5048,960.5052,961.1496,1,0,right,0.1349,,961.1502,961.9196,1,1,right,961.9203,962.6898,1,0,right,1,962.6898,962.6898,962.6904,964.1882,0,16,16,16,1,0.6,0.4,0.4,0.6,,,,,,,,,,,,,,,0.2594,,0.2,0.8,0.2,0.8,0.6,0.4,0.2,0.8,,,0.258,,0.4,0.6,0.2,0.8,0.2,0.8,0.8,0.2,1,0
,,66cf21fac640537abe16a607,66fc9b158cfd00dc61387fb1,2024-10-02_03h02.50.576,mdp,2024.2.1,Win32,144.9275362,66fa4ebf79326e780c390304,,,,,,,,,,,,,,,,,,,,,964.1884,964.1884,964.189,964.9513,1,0,right,0.254,,964.9519,965.7075,1,1,right,965.7081,966.6093,1,0,right,1,966.6093,966.6094,966.6101,968.1079,0,17,17,17,1,0.6,0.4,0.4,0.6,,,,,,,,,,,,,,,0.2462,,0.2,0.8,0.2,0.8,0.6,0.4,0.2,0.8,,,0.3916,,0.4,0.6,0.2,0.8,0.8,0.2,0.6,0.4,1,0
,,66cf21fac640537abe16a607,66fc9b158cfd00dc61387fb1,2024-10-02_03h02.50.576,mdp,2024.2.1,Win32,144.9275362,66fa4ebf79326e780c390304,,,,,,,,,,,,,,,,,,,,,968.1081,968.1081,968.1088,968.8987,1,1,right,0.2779,,968.8993,969.8977,1,1,right,969.8988,970.765,0,0,left,1,970.7651,970.7651,970.7658,972.2634,0,18,18,18,1,0.6,0.4,0.4,0.6,,,,,,,,,,,,,,,0.4793,,0.2,0.8,0.2,0.8,0.6,0.4,0.2,0.8,,,0.3549,,0.4,0.6,0.2,0.8,0.8,0.2,0.6,0.4,1,0
,,66cf21fac640537abe16a607,66fc9b158cfd00dc61387fb1,2024-10-02_03h02.50.576,mdp,2024.2.1,Win32,144.9275362,66fa4ebf79326e780c390304,,,,,,,,,,,,,,,,,,,,,972.2637,972.2637,972.2643,972.9849,1,0,right,0.2116,,972.9854,973.9839,1,1,right,973.9844,974.9136,1,0,right,1,974.9136,974.9136,974.9141,976.4121,0,19,19,19,1,0.8,0.2,0.2,0.8,,,,,,,,,,,,,,,0.4787,,0.2,0.8,0.2,0.8,0.6,0.4,0.2,0.8,,,0.4168,,0.4,0.6,0.2,0.8,0.8,0.2,0.6,0.4,1,0
,,66cf21fac640537abe16a607,66fc9b158cfd00dc61387fb1,2024-10-02_03h02.50.576,mdp,2024.2.1,Win32,144.9275362,66fa4ebf79326e780c390304,,,,,,,,,,,,,,,,,,,,,976.4124,976.4124,976.4131,977.1612,1,0,right,0.2368,,977.1618,978.1254,1,1,right,978.126,979.6657,0,0,left,1,979.6657,979.6657,979.6663,981.1641,0,20,20,20,1,0.8,0.2,0.2,0.8,,,,,,,,,,,,,,,0.4505,,0.2,0.8,0.2,0.8,0.6,0.4,0.2,0.8,,,1.0274,,0.4,0.6,0.2,0.8,0.8,0.2,0.6,0.4,1,0
,,66cf21fac640537abe16a607,66fc9b158cfd00dc61387fb1,2024-10-02_03h02.50.576,mdp,2024.2.1,Win32,144.9275362,66fa4ebf79326e780c390304,,,,,,,,,,,,,,,,,,,,,981.1644,981.1644,981.1647,981.9272,1,1,right,0.2528,,981.9278,982.7389,1,1,right,982.7395,983.9182,0,0,left,1,983.9183,983.9183,983.9189,985.4167,0,21,21,21,1,0.8,0.2,0.2,0.8,,,,,,,,,,,,,,,0.2921,,0.2,0.8,0.2,0.8,0.6,0.4,0.2,0.8,,,0.6697,,0.4,0.6,0.2,0.8,0.8,0.2,0.6,0.4,1,0
,,66cf21fac640537abe16a607,66fc9b158cfd00dc61387fb1,2024-10-02_03h02.50.576,mdp,2024.2.1,Win32,144.9275362,66fa4ebf79326e780c390304,,,,,,,,,,,,,,,,,,,,,985.417,985.417,985.4175,986.0481,1,1,right,0.1186,,986.0486,986.8943,1,1,right,986.895,987.845,0,0,left,1,987.845,987.845,987.8458,989.3434,0,22,22,22,1,0.8,0.2,0.2,0.8,,,,,,,,,,,,,,,0.337,,0.2,0.8,0.2,0.8,0.6,0.4,0.2,0.8,,,0.4373,,0.4,0.6,0.2,0.8,0.8,0.2,0.6,0.4,1,0
,,66cf21fac640537abe16a607,66fc9b158cfd00dc61387fb1,2024-10-02_03h02.50.576,mdp,2024.2.1,Win32,144.9275362,66fa4ebf79326e780c390304,,,,,,,,,,,,,,,,,,,,,989.3438,989.3438,989.3445,990.1204,1,1,right,0.2653,,990.1209,991.0291,1,0,right,991.0297,992.3889,0,0,left,1,992.389,992.389,992.3896,993.8874,0,23,23,23,1,0.8,0.2,0.2,0.8,,,,,,,,,,,,,,,0.3985,,0.2,0.8,0.2,0.8,0.6,0.4,0.2,0.8,,,0.8392,,0.4,0.6,0.2,0.8,0.8,0.2,0.6,0.4,1,0
,,66cf21fac640537abe16a607,66fc9b158cfd00dc61387fb1,2024-10-02_03h02.50.576,mdp,2024.2.1,Win32,144.9275362,66fa4ebf79326e780c390304,,,,,,,,,,,,,,,,,,,,,993.8876,993.8877,993.8882,994.6089,1,1,right,0.2084,,994.61,995.5038,1,0,right,995.5042,996.7318,0,1,left,0,996.7318,996.7318,996.7324,998.2302,0,24,24,24,1,0.8,0.2,0.2,0.8,,,,,,,,,,,,,,,0.3864,,0.2,0.8,0.2,0.8,0.6,0.4,0.2,0.8,,,0.7165,,0.4,0.6,0.2,0.8,0.8,0.2,0.6,0.4,1,0
,,66cf21fac640537abe16a607,66fc9b158cfd00dc61387fb1,2024-10-02_03h02.50.576,mdp,2024.2.1,Win32,144.9275362,66fa4ebf79326e780c390304,,,,,,,,,,,,,,,,,,,,,998.2304,998.2304,998.2308,998.9031,1,1,right,0.1639,,998.9036,999.7287,1,1,right,999.7298,1001.2619,0,0,left,1,1001.262,1001.262,1001.2627,1002.7604,0,25,25,25,1,0.8,0.2,0.2,0.8,,,,,,,,,,,,,,,0.3132,,0.2,0.8,0.2,0.8,0.6,0.4,0.2,0.8,,,1.0137,,0.4,0.6,0.2,0.8,0.8,0.2,0.6,0.4,1,0
,,66cf21fac640537abe16a607,66fc9b158cfd00dc61387fb1,2024-10-02_03h02.50.576,mdp,2024.2.1,Win32,144.9275362,66fa4ebf79326e780c390304,,,,,,,,,,,,,,,,,,,,,1002.7607,1002.7607,1002.7612,1003.5236,1,1,right,0.2527,,1003.5241,1004.5571,1,0,right,1004.5577,1005.5771,0,1,left,0,1005.5771,1005.5771,1005.5776,1007.0754,0,26,26,26,1,0.8,0.2,0.2,0.8,,,,,,,,,,,,,,,0.525,,0.2,0.8,0.2,0.8,0.4,0.6,0.6,0.4,,,0.5043,,0.4,0.6,0.2,0.8,0.8,0.2,0.6,0.4,1,0
,,66cf21fac640537abe16a607,66fc9b158cfd00dc61387fb1,2024-10-02_03h02.50.576,mdp,2024.2.1,Win32,144.9275362,66fa4ebf79326e780c390304,,,,,,,,,,,,,,,,,,,,,1007.0756,1007.0756,1007.0761,1007.8593,1,1,right,0.2709,,1007.8599,1009.7741,1,0,right,1009.7746,1011.12,0,0,left,1,1011.12,1011.12,1011.1206,1012.6184,0,27,27,27,1,0.8,0.2,0.2,0.8,,,,,,,,,,,,,,,1.4057,,0.2,0.8,0.2,0.8,0.4,0.6,0.6,0.4,,,0.8336,,0.4,0.6,0.2,0.8,0.8,0.2,0.6,0.4,1,0
,,66cf21fac640537abe16a607,66fc9b158cfd00dc61387fb1,2024-10-02_03h02.50.576,mdp,2024.2.1,Win32,144.9275362,66fa4ebf79326e780c390304,,,,,,,,,,,,,,,,,,,,,1012.619,1012.619,1012.6201,1013.1596,1,1,right,0.0312,,1013.1601,1014.2766,1,1,right,1014.2778,1015.8513,1,0,right,1,1015.8513,1015.8513,1015.8519,1017.3498,0,28,28,28,1,0.8,0.2,0.2,0.8,,,,,,,,,,,,,,,0.6034,,0.2,0.8,0.2,0.8,0.4,0.6,0.6,0.4,,,1.0549,,0.4,0.6,0.2,0.8,0.8,0.2,0.6,0.4,1,0
,,66cf21fac640537abe16a607,66fc9b158cfd00dc61387fb1,2024-10-02_03h02.50.576,mdp,2024.2.1,Win32,144.9275362,66fa4ebf79326e780c390304,,,,,,,,,,,,,,,,,,,,,1017.3501,1017.3501,1017.3505,1018.1267,1,1,right,0.2681,,1018.1272,1019.1536,1,0,right,1019.1541,1020.4162,0,0,left,1,1020.4162,1020.4162,1020.4167,1021.9146,0,29,29,29,1,0.8,0.2,0.2,0.8,,,,,,,,,,,,,,,0.5134,,0.2,0.8,0.2,0.8,0.4,0.6,0.6,0.4,,,0.7453,,0.4,0.6,0.2,0.8,0.8,0.2,0.6,0.4,1,0
,,66cf21fac640537abe16a607,66fc9b158cfd00dc61387fb1,2024-10-02_03h02.50.576,mdp,2024.2.1,Win32,144.9275362,66fa4ebf79326e780c390304,,,,,,,,,,,,,,,,,,,,,1021.9149,1021.9149,1021.9158,1022.5667,1,1,right,0.1399,,1022.5672,1023.4894,1,0,right,1023.49,1024.5439,1,0,right,1,1024.5439,1024.5439,1024.5449,1026.0423,0,30,30,30,1,0.8,0.2,0.2,0.8,,,,,,,,,,,,,,,0.4129,,0.2,0.8,0.2,0.8,0.4,0.6,0.6,0.4,,,0.5444,,0.4,0.6,0.2,0.8,0.8,0.2,0.6,0.4,1,0
,,66cf21fac640537abe16a607,66fc9b158cfd00dc61387fb1,2024-10-02_03h02.50.576,mdp,2024.2.1,Win32,144.9275362,66fa4ebf79326e780c390304,,,,,,,,,,,,,,,,,,,,,1026.0427,1026.0427,1026.0433,1026.993,1,1,right,0.4391,,1026.994,1027.9641,1,0,right,1027.9648,1028.8936,0,1,left,0,1028.8936,1028.8937,1028.8942,1030.3921,0,31,31,31,1,0.8,0.2,0.2,0.8,,,,,,,,,,,,,,,0.4593,,0.2,0.8,0.2,0.8,0.4,0.6,0.6,0.4,,,0.4192,,0.4,0.6,0.2,0.8,0.8,0.2,0.6,0.4,1,0
,,66cf21fac640537abe16a607,66fc9b158cfd00dc61387fb1,2024-10-02_03h02.50.576,mdp,2024.2.1,Win32,144.9275362,66fa4ebf79326e780c390304,,,,,,,,,,,,,,,,,,,,,1030.3924,1030.3924,1030.3928,1032.064,1,1,right,1.159,,1032.0647,1033.0562,1,0,right,1033.0568,1033.9581,1,1,right,0,1033.9581,1033.9581,1033.9586,1035.4565,0,32,32,32,1,0.8,0.2,0.2,0.8,,,,,,,,,,,,,,,0.481,,0.2,0.8,0.2,0.8,0.4,0.6,0.6,0.4,,,0.3928,,0.4,0.6,0.2,0.8,0.8,0.2,0.6,0.4,1,0
,,66cf21fac640537abe16a607,66fc9b158cfd00dc61387fb1,2024-10-02_03h02.50.576,mdp,2024.2.1,Win32,144.9275362,66fa4ebf79326e780c390304,,,,,,,,,,,,,,,,,,,,,1035.4569,1035.4569,1035.458,1036.3999,1,1,right,0.4345,,1036.4005,1037.1909,1,0,right,1037.1915,1038.1343,0,0,left,1,1038.1344,1038.1344,1038.135,1039.6329,0,33,33,33,1,0.8,0.2,0.2,0.8,,,,,,,,,,,,,,,0.2825,,0.2,0.8,0.2,0.8,0.4,0.6,0.6,0.4,,,0.4326,,0.4,0.6,0.2,0.8,0.8,0.2,0.6,0.4,1,0
,,66cf21fac640537abe16a607,66fc9b158cfd00dc61387fb1,2024-10-02_03h02.50.576,mdp,2024.2.1,Win32,144.9275362,66fa4ebf79326e780c390304,,,,,,,,,,,,,,,,,,,,,1039.6336,1039.6336,1039.6347,1040.4029,1,0,right,0.2563,,1040.4035,1041.2147,1,1,right,1041.2154,1042.5535,0,1,left,0,1042.5535,1042.5536,1042.5543,1044.052,0,34,34,34,1,0.8,0.2,0.2,0.8,,,,,,,,,,,,,,,0.2945,,0.2,0.8,0.2,0.8,0.4,0.6,0.6,0.4,,,0.823,,0.4,0.6,0.2,0.8,0.8,0.2,0.6,0.4,1,0
,,66cf21fac640537abe16a607,66fc9b158cfd00dc61387fb1,2024-10-02_03h02.50.576,mdp,2024.2.1,Win32,144.9275362,66fa4ebf79326e780c390304,,,,,,,,,,,,,,,,,,,,,1044.0523,1044.0523,1044.0528,1044.7804,1,1,right,0.2199,,1044.7809,1045.613,1,0,right,1045.6137,1046.8478,0,1,left,0,1046.8478,1046.8478,1046.8488,1048.3462,0,35,35,35,1,0.8,0.2,0.2,0.8,,,,,,,,,,,,,,,0.3145,,0.2,0.8,0.2,0.8,0.4,0.6,0.6,0.4,,,0.7152,,0.4,0.6,0.2,0.8,0.8,0.2,0.6,0.4,1,0
,,66cf21fac640537abe16a607,66fc9b158cfd00dc61387fb1,2024-10-02_03h02.50.576,mdp,2024.2.1,Win32,144.9275362,66fa4ebf79326e780c390304,,,,,,,,,,,,,,,,,,,,,1048.3465,1048.3465,1048.3469,1049.1025,1,0,right,0.2432,,1049.1039,1049.9211,1,0,right,1049.9223,1050.809,1,1,right,0,1050.8091,1050.8091,1050.8096,1052.3075,0,36,36,36,1,0.8,0.2,0.2,0.8,,,,,,,,,,,,,,,0.299,,0.2,0.8,0.2,0.8,0.4,0.6,0.6,0.4,,,0.3753,,0.4,0.6,0.2,0.8,0.8,0.2,0.6,0.4,1,0
,,66cf21fac640537abe16a607,66fc9b158cfd00dc61387fb1,2024-10-02_03h02.50.576,mdp,2024.2.1,Win32,144.9275362,66fa4ebf79326e780c390304,,,,,,,,,,,,,,,,,,,,,1052.3079,1052.3079,1052.3087,1053.1123,1,0,right,0.2915,,1053.1127,1054.0073,1,0,right,1054.0078,1055.2074,1,1,right,0,1055.2074,1055.2074,1055.208,1056.7059,0,37,37,37,1,0.8,0.2,0.2,0.8,,,,,,,,,,,,,,,0.3836,,0.2,0.8,0.2,0.8,0.4,0.6,0.6,0.4,,,0.6869,,0.4,0.6,0.2,0.8,0.8,0.2,0.6,0.4,1,0
,,66cf21fac640537abe16a607,66fc9b158cfd00dc61387fb1,2024-10-02_03h02.50.576,mdp,2024.2.1,Win32,144.9275362,66fa4ebf79326e780c390304,,,,,,,,,,,,,,,,,,,,,1056.7061,1056.7062,1056.7067,1057.4759,1,1,right,0.2579,,1057.4765,1058.3015,1,1,right,1058.3021,1059.2797,0,0,left,1,1059.2797,1059.2797,1059.2802,1060.7782,0,38,38,38,1,0.8,0.2,0.2,0.8,,,,,,,,,,,,,,,0.305,,0.2,0.8,0.2,0.8,0.4,0.6,0.6,0.4,,,0.4625,,0.4,0.6,0.2,0.8,0.8,0.2,0.6,0.4,1,0
,,66cf21fac640537abe16a607,66fc9b158cfd00dc61387fb1,2024-10-02_03h02.50.576,mdp,2024.2.1,Win32,144.9275362,66fa4ebf79326e780c390304,,,,,,,,,,,,,,,,,,,,,1060.7784,1060.7784,1060.7788,1061.5551,1,1,right,0.2659,,1061.5557,1062.3738,1,1,right,1062.375,1063.2271,1,0,right,1,1063.2271,1063.2271,1063.2277,1064.7255,0,39,39,39,1,0.8,0.2,0.2,0.8,,,,,,,,,,,,,,,0.3067,,0.2,0.8,0.2,0.8,0.4,0.6,0.6,0.4,,,0.3412,,0.4,0.6,0.2,0.8,0.8,0.2,0.6,0.4,1,0
,,66cf21fac640537abe16a607,66fc9b158cfd00dc61387fb1,2024-10-02_03h02.50.576,mdp,2024.2.1,Win32,144.9275362,66fa4ebf79326e780c390304,,,,,,,,,,,,,,,,,,,,,1064.7257,1064.7257,1064.7264,1065.5303,1,1,right,0.2917,,1065.5308,1066.3905,1,0,right,1066.3912,1067.445,0,1,left,0,1067.445,1067.445,1067.4457,1068.9436,0,40,40,40,1,0.8,0.2,0.2,0.8,,,,,,,,,,,,,,,0.3497,,0.4,0.6,0.6,0.4,0.4,0.6,0.6,0.4,,,0.5384,,0.4,0.6,0.2,0.8,0.8,0.2,0.6,0.4,1,0
,,66cf21fac640537abe16a607,66fc9b158cfd00dc61387fb1,2024-10-02_03h02.50.576,mdp,2024.2.1,Win32,144.9275362,66fa4ebf79326e780c390304,,,,,,,,,,,,,,,,,,,,,1068.9442,1068.9442,1068.9448,1088.8887,1,1,right,19.4329,,1088.8894,1089.4853,1,1,right,1089.4858,1090.1166,1,1,right,0,1090.1167,1090.1167,1090.1172,1091.6151,0,41,41,41,1,0.8,0.2,0.2,0.8,,,,,,,,,,,,,,,0.087,,0.4,0.6,0.6,0.4,0.4,0.6,0.6,0.4,,,0.1137,,0.4,0.6,0.2,0.8,0.8,0.2,0.6,0.4,1,0
,,66cf21fac640537abe16a607,66fc9b158cfd00dc61387fb1,2024-10-02_03h02.50.576,mdp,2024.2.1,Win32,144.9275362,66fa4ebf79326e780c390304,,,,,,,,,,,,,,,,,,,,,1091.6154,1091.6154,1091.6159,1092.3227,1,0,right,0.1946,,1092.3231,1093.0026,1,1,right,1093.0034,1093.6477,1,0,right,1,1093.6478,1093.6478,1093.6485,1095.1462,0,42,42,42,1,0.8,0.2,0.2,0.8,,,,,,,,,,,,,,,0.1639,,0.8,0.2,0.2,0.8,0.4,0.6,0.6,0.4,,,0.1324,,0.4,0.6,0.2,0.8,0.8,0.2,0.6,0.4,1,0
,,66cf21fac640537abe16a607,66fc9b158cfd00dc61387fb1,2024-10-02_03h02.50.576,mdp,2024.2.1,Win32,144.9275362,66fa4ebf79326e780c390304,,,,,,,,,,,,,,,,,,,,,1095.1465,1095.1465,1095.147,1095.9302,1,1,right,0.2743,,1095.9308,1096.6517,1,1,right,1096.6522,1097.2553,0,0,left,1,1097.2554,1097.2554,1097.2563,1098.7537,0,43,43,43,1,0.8,0.2,0.2,0.8,,,,,,,,,,,,,,,0.2018,,0.8,0.2,0.2,0.8,0.4,0.6,0.6,0.4,,,0.0913,,0.4,0.6,0.2,0.8,0.8,0.2,0.6,0.4,1,0
,,66cf21fac640537abe16a607,66fc9b158cfd00dc61387fb1,2024-10-02_03h02.50.576,mdp,2024.2.1,Win32,144.9275362,66fa4ebf79326e780c390304,,,,,,,,,,,,,,,,,,,,,1098.754,1098.754,1098.7546,1099.607,1,1,right,0.3402,,1099.6076,1100.3356,1,1,right,1100.3362,1101.0501,1,1,right,0,1101.0501,1101.0501,1101.051,1102.5485,0,44,44,44,1,0.8,0.2,0.2,0.8,,,,,,,,,,,,,,,0.2168,,0.8,0.2,0.2,0.8,0.4,0.6,0.6,0.4,,,0.2038,,0.4,0.6,0.2,0.8,0.6,0.4,0.4,0.6,1,0
,,66cf21fac640537abe16a607,66fc9b158cfd00dc61387fb1,2024-10-02_03h02.50.576,mdp,2024.2.1,Win32,144.9275362,66fa4ebf79326e780c390304,,,,,,,,,,,,,,,,,,,,,1102.5488,1102.5488,1102.5494,1103.1243,1,1,right,0.0636,,1103.1249,1103.8528,1,1,right,1103.8537,1104.5395,1,1,right,0,1104.5395,1104.5395,1104.5402,1106.038,0,45,45,45,1,0.8,0.2,0.2,0.8,,,,,,,,,,,,,,,0.2155,,0.8,0.2,0.2,0.8,0.4,0.6,0.6,0.4,,,0.1746,,0.4,0.6,0.2,0.8,0.6,0.4,0.4,0.6,1,0
,,66cf21fac640537abe16a607,66fc9b158cfd00dc61387fb1,2024-10-02_03h02.50.576,mdp,2024.2.1,Win32,144.9275362,66fa4ebf79326e780c390304,,,,,,,,,,,,,,,,,,,,,1106.0384,1106.0384,1106.0388,1106.7665,1,1,right,0.2158,,1106.767,1107.7031,1,0,right,1107.7044,1108.2186,0,1,left,0,1108.2187,1108.2187,1108.2192,1109.7149,0,46,46,46,1,0.8,0.2,0.2,0.8,,,,,,,,,,,,,,,0.4233,,0.8,0.2,0.2,0.8,0.4,0.6,0.6,0.4,,,0.0002,,0.4,0.6,0.2,0.8,0.6,0.4,0.4,0.6,1,0
,,66cf21fac640537abe16a607,66fc9b158cfd00dc61387fb1,2024-10-02_03h02.50.576,mdp,2024.2.1,Win32,144.9275362,66fa4ebf79326e780c390304,,,,,,,,,,,,,,,,,,,,,1109.7153,1109.7153,1109.716,1110.5544,1,1,right,0.326,,1110.5551,1111.2758,1,1,right,1111.2764,1111.9764,1,1,right,0,1111.9765,1111.9765,1111.9771,1113.4749,0,47,47,47,1,0.8,0.2,0.2,0.8,,,,,,,,,,,,,,,0.2101,,0.8,0.2,0.2,0.8,0.4,0.6,0.6,0.4,,,0.1822,,0.4,0.6,0.2,0.8,0.6,0.4,0.4,0.6,1,0
,,66cf21fac640537abe16a607,66fc9b158cfd00dc61387fb1,2024-10-02_03h02.50.576,mdp,2024.2.1,Win32,144.9275362,66fa4ebf79326e780c390304,,,,,,,,,,,,,,,,,,,,,1113.4751,1113.4751,1113.4755,1114.1964,0,0,left,0.2106,,1114.1969,1114.9388,1,1,right,1114.9398,1115.6949,1,1,right,0,1115.695,1115.695,1115.6955,1117.1934,0,48,48,48,1,0.8,0.2,0.2,0.8,,,,,,,,,,,,,,,0.2227,,0.8,0.2,0.2,0.8,0.4,0.6,0.6,0.4,,,0.2435,,0.4,0.6,0.2,0.8,0.6,0.4,0.4,0.6,1,0
,,66cf21fac640537abe16a607,66fc9b158cfd00dc61387fb1,2024-10-02_03h02.50.576,mdp,2024.2.1,Win32,144.9275362,66fa4ebf79326e780c390304,,,,,,,,,,,,,,,,,,,,,1117.1935,1117.1935,1117.1941,1118.04,1,1,right,0.3351,,1118.0408,1118.7681,1,0,right,1118.7687,1119.4412,1,1,right,0,1119.4412,1119.4412,1119.4418,1120.9396,0,49,49,49,1,0.8,0.2,0.2,0.8,,,,,,,,,,,,,,,0.2117,,0.8,0.2,0.2,0.8,0.4,0.6,0.6,0.4,,,0.1567,,0.4,0.6,0.2,0.8,0.6,0.4,0.4,0.6,1,0
,,66cf21fac640537abe16a607,66fc9b158cfd00dc61387fb1,2024-10-02_03h02.50.576,mdp,2024.2.1,Win32,144.9275362,66fa4ebf79326e780c390304,,,,,,,,,,,,,,,,,,,,,,,,,,,,,,,,,,,,,,,,,,,,,,,,,,,,,,,,1120.9397,1179.443,0,3,3,1,1,imgs/rabbit.png,imgs/squirrel.png,imgs/dog.png,imgs/elephant.png,imgs/giraffe.png,,,,,,,,,,,,,,,,,,,,,,,,
,,66cf21fac640537abe16a607,66fc9b158cfd00dc61387fb1,2024-10-02_03h02.50.576,mdp,2024.2.1,Win32,144.9275362,66fa4ebf79326e780c390304,,,,,,,,,,,,,,1,seqs/st1seq38.csv,1179.4437,1184.4034,space,4.4486,,1184.4057,1184.4057,1184.4061,1187.4072,1,0,right,2.4873,,1187.4077,1187.408,1,0,,1187.4085,1187.4086,1,0,,1,1187.4086,1187.4086,1187.4088,1188.9058,0,0,0,0,1,0.6,0.4,0.8,0.2,1,0,,,,,,,,,,,,,,,,,,,,,,,,,,,,,,,,,,,,
,,66cf21fac640537abe16a607,66fc9b158cfd00dc61387fb1,2024-10-02_03h02.50.576,mdp,2024.2.1,Win32,144.9275362,66fa4ebf79326e780c390304,,,,,,,,,,,,,,,,,,,,,1188.906,1188.906,1188.9068,1189.8215,1,0,right,0.407,,1189.822,1189.8224,1,0,,1189.8227,1189.823,1,0,,1,1189.823,1189.823,1189.8231,1191.32,0,1,1,1,1,0.4,0.6,0.6,0.4,1,0,,,,,,,,,,,,,,,,,,,,,,,,,,,,,,,,,,,,
,,66cf21fac640537abe16a607,66fc9b158cfd00dc61387fb1,2024-10-02_03h02.50.576,mdp,2024.2.1,Win32,144.9275362,66fa4ebf79326e780c390304,,,,,,,,,,,,,,,,,,,,,1191.3203,1191.3203,1191.3211,1192.1524,1,1,right,0.3204,,1192.153,1192.1533,1,0,,1192.1536,1192.1539,1,1,,0,1192.1539,1192.1539,1192.1541,1193.6509,0,2,2,2,1,0.4,0.6,0.6,0.4,1,0,,,,,,,,,,,,,,,,,,,,,,,,,,,,,,,,,,,,
,,66cf21fac640537abe16a607,66fc9b158cfd00dc61387fb1,2024-10-02_03h02.50.576,mdp,2024.2.1,Win32,144.9275362,66fa4ebf79326e780c390304,,,,,,,,,,,,,,,,,,,,,1193.6512,1193.6512,1193.6517,1194.4696,1,0,right,0.3102,,1194.4701,1194.4705,1,0,,1194.4707,1194.4708,1,0,,1,1194.4708,1194.4708,1194.471,1195.9681,0,3,3,3,1,0.4,0.6,0.6,0.4,1,0,,,,,,,,,,,,,,,,,,,,,,,,,,,,,,,,,,,,
,,66cf21fac640537abe16a607,66fc9b158cfd00dc61387fb1,2024-10-02_03h02.50.576,mdp,2024.2.1,Win32,144.9275362,66fa4ebf79326e780c390304,,,,,,,,,,,,,,,,,,,,,1195.9682,1195.9682,1195.9688,1196.7382,0,1,left,0.2574,,1196.7388,1196.7392,1,1,,1196.7394,1196.7396,1,0,,0,1196.7396,1196.7396,1196.7397,1198.2366,0,4,4,4,1,0.6,0.4,0.4,0.6,1,0,,,,,,,,,,,,,,,,,,,,,,,,,,,,,,,,,,,,
,,66cf21fac640537abe16a607,66fc9b158cfd00dc61387fb1,2024-10-02_03h02.50.576,mdp,2024.2.1,Win32,144.9275362,66fa4ebf79326e780c390304,,,,,,,,,,,,,,,,,,,,,1198.237,1198.237,1198.2378,1198.9442,1,1,right,0.1946,,1198.9448,1198.9452,1,0,,1198.9454,1198.9456,1,1,,0,1198.9456,1198.9456,1198.9458,1200.4427,0,5,5,5,1,0.4,0.6,0.8,0.2,1,0,,,,,,,,,,,,,,,,,,,,,,,,,,,,,,,,,,,,
,,66cf21fac640537abe16a607,66fc9b158cfd00dc61387fb1,2024-10-02_03h02.50.576,mdp,2024.2.1,Win32,144.9275362,66fa4ebf79326e780c390304,,,,,,,,,,,,,,,,,,,,,1200.4429,1200.4429,1200.4434,1201.1087,0,1,left,0.1556,,1201.1093,1201.1097,1,0,,1201.11,1201.1101,1,1,,0,1201.1102,1201.1102,1201.1104,1202.6072,0,6,6,6,1,0.4,0.6,0.8,0.2,1,0,,,,,,,,,,,,,,,,,,,,,,,,,,,,,,,,,,,,
,,66cf21fac640537abe16a607,66fc9b158cfd00dc61387fb1,2024-10-02_03h02.50.576,mdp,2024.2.1,Win32,144.9275362,66fa4ebf79326e780c390304,,,,,,,,,,,,,,,,,,,,,1202.6075,1202.6075,1202.6081,1203.1483,0,1,left,0.0274,,1203.1489,1203.1495,1,1,,1203.1498,1203.15,1,0,,0,1203.15,1203.15,1203.1502,1204.6468,0,7,7,7,1,0.4,0.6,0.8,0.2,1,0,,,,,,,,,,,,,,,,,,,,,,,,,,,,,,,,,,,,
,,66cf21fac640537abe16a607,66fc9b158cfd00dc61387fb1,2024-10-02_03h02.50.576,mdp,2024.2.1,Win32,144.9275362,66fa4ebf79326e780c390304,,,,,,,,,,,,,,,,,,,,,1204.647,1204.647,1204.6475,1205.7082,0,1,left,0.5506,,1205.7088,1205.7092,1,1,,1205.7095,1205.7095,1,1,,0,1205.7096,1205.7096,1205.7098,1207.2067,0,8,8,8,1,0.4,0.6,0.8,0.2,1,0,,,,,,,,,,,,,,,,,,,,,,,,,,,,,,,,,,,,
,,66cf21fac640537abe16a607,66fc9b158cfd00dc61387fb1,2024-10-02_03h02.50.576,mdp,2024.2.1,Win32,144.9275362,66fa4ebf79326e780c390304,,,,,,,,,,,,,,,,,,,,,1207.207,1207.207,1207.2074,1207.7478,1,1,right,0.0275,,1207.7484,1207.7487,1,0,,1207.749,1207.7491,1,1,,0,1207.7491,1207.7491,1207.7493,1209.2463,0,9,9,9,1,0.4,0.6,0.8,0.2,1,0,,,,,,,,,,,,,,,,,,,,,,,,,,,,,,,,,,,,
,,66cf21fac640537abe16a607,66fc9b158cfd00dc61387fb1,2024-10-02_03h02.50.576,mdp,2024.2.1,Win32,144.9275362,66fa4ebf79326e780c390304,,,,,,,,,,,,,,,,,,,,,1209.2466,1209.2466,1209.2473,1209.954,0,0,left,0.1986,,1209.9545,1209.9548,1,1,,1209.9552,1209.9554,1,1,,1,1209.9554,1209.9554,1209.9556,1211.4524,0,10,10,10,1,0.4,0.6,0.8,0.2,1,0,,,,,,,,,,,,,,,,,,,,,,,,,,,,,,,,,,,,
,,66cf21fac640537abe16a607,66fc9b158cfd00dc61387fb1,2024-10-02_03h02.50.576,mdp,2024.2.1,Win32,144.9275362,66fa4ebf79326e780c390304,,,,,,,,,,,,,,,,,,,,,1211.4528,1211.4528,1211.4536,1212.389,0,0,left,0.4289,,1212.3897,1212.3901,1,1,,1212.3904,1212.3906,1,0,,1,1212.3906,1212.3906,1212.3907,1213.8875,0,11,11,11,1,0.4,0.6,0.8,0.2,1,0,,,,,,,,,,,,,,,,,,,,,,,,,,,,,,,,,,,,
,,66cf21fac640537abe16a607,66fc9b158cfd00dc61387fb1,2024-10-02_03h02.50.576,mdp,2024.2.1,Win32,144.9275362,66fa4ebf79326e780c390304,,,,,,,,,,,,,,,,,,,,,1213.8878,1213.8878,1213.8884,1214.5119,1,0,right,0.111,,1214.5125,1214.5129,1,0,,1214.5133,1214.5135,1,0,,1,1214.5135,1214.5135,1214.5137,1216.0103,0,12,12,12,1,0.4,0.6,0.8,0.2,1,0,,,,,,,,,,,,,,,,,,,,,,,,,,,,,,,,,,,,
,,66cf21fac640537abe16a607,66fc9b158cfd00dc61387fb1,2024-10-02_03h02.50.576,mdp,2024.2.1,Win32,144.9275362,66fa4ebf79326e780c390304,,,,,,,,,,,,,,,,,,,,,1216.0105,1216.0105,1216.0112,1216.7041,0,0,left,0.1811,,1216.7046,1216.705,1,0,,1216.7052,1216.7055,1,0,,1,1216.7055,1216.7055,1216.7056,1218.2025,0,13,13,13,1,0.8,0.2,0.6,0.4,1,0,,,,,,,,,,,,,,,,,,,,,,,,,,,,,,,,,,,,
,,66cf21fac640537abe16a607,66fc9b158cfd00dc61387fb1,2024-10-02_03h02.50.576,mdp,2024.2.1,Win32,144.9275362,66fa4ebf79326e780c390304,,,,,,,,,,,,,,,,,,,,,1218.2028,1218.2028,1218.2033,1218.9587,0,0,left,0.2471,,1218.9592,1218.9596,1,1,,1218.9599,1218.9601,1,0,,1,1218.9601,1218.9601,1218.9603,1220.4573,0,14,14,14,1,0.8,0.2,0.6,0.4,1,0,,,,,,,,,,,,,,,,,,,,,,,,,,,,,,,,,,,,
,,66cf21fac640537abe16a607,66fc9b158cfd00dc61387fb1,2024-10-02_03h02.50.576,mdp,2024.2.1,Win32,144.9275362,66fa4ebf79326e780c390304,,,,,,,,,,,,,,,,,,,,,1220.4574,1220.4574,1220.4579,1221.1718,0,1,left,0.2053,,1221.1723,1221.1725,1,0,,1221.1728,1221.1729,1,0,,0,1221.1729,1221.1729,1221.1731,1222.6702,0,15,15,15,1,0.8,0.2,0.6,0.4,1,0,,,,,,,,,,,,,,,,,,,,,,,,,,,,,,,,,,,,
,,66cf21fac640537abe16a607,66fc9b158cfd00dc61387fb1,2024-10-02_03h02.50.576,mdp,2024.2.1,Win32,144.9275362,66fa4ebf79326e780c390304,,,,,,,,,,,,,,,,,,,,,1222.6707,1222.6707,1222.6715,1223.2946,1,0,right,0.1144,,1223.2953,1223.296,1,1,,1223.2963,1223.2964,1,1,,1,1223.2965,1223.2965,1223.2966,1224.7932,0,16,16,16,1,0.8,0.2,0.6,0.4,1,0,,,,,,,,,,,,,,,,,,,,,,,,,,,,,,,,,,,,
,,66cf21fac640537abe16a607,66fc9b158cfd00dc61387fb1,2024-10-02_03h02.50.576,mdp,2024.2.1,Win32,144.9275362,66fa4ebf79326e780c390304,,,,,,,,,,,,,,,,,,,,,1224.7934,1224.7935,1224.7939,1225.3828,1,0,right,0.0802,,1225.3833,1225.3837,1,0,,1225.3839,1225.3841,1,1,,1,1225.3841,1225.3841,1225.3843,1226.8812,0,17,17,17,1,0.4,0.6,0.8,0.2,1,0,,,,,,,,,,,,,,,,,,,,,,,,,,,,,,,,,,,,
,,66cf21fac640537abe16a607,66fc9b158cfd00dc61387fb1,2024-10-02_03h02.50.576,mdp,2024.2.1,Win32,144.9275362,66fa4ebf79326e780c390304,,,,,,,,,,,,,,,,,,,,,1226.8815,1226.8815,1226.8823,1227.4988,1,0,right,0.106,,1227.4996,1227.5003,1,0,,1227.5006,1227.5008,1,0,,1,1227.5008,1227.5008,1227.5009,1228.9972,0,18,18,18,1,0.4,0.6,0.8,0.2,1,0,,,,,,,,,,,,,,,,,,,,,,,,,,,,,,,,,,,,
,,66cf21fac640537abe16a607,66fc9b158cfd00dc61387fb1,2024-10-02_03h02.50.576,mdp,2024.2.1,Win32,144.9275362,66fa4ebf79326e780c390304,,,,,,,,,,,,,,,,,,,,,1228.9974,1228.9974,1228.9979,1229.5592,0,1,left,0.0515,,1229.5602,1229.5606,1,1,,1229.5608,1229.561,1,1,,0,1229.561,1229.561,1229.5612,1231.0576,0,19,19,19,1,0.2,0.8,0.6,0.4,1,0,,,,,,,,,,,,,,,,,,,,,,,,,,,,,,,,,,,,
,,66cf21fac640537abe16a607,66fc9b158cfd00dc61387fb1,2024-10-02_03h02.50.576,mdp,2024.2.1,Win32,144.9275362,66fa4ebf79326e780c390304,,,,,,,,,,,,,,,,,,,,,1231.0581,1231.0581,1231.0592,1231.6543,1,1,right,0.0837,,1231.6549,1231.6554,1,1,,1231.6556,1231.6558,1,0,,0,1231.6559,1231.6559,1231.656,1233.1528,0,20,20,20,1,0.2,0.8,0.6,0.4,1,0,,,,,,,,,,,,,,,,,,,,,,,,,,,,,,,,,,,,
,,66cf21fac640537abe16a607,66fc9b158cfd00dc61387fb1,2024-10-02_03h02.50.576,mdp,2024.2.1,Win32,144.9275362,66fa4ebf79326e780c390304,,,,,,,,,,,,,,,,,,,,,1233.1532,1233.1532,1233.1543,1234.1101,1,0,right,0.4448,,1234.1107,1234.1111,1,0,,1234.1114,1234.1117,1,0,,1,1234.1117,1234.1117,1234.1119,1235.6086,0,21,21,21,1,0.2,0.8,0.6,0.4,1,0,,,,,,,,,,,,,,,,,,,,,,,,,,,,,,,,,,,,
,,66cf21fac640537abe16a607,66fc9b158cfd00dc61387fb1,2024-10-02_03h02.50.576,mdp,2024.2.1,Win32,144.9275362,66fa4ebf79326e780c390304,,,,,,,,,,,,,,,,,,,,,1235.6088,1235.6088,1235.6093,1236.2815,1,0,right,0.1606,,1236.2821,1236.2827,1,0,,1236.283,1236.2832,1,1,,1,1236.2832,1236.2832,1236.2834,1237.78,0,22,22,22,1,0.2,0.8,0.6,0.4,1,0,,,,,,,,,,,,,,,,,,,,,,,,,,,,,,,,,,,,
,,66cf21fac640537abe16a607,66fc9b158cfd00dc61387fb1,2024-10-02_03h02.50.576,mdp,2024.2.1,Win32,144.9275362,66fa4ebf79326e780c390304,,,,,,,,,,,,,,,,,,,,,1237.7802,1237.7802,1237.7807,1238.3489,1,0,right,0.056,,1238.3495,1238.3499,1,1,,1238.3502,1238.3504,1,1,,1,1238.3504,1238.3504,1238.3506,1239.8473,0,23,23,23,1,0.6,0.4,0.2,0.8,1,0,,,,,,,,,,,,,,,,,,,,,,,,,,,,,,,,,,,,
,,66cf21fac640537abe16a607,66fc9b158cfd00dc61387fb1,2024-10-02_03h02.50.576,mdp,2024.2.1,Win32,144.9275362,66fa4ebf79326e780c390304,,,,,,,,,,,,,,,,,,,,,1239.8475,1239.8475,1239.8481,1240.8048,0,0,left,0.4465,,1240.8053,1240.8057,1,0,,1240.806,1240.8062,1,0,,1,1240.8062,1240.8062,1240.8064,1242.3032,0,24,24,24,1,0.8,0.2,0.6,0.4,1,0,,,,,,,,,,,,,,,,,,,,,,,,,,,,,,,,,,,,
,,66cf21fac640537abe16a607,66fc9b158cfd00dc61387fb1,2024-10-02_03h02.50.576,mdp,2024.2.1,Win32,144.9275362,66fa4ebf79326e780c390304,,,,,,,,,,,,,,,,,,,,,1242.3034,1242.3034,1242.304,1243.0247,1,0,right,0.2108,,1243.0252,1243.0257,1,1,,1243.026,1243.0262,1,1,,1,1243.0262,1243.0262,1243.0264,1244.5233,0,25,25,25,1,0.8,0.2,0.6,0.4,1,0,,,,,,,,,,,,,,,,,,,,,,,,,,,,,,,,,,,,
,,66cf21fac640537abe16a607,66fc9b158cfd00dc61387fb1,2024-10-02_03h02.50.576,mdp,2024.2.1,Win32,144.9275362,66fa4ebf79326e780c390304,,,,,,,,,,,,,,,,,,,,,1244.5237,1244.5237,1244.5245,1245.106,0,0,left,0.0721,,1245.1067,1245.1071,1,1,,1245.1074,1245.1075,1,1,,1,1245.1075,1245.1075,1245.1077,1246.6043,0,26,26,26,1,0.6,0.4,0.8,0.2,1,0,,,,,,,,,,,,,,,,,,,,,,,,,,,,,,,,,,,,
,,66cf21fac640537abe16a607,66fc9b158cfd00dc61387fb1,2024-10-02_03h02.50.576,mdp,2024.2.1,Win32,144.9275362,66fa4ebf79326e780c390304,,,,,,,,,,,,,,,,,,,,,1246.6046,1246.6046,1246.6051,1247.2288,0,0,left,0.114,,1247.2294,1247.2299,1,0,,1247.2303,1247.2305,1,0,,1,1247.2305,1247.2305,1247.2307,1248.7273,0,27,27,27,1,0.6,0.4,0.8,0.2,1,0,,,,,,,,,,,,,,,,,,,,,,,,,,,,,,,,,,,,
,,66cf21fac640537abe16a607,66fc9b158cfd00dc61387fb1,2024-10-02_03h02.50.576,mdp,2024.2.1,Win32,144.9275362,66fa4ebf79326e780c390304,,,,,,,,,,,,,,,,,,,,,1248.7278,1248.7278,1248.7287,1249.2684,1,0,right,0.0291,,1249.2691,1249.2695,1,0,,1249.2699,1249.2701,1,1,,1,1249.2701,1249.2701,1249.2703,1250.7669,0,28,28,28,1,0.6,0.4,0.8,0.2,1,0,,,,,,,,,,,,,,,,,,,,,,,,,,,,,,,,,,,,
,,66cf21fac640537abe16a607,66fc9b158cfd00dc61387fb1,2024-10-02_03h02.50.576,mdp,2024.2.1,Win32,144.9275362,66fa4ebf79326e780c390304,,,,,,,,,,,,,,,,,,,,,1250.7673,1250.7674,1250.7685,1251.3635,1,0,right,0.0832,,1251.364,1251.3644,1,1,,1251.3648,1251.3651,1,1,,1,1251.3651,1251.3651,1251.3652,1252.862,0,29,29,29,1,0.8,0.2,0.4,0.6,1,0,,,,,,,,,,,,,,,,,,,,,,,,,,,,,,,,,,,,
,,66cf21fac640537abe16a607,66fc9b158cfd00dc61387fb1,2024-10-02_03h02.50.576,mdp,2024.2.1,Win32,144.9275362,66fa4ebf79326e780c390304,,,,,,,,,,,,,,,,,,,,,1252.8623,1252.8623,1252.8629,1253.4586,1,1,right,0.086,,1253.4592,1253.4595,1,1,,1253.4598,1253.4599,1,1,,0,1253.4599,1253.4599,1253.4601,1254.9572,0,30,30,30,1,0.8,0.2,0.4,0.6,1,0,,,,,,,,,,,,,,,,,,,,,,,,,,,,,,,,,,,,
,,66cf21fac640537abe16a607,66fc9b158cfd00dc61387fb1,2024-10-02_03h02.50.576,mdp,2024.2.1,Win32,144.9275362,66fa4ebf79326e780c390304,,,,,,,,,,,,,,,,,,,,,1254.9575,1254.9575,1254.958,1256.0463,1,0,right,0.5777,,1256.047,1256.0474,1,1,,1256.0477,1256.048,1,1,,1,1256.048,1256.048,1256.0482,1257.5448,0,31,31,31,1,0.8,0.2,0.4,0.6,1,0,,,,,,,,,,,,,,,,,,,,,,,,,,,,,,,,,,,,
,,66cf21fac640537abe16a607,66fc9b158cfd00dc61387fb1,2024-10-02_03h02.50.576,mdp,2024.2.1,Win32,144.9275362,66fa4ebf79326e780c390304,,,,,,,,,,,,,,,,,,,,,1257.5451,1257.5451,1257.5455,1258.2663,1,0,right,0.211,,1258.2667,1258.2673,1,0,,1258.2677,1258.268,1,0,,1,1258.268,1258.268,1258.2682,1259.7648,0,32,32,32,1,0.6,0.4,0.6,0.4,1,0,,,,,,,,,,,,,,,,,,,,,,,,,,,,,,,,,,,,
,,66cf21fac640537abe16a607,66fc9b158cfd00dc61387fb1,2024-10-02_03h02.50.576,mdp,2024.2.1,Win32,144.9275362,66fa4ebf79326e780c390304,,,,,,,,,,,,,,,,,,,,,1259.7651,1259.7651,1259.766,1260.2781,0,1,left,0.0032,,1260.2787,1260.2794,1,1,,1260.2798,1260.2801,1,1,,0,1260.2801,1260.2801,1260.2802,1261.7766,0,33,33,33,1,0.2,0.8,0.8,0.2,1,0,,,,,,,,,,,,,,,,,,,,,,,,,,,,,,,,,,,,
,,66cf21fac640537abe16a607,66fc9b158cfd00dc61387fb1,2024-10-02_03h02.50.576,mdp,2024.2.1,Win32,144.9275362,66fa4ebf79326e780c390304,,,,,,,,,,,,,,,,,,,,,1261.7768,1261.7768,1261.7772,1262.4218,0,1,left,0.1353,,1262.4224,1262.4228,1,1,,1262.423,1262.4232,1,1,,0,1262.4232,1262.4232,1262.4234,1263.9204,0,34,34,34,1,0.2,0.8,0.8,0.2,1,0,,,,,,,,,,,,,,,,,,,,,,,,,,,,,,,,,,,,
,,66cf21fac640537abe16a607,66fc9b158cfd00dc61387fb1,2024-10-02_03h02.50.576,mdp,2024.2.1,Win32,144.9275362,66fa4ebf79326e780c390304,,,,,,,,,,,,,,,,,,,,,1263.9206,1263.9206,1263.9214,1264.503,1,0,right,0.0648,,1264.5042,1264.5046,1,0,,1264.5048,1264.5049,1,1,,1,1264.505,1264.505,1264.5051,1266.0018,0,35,35,35,1,0.2,0.8,0.8,0.2,1,0,,,,,,,,,,,,,,,,,,,,,,,,,,,,,,,,,,,,
,,66cf21fac640537abe16a607,66fc9b158cfd00dc61387fb1,2024-10-02_03h02.50.576,mdp,2024.2.1,Win32,144.9275362,66fa4ebf79326e780c390304,,,,,,,,,,,,,,,,,,,,,1266.0023,1266.0023,1266.0033,1266.8202,1,0,right,0.3081,,1266.8207,1266.8212,1,0,,1266.8215,1266.8217,1,0,,1,1266.8217,1266.8217,1266.8219,1268.3186,0,36,36,36,1,0.2,0.8,0.8,0.2,1,0,,,,,,,,,,,,,,,,,,,,,,,,,,,,,,,,,,,,
,,66cf21fac640537abe16a607,66fc9b158cfd00dc61387fb1,2024-10-02_03h02.50.576,mdp,2024.2.1,Win32,144.9275362,66fa4ebf79326e780c390304,,,,,,,,,,,,,,,,,,,,,1268.3188,1268.3188,1268.3193,1269.0332,0,1,left,0.2037,,1269.0337,1269.0342,1,1,,1269.0345,1269.0346,1,0,,0,1269.0346,1269.0346,1269.0348,1270.5317,0,37,37,37,1,0.2,0.8,0.8,0.2,1,0,,,,,,,,,,,,,,,,,,,,,,,,,,,,,,,,,,,,
,,66cf21fac640537abe16a607,66fc9b158cfd00dc61387fb1,2024-10-02_03h02.50.576,mdp,2024.2.1,Win32,144.9275362,66fa4ebf79326e780c390304,,,,,,,,,,,,,,,,,,,,,1270.532,1270.532,1270.5323,1271.1493,0,1,left,0.1056,,1271.1503,1271.1506,1,1,,1271.1508,1271.151,1,1,,0,1271.151,1271.151,1271.1512,1272.6475,0,38,38,38,1,0.2,0.8,0.8,0.2,1,0,,,,,,,,,,,,,,,,,,,,,,,,,,,,,,,,,,,,
,,66cf21fac640537abe16a607,66fc9b158cfd00dc61387fb1,2024-10-02_03h02.50.576,mdp,2024.2.1,Win32,144.9275362,66fa4ebf79326e780c390304,,,,,,,,,,,,,,,,,,,,,1272.6478,1272.6478,1272.6482,1273.5912,0,1,left,0.4301,,1273.5921,1273.5924,1,0,,1273.5926,1273.5928,1,1,,0,1273.5928,1273.5928,1273.593,1275.0895,0,39,39,39,1,0.2,0.8,0.8,0.2,1,0,,,,,,,,,,,,,,,,,,,,,,,,,,,,,,,,,,,,
,,66cf21fac640537abe16a607,66fc9b158cfd00dc61387fb1,2024-10-02_03h02.50.576,mdp,2024.2.1,Win32,144.9275362,66fa4ebf79326e780c390304,,,,,,,,,,,,,,,,,,,,,1275.0898,1275.0898,1275.0903,1275.7279,0,1,left,0.128,,1275.7285,1275.729,1,0,,1275.7292,1275.7293,1,0,,0,1275.7293,1275.7293,1275.7296,1277.2263,0,40,40,40,1,0.2,0.8,0.8,0.2,1,0,,,,,,,,,,,,,,,,,,,,,,,,,,,,,,,,,,,,
