init_exp.started,init_exp.stopped,participant,session,date,expName,psychopyVersion,OS,frameRate,study_id,disp_instruction.started,disp_instruction.stopped,instruction.thisRepN,instruction.thisTrialN,instruction.thisN,instruction.thisIndex,instruction.ran,instimg_path,consent.started,consent.stopped,key_resp_3.keys,key_resp_3.rt,key_resp_3.duration,n_steps,sequence_path,init_block.started,init_block.stopped,key_resp.keys,key_resp.rt,key_resp.duration,init_trials.started,init_trials.stopped,step0.started,step0.stopped,act0,s1,res0.keys,res0.rt,res0.duration,step1.started,step1.stopped,act1,s2,res1.keys,step2.started,step2.stopped,act2,s3,res2.keys,rew,reward_comp.started,reward_comp.stopped,reward_disp.started,reward_disp.stopped,trials.thisRepN,trials.thisTrialN,trials.thisN,trials.thisIndex,trials.ran,s00a0s10,s00a0s11,s00a1s10,s00a1s11,rew10,rew11,break_block.started,break_block.stopped,block.thisRepN,block.thisTrialN,block.thisN,block.thisIndex,block.ran,s00path,s10path,s11path,s20path,s21path,res1.rt,res1.duration,s10a0s20,s10a0s21,s10a1s20,s10a1s21,s11a0s20,s11a0s21,s11a1s20,s11a1s21,rew20,rew21,res2.rt,res2.duration,s20a0s30,s20a0s31,s20a1s30,s20a1s31,s21a0s30,s21a0s31,s21a1s30,s21a1s31,rew30,rew31
0.0001,0.0007,66cf32c269c7951c97de25fc,66daf8f97b99d644b6352da9,2024-09-06_14h44.21.179,mdp,2024.2.1,Win32,166.6666667,66d7945b1baad48e845df3ce,,,,,,,,,,,,,,,,,,,,,,,,,,,,,,,,,,,,,,,,,,,,,,,,,,,,,,,,,,,,,,,,,,,,,,,,,,,,,,,,,,,,,,,,,,,
,,66cf32c269c7951c97de25fc,66daf8f97b99d644b6352da9,2024-09-06_14h44.21.179,mdp,2024.2.1,Win32,166.6666667,66d7945b1baad48e845df3ce,0.0026,31.9404,0,0,0,0,1,rlnn_exp/rlnn_exp.001.png,,,,,,,,,,,,,,,,,,,,,,,,,,,,,,,,,,,,,,,,,,,,,,,,,,,,,,,,,,,,,,,,,,,,,,,,,,,,,,,,,,,
,,66cf32c269c7951c97de25fc,66daf8f97b99d644b6352da9,2024-09-06_14h44.21.179,mdp,2024.2.1,Win32,166.6666667,66d7945b1baad48e845df3ce,31.9408,42.6432,0,1,1,1,1,rlnn_exp/rlnn_exp.002.png,,,,,,,,,,,,,,,,,,,,,,,,,,,,,,,,,,,,,,,,,,,,,,,,,,,,,,,,,,,,,,,,,,,,,,,,,,,,,,,,,,,
,,66cf32c269c7951c97de25fc,66daf8f97b99d644b6352da9,2024-09-06_14h44.21.179,mdp,2024.2.1,Win32,166.6666667,66d7945b1baad48e845df3ce,42.6435,61.8856,0,2,2,2,1,rlnn_exp/rlnn_exp.003.png,,,,,,,,,,,,,,,,,,,,,,,,,,,,,,,,,,,,,,,,,,,,,,,,,,,,,,,,,,,,,,,,,,,,,,,,,,,,,,,,,,,
,,66cf32c269c7951c97de25fc,66daf8f97b99d644b6352da9,2024-09-06_14h44.21.179,mdp,2024.2.1,Win32,166.6666667,66d7945b1baad48e845df3ce,61.8902,80.0187,0,3,3,3,1,rlnn_exp/rlnn_exp.004.png,,,,,,,,,,,,,,,,,,,,,,,,,,,,,,,,,,,,,,,,,,,,,,,,,,,,,,,,,,,,,,,,,,,,,,,,,,,,,,,,,,,
,,66cf32c269c7951c97de25fc,66daf8f97b99d644b6352da9,2024-09-06_14h44.21.179,mdp,2024.2.1,Win32,166.6666667,66d7945b1baad48e845df3ce,,,,,,,,,80.0234,116.4975,y,26.4702,,,,,,,,,,,,,,,,,,,,,,,,,,,,,,,,,,,,,,,,,,,,,,,,,,,,,,,,,,,,,,,,,,,,,,,,,,,,,,,
,,66cf32c269c7951c97de25fc,66daf8f97b99d644b6352da9,2024-09-06_14h44.21.179,mdp,2024.2.1,Win32,166.6666667,66d7945b1baad48e845df3ce,,,,,,,,,,,,,,1,seqs/st1seq21.csv,116.5034,119.9823,space,2.97,,119.9838,119.9838,119.9839,123.0672,1,1,right,2.5766,,123.0714,123.072,,0,,123.072,123.0725,,0,,0,123.0726,123.0726,123.0727,124.57,0,0,0,0,1,0.8,0.2,0.4,0.6,1,0,,,,,,,,,,,,,,,,,,,,,,,,,,,,,,,,,,,,
,,66cf32c269c7951c97de25fc,66daf8f97b99d644b6352da9,2024-09-06_14h44.21.179,mdp,2024.2.1,Win32,166.6666667,66d7945b1baad48e845df3ce,,,,,,,,,,,,,,,,,,,,,124.5702,124.5702,124.5706,126.0306,0,1,left,0.9516,,126.031,126.0313,,0,,126.0315,126.0317,,0,,0,126.0317,126.0317,126.0319,127.5275,0,1,1,1,1,0.8,0.2,0.4,0.6,1,0,,,,,,,,,,,,,,,,,,,,,,,,,,,,,,,,,,,,
,,66cf32c269c7951c97de25fc,66daf8f97b99d644b6352da9,2024-09-06_14h44.21.179,mdp,2024.2.1,Win32,166.6666667,66d7945b1baad48e845df3ce,,,,,,,,,,,,,,,,,,,,,127.5276,127.5276,127.5282,128.873,1,0,right,0.8419,,128.8733,128.8736,,1,,128.8737,128.874,,1,,1,128.874,128.874,128.8742,130.3699,0,2,2,2,1,0.8,0.2,0.4,0.6,1,0,,,,,,,,,,,,,,,,,,,,,,,,,,,,,,,,,,,,
,,66cf32c269c7951c97de25fc,66daf8f97b99d644b6352da9,2024-09-06_14h44.21.179,mdp,2024.2.1,Win32,166.6666667,66d7945b1baad48e845df3ce,,,,,,,,,,,,,,,,,,,,,130.3701,130.3701,130.3705,132.7639,1,1,right,1.8875,,132.7683,132.7686,,1,,132.7689,132.769,,0,,0,132.7691,132.7691,132.7692,134.2669,0,3,3,3,1,0.6,0.4,0.2,0.8,1,0,,,,,,,,,,,,,,,,,,,,,,,,,,,,,,,,,,,,
,,66cf32c269c7951c97de25fc,66daf8f97b99d644b6352da9,2024-09-06_14h44.21.179,mdp,2024.2.1,Win32,166.6666667,66d7945b1baad48e845df3ce,,,,,,,,,,,,,,,,,,,,,134.267,134.267,134.2674,136.4366,1,1,right,1.6624,,136.4369,136.4372,,0,,136.4375,136.4376,,1,,0,136.4376,136.4376,136.4378,137.9335,0,4,4,4,1,0.6,0.4,0.2,0.8,1,0,,,,,,,,,,,,,,,,,,,,,,,,,,,,,,,,,,,,
,,66cf32c269c7951c97de25fc,66daf8f97b99d644b6352da9,2024-09-06_14h44.21.179,mdp,2024.2.1,Win32,166.6666667,66d7945b1baad48e845df3ce,,,,,,,,,,,,,,,,,,,,,137.9337,137.9337,137.9343,138.9336,0,0,left,0.4919,,138.9338,138.934,,0,,138.9343,138.9345,,0,,1,138.9345,138.9345,138.9347,140.4305,0,5,5,5,1,0.6,0.4,0.2,0.8,1,0,,,,,,,,,,,,,,,,,,,,,,,,,,,,,,,,,,,,
,,66cf32c269c7951c97de25fc,66daf8f97b99d644b6352da9,2024-09-06_14h44.21.179,mdp,2024.2.1,Win32,166.6666667,66d7945b1baad48e845df3ce,,,,,,,,,,,,,,,,,,,,,140.4306,140.4306,140.4312,142.2608,1,0,right,1.3228,,142.2612,142.2614,,1,,142.2616,142.2618,,0,,1,142.2618,142.2618,142.262,143.7578,0,6,6,6,1,0.6,0.4,0.2,0.8,1,0,,,,,,,,,,,,,,,,,,,,,,,,,,,,,,,,,,,,
,,66cf32c269c7951c97de25fc,66daf8f97b99d644b6352da9,2024-09-06_14h44.21.179,mdp,2024.2.1,Win32,166.6666667,66d7945b1baad48e845df3ce,,,,,,,,,,,,,,,,,,,,,143.7579,143.7579,143.7583,145.5578,0,0,left,1.2915,,145.5581,145.5583,,0,,145.5586,145.5588,,0,,1,145.5588,145.5588,145.5589,147.0547,0,7,7,7,1,0.8,0.2,0.6,0.4,1,0,,,,,,,,,,,,,,,,,,,,,,,,,,,,,,,,,,,,
,,66cf32c269c7951c97de25fc,66daf8f97b99d644b6352da9,2024-09-06_14h44.21.179,mdp,2024.2.1,Win32,166.6666667,66d7945b1baad48e845df3ce,,,,,,,,,,,,,,,,,,,,,147.0548,147.0548,147.0551,149.1457,1,0,right,1.5868,,149.146,149.1463,,0,,149.1465,149.1466,,0,,1,149.1466,149.1466,149.1467,150.6426,0,8,8,8,1,0.4,0.6,0.8,0.2,1,0,,,,,,,,,,,,,,,,,,,,,,,,,,,,,,,,,,,,
,,66cf32c269c7951c97de25fc,66daf8f97b99d644b6352da9,2024-09-06_14h44.21.179,mdp,2024.2.1,Win32,166.6666667,66d7945b1baad48e845df3ce,,,,,,,,,,,,,,,,,,,,,150.6426,150.6426,150.6431,151.7213,0,0,left,0.5748,,151.7216,151.7218,,0,,151.722,151.7222,,1,,1,151.7222,151.7222,151.7224,153.2183,0,9,9,9,1,0.4,0.6,0.8,0.2,1,0,,,,,,,,,,,,,,,,,,,,,,,,,,,,,,,,,,,,
,,66cf32c269c7951c97de25fc,66daf8f97b99d644b6352da9,2024-09-06_14h44.21.179,mdp,2024.2.1,Win32,166.6666667,66d7945b1baad48e845df3ce,,,,,,,,,,,,,,,,,,,,,153.2184,153.2184,153.2188,154.2123,1,1,right,0.487,,154.2126,154.2128,,0,,154.213,154.2131,,1,,0,154.2131,154.2132,154.2133,155.7092,0,10,10,10,1,0.4,0.6,0.8,0.2,1,0,,,,,,,,,,,,,,,,,,,,,,,,,,,,,,,,,,,,
,,66cf32c269c7951c97de25fc,66daf8f97b99d644b6352da9,2024-09-06_14h44.21.179,mdp,2024.2.1,Win32,166.6666667,66d7945b1baad48e845df3ce,,,,,,,,,,,,,,,,,,,,,155.7093,155.7093,155.7097,159.4547,0,1,left,3.2365,,159.4594,159.4596,,0,,159.4598,159.46,,1,,0,159.46,159.46,159.4601,160.9576,0,11,11,11,1,0.4,0.6,0.8,0.2,1,0,,,,,,,,,,,,,,,,,,,,,,,,,,,,,,,,,,,,
,,66cf32c269c7951c97de25fc,66daf8f97b99d644b6352da9,2024-09-06_14h44.21.179,mdp,2024.2.1,Win32,166.6666667,66d7945b1baad48e845df3ce,,,,,,,,,,,,,,,,,,,,,160.9578,160.9578,160.9582,161.8304,1,0,right,0.3637,,161.8307,161.8309,,0,,161.8311,161.8313,,0,,1,161.8313,161.8313,161.8315,163.3273,0,12,12,12,1,0.4,0.6,0.8,0.2,1,0,,,,,,,,,,,,,,,,,,,,,,,,,,,,,,,,,,,,
,,66cf32c269c7951c97de25fc,66daf8f97b99d644b6352da9,2024-09-06_14h44.21.179,mdp,2024.2.1,Win32,166.6666667,66d7945b1baad48e845df3ce,,,,,,,,,,,,,,,,,,,,,163.3274,163.3274,163.3278,165.5697,1,0,right,1.7381,,165.57,165.5703,,0,,165.5704,165.5705,,0,,1,165.5706,165.5706,165.5707,167.0667,0,13,13,13,1,0.4,0.6,0.8,0.2,1,0,,,,,,,,,,,,,,,,,,,,,,,,,,,,,,,,,,,,
,,66cf32c269c7951c97de25fc,66daf8f97b99d644b6352da9,2024-09-06_14h44.21.179,mdp,2024.2.1,Win32,166.6666667,66d7945b1baad48e845df3ce,,,,,,,,,,,,,,,,,,,,,167.0668,167.0668,167.0672,169.0121,1,0,right,1.4387,,169.0125,169.0128,,1,,169.013,169.0131,,0,,1,169.0131,169.0131,169.0133,170.5091,0,14,14,14,1,0.4,0.6,0.8,0.2,1,0,,,,,,,,,,,,,,,,,,,,,,,,,,,,,,,,,,,,
,,66cf32c269c7951c97de25fc,66daf8f97b99d644b6352da9,2024-09-06_14h44.21.179,mdp,2024.2.1,Win32,166.6666667,66d7945b1baad48e845df3ce,,,,,,,,,,,,,,,,,,,,,170.5092,170.5092,170.5095,172.3394,1,1,right,1.3243,,172.3398,172.34,,1,,172.3402,172.3403,,1,,0,172.3403,172.3403,172.3405,173.8364,0,15,15,15,1,0.8,0.2,0.6,0.4,1,0,,,,,,,,,,,,,,,,,,,,,,,,,,,,,,,,,,,,
,,66cf32c269c7951c97de25fc,66daf8f97b99d644b6352da9,2024-09-06_14h44.21.179,mdp,2024.2.1,Win32,166.6666667,66d7945b1baad48e845df3ce,,,,,,,,,,,,,,,,,,,,,173.8365,173.8365,173.8367,175.3697,0,0,left,1.029,,175.37,175.3702,,0,,175.3703,175.3705,,0,,1,175.3705,175.3705,175.3707,176.8666,0,16,16,16,1,0.8,0.2,0.6,0.4,1,0,,,,,,,,,,,,,,,,,,,,,,,,,,,,,,,,,,,,
,,66cf32c269c7951c97de25fc,66daf8f97b99d644b6352da9,2024-09-06_14h44.21.179,mdp,2024.2.1,Win32,166.6666667,66d7945b1baad48e845df3ce,,,,,,,,,,,,,,,,,,,,,176.8668,176.8668,176.8671,177.8364,0,0,left,0.4625,,177.8366,177.8369,,1,,177.837,177.8372,,1,,1,177.8372,177.8372,177.8375,179.3333,0,17,17,17,1,0.4,0.6,0.8,0.2,1,0,,,,,,,,,,,,,,,,,,,,,,,,,,,,,,,,,,,,
,,66cf32c269c7951c97de25fc,66daf8f97b99d644b6352da9,2024-09-06_14h44.21.179,mdp,2024.2.1,Win32,166.6666667,66d7945b1baad48e845df3ce,,,,,,,,,,,,,,,,,,,,,179.3334,179.3334,179.3337,180.3394,0,0,left,0.5,,180.3397,180.34,,1,,180.3402,180.3403,,1,,1,180.3403,180.3403,180.3406,181.8363,0,18,18,18,1,0.4,0.6,0.8,0.2,1,0,,,,,,,,,,,,,,,,,,,,,,,,,,,,,,,,,,,,
,,66cf32c269c7951c97de25fc,66daf8f97b99d644b6352da9,2024-09-06_14h44.21.179,mdp,2024.2.1,Win32,166.6666667,66d7945b1baad48e845df3ce,,,,,,,,,,,,,,,,,,,,,181.8364,181.8364,181.8368,183.4302,0,1,left,1.085,,183.4305,183.4309,,1,,183.431,183.4312,,0,,0,183.4312,183.4312,183.4314,184.9272,0,19,19,19,1,0.4,0.6,0.8,0.2,1,0,,,,,,,,,,,,,,,,,,,,,,,,,,,,,,,,,,,,
,,66cf32c269c7951c97de25fc,66daf8f97b99d644b6352da9,2024-09-06_14h44.21.179,mdp,2024.2.1,Win32,166.6666667,66d7945b1baad48e845df3ce,,,,,,,,,,,,,,,,,,,,,184.9272,184.9272,184.9276,186.2363,1,0,right,0.8021,,186.2366,186.2369,,0,,186.237,186.2373,,0,,1,186.2373,186.2373,186.2374,187.7333,0,20,20,20,1,0.4,0.6,0.8,0.2,1,0,,,,,,,,,,,,,,,,,,,,,,,,,,,,,,,,,,,,
,,66cf32c269c7951c97de25fc,66daf8f97b99d644b6352da9,2024-09-06_14h44.21.179,mdp,2024.2.1,Win32,166.6666667,66d7945b1baad48e845df3ce,,,,,,,,,,,,,,,,,,,,,187.7333,187.7333,187.7336,188.5454,1,0,right,0.3079,,188.5456,188.5458,,1,,188.5461,188.5462,,0,,1,188.5462,188.5462,188.5464,190.0423,0,21,21,21,1,0.6,0.4,0.6,0.4,1,0,,,,,,,,,,,,,,,,,,,,,,,,,,,,,,,,,,,,
,,66cf32c269c7951c97de25fc,66daf8f97b99d644b6352da9,2024-09-06_14h44.21.179,mdp,2024.2.1,Win32,166.6666667,66d7945b1baad48e845df3ce,,,,,,,,,,,,,,,,,,,,,190.0424,190.0424,190.0427,190.9453,1,1,right,0.3989,,190.9456,190.9459,,1,,190.9461,190.9462,,1,,0,190.9462,190.9462,190.9464,192.4423,0,22,22,22,1,0.6,0.4,0.6,0.4,1,0,,,,,,,,,,,,,,,,,,,,,,,,,,,,,,,,,,,,
,,66cf32c269c7951c97de25fc,66daf8f97b99d644b6352da9,2024-09-06_14h44.21.179,mdp,2024.2.1,Win32,166.6666667,66d7945b1baad48e845df3ce,,,,,,,,,,,,,,,,,,,,,192.4424,192.4424,192.4427,194.0847,0,1,left,1.135,,194.085,194.0852,,0,,194.0854,194.0857,,1,,0,194.0857,194.0857,194.0858,195.5817,0,23,23,23,1,0.6,0.4,0.6,0.4,1,0,,,,,,,,,,,,,,,,,,,,,,,,,,,,,,,,,,,,
,,66cf32c269c7951c97de25fc,66daf8f97b99d644b6352da9,2024-09-06_14h44.21.179,mdp,2024.2.1,Win32,166.6666667,66d7945b1baad48e845df3ce,,,,,,,,,,,,,,,,,,,,,195.5818,195.5818,195.5821,196.7696,0,1,left,0.6835,,196.7699,196.7701,,0,,196.7703,196.7704,,0,,0,196.7704,196.7704,196.7706,198.2665,0,24,24,24,1,0.6,0.4,0.6,0.4,1,0,,,,,,,,,,,,,,,,,,,,,,,,,,,,,,,,,,,,
,,66cf32c269c7951c97de25fc,66daf8f97b99d644b6352da9,2024-09-06_14h44.21.179,mdp,2024.2.1,Win32,166.6666667,66d7945b1baad48e845df3ce,,,,,,,,,,,,,,,,,,,,,198.2667,198.2667,198.2671,199.1211,1,1,right,0.3507,,199.1213,199.1215,,0,,199.1216,199.1219,,1,,0,199.1219,199.1219,199.122,200.618,0,25,25,25,1,0.6,0.4,0.6,0.4,1,0,,,,,,,,,,,,,,,,,,,,,,,,,,,,,,,,,,,,
,,66cf32c269c7951c97de25fc,66daf8f97b99d644b6352da9,2024-09-06_14h44.21.179,mdp,2024.2.1,Win32,166.6666667,66d7945b1baad48e845df3ce,,,,,,,,,,,,,,,,,,,,,200.6181,200.6181,200.6185,202.6423,0,0,left,1.5192,,202.6427,202.6429,,1,,202.6431,202.6432,,1,,1,202.6432,202.6432,202.6434,204.1392,0,26,26,26,1,0.6,0.4,0.6,0.4,1,0,,,,,,,,,,,,,,,,,,,,,,,,,,,,,,,,,,,,
,,66cf32c269c7951c97de25fc,66daf8f97b99d644b6352da9,2024-09-06_14h44.21.179,mdp,2024.2.1,Win32,166.6666667,66d7945b1baad48e845df3ce,,,,,,,,,,,,,,,,,,,,,204.1393,204.1393,204.1396,205.4119,0,0,left,0.7661,,205.4122,205.4124,,1,,205.4126,205.4129,,0,,1,205.4129,205.4129,205.413,206.9089,0,27,27,27,1,0.6,0.4,0.6,0.4,1,0,,,,,,,,,,,,,,,,,,,,,,,,,,,,,,,,,,,,
,,66cf32c269c7951c97de25fc,66daf8f97b99d644b6352da9,2024-09-06_14h44.21.179,mdp,2024.2.1,Win32,166.6666667,66d7945b1baad48e845df3ce,,,,,,,,,,,,,,,,,,,,,206.909,206.909,206.9092,208.23,0,0,left,0.8123,,208.2304,208.2306,,0,,208.2309,208.2311,,1,,1,208.2311,208.2311,208.2313,209.7271,0,28,28,28,1,0.6,0.4,0.6,0.4,1,0,,,,,,,,,,,,,,,,,,,,,,,,,,,,,,,,,,,,
,,66cf32c269c7951c97de25fc,66daf8f97b99d644b6352da9,2024-09-06_14h44.21.179,mdp,2024.2.1,Win32,166.6666667,66d7945b1baad48e845df3ce,,,,,,,,,,,,,,,,,,,,,209.7272,209.7272,209.7274,210.8362,1,1,right,0.6023,,210.8365,210.8368,,0,,210.837,210.8372,,0,,0,210.8372,210.8372,210.8374,212.3331,0,29,29,29,1,0.6,0.4,0.6,0.4,1,0,,,,,,,,,,,,,,,,,,,,,,,,,,,,,,,,,,,,
,,66cf32c269c7951c97de25fc,66daf8f97b99d644b6352da9,2024-09-06_14h44.21.179,mdp,2024.2.1,Win32,166.6666667,66d7945b1baad48e845df3ce,,,,,,,,,,,,,,,,,,,,,212.3332,212.3332,212.3335,213.8664,1,0,right,1.0282,,213.8668,213.8671,,0,,213.8674,213.8675,,0,,1,213.8675,213.8675,213.8677,215.3634,0,30,30,30,1,0.6,0.4,0.6,0.4,1,0,,,,,,,,,,,,,,,,,,,,,,,,,,,,,,,,,,,,
,,66cf32c269c7951c97de25fc,66daf8f97b99d644b6352da9,2024-09-06_14h44.21.179,mdp,2024.2.1,Win32,166.6666667,66d7945b1baad48e845df3ce,,,,,,,,,,,,,,,,,,,,,215.3634,215.3634,215.3638,216.3028,1,1,right,0.4305,,216.3031,216.3034,,1,,216.3035,216.3037,,1,,0,216.3037,216.3037,216.3039,217.7997,0,31,31,31,1,0.6,0.4,0.6,0.4,1,0,,,,,,,,,,,,,,,,,,,,,,,,,,,,,,,,,,,,
,,66cf32c269c7951c97de25fc,66daf8f97b99d644b6352da9,2024-09-06_14h44.21.179,mdp,2024.2.1,Win32,166.6666667,66d7945b1baad48e845df3ce,,,,,,,,,,,,,,,,,,,,,217.7998,217.7998,217.8001,219.23,0,1,left,0.9216,,219.2304,219.2307,,0,,219.2309,219.2311,,0,,0,219.2311,219.2311,219.2313,220.727,0,32,32,32,1,0.6,0.4,0.6,0.4,1,0,,,,,,,,,,,,,,,,,,,,,,,,,,,,,,,,,,,,
,,66cf32c269c7951c97de25fc,66daf8f97b99d644b6352da9,2024-09-06_14h44.21.179,mdp,2024.2.1,Win32,166.6666667,66d7945b1baad48e845df3ce,,,,,,,,,,,,,,,,,,,,,220.7272,220.7272,220.7275,222.83,1,0,right,1.5942,,222.8303,222.8306,,0,,222.8308,222.8311,,0,,1,222.8311,222.8311,222.8313,224.3269,0,33,33,33,1,0.4,0.6,0.8,0.2,1,0,,,,,,,,,,,,,,,,,,,,,,,,,,,,,,,,,,,,
,,66cf32c269c7951c97de25fc,66daf8f97b99d644b6352da9,2024-09-06_14h44.21.179,mdp,2024.2.1,Win32,166.6666667,66d7945b1baad48e845df3ce,,,,,,,,,,,,,,,,,,,,,224.3271,224.3271,224.3273,225.6178,1,0,right,0.7863,,225.6181,225.6183,,0,,225.6185,225.6187,,0,,1,225.6187,225.6187,225.6189,227.1148,0,34,34,34,1,0.4,0.6,0.8,0.2,1,0,,,,,,,,,,,,,,,,,,,,,,,,,,,,,,,,,,,,
,,66cf32c269c7951c97de25fc,66daf8f97b99d644b6352da9,2024-09-06_14h44.21.179,mdp,2024.2.1,Win32,166.6666667,66d7945b1baad48e845df3ce,,,,,,,,,,,,,,,,,,,,,227.1149,227.1149,227.1153,228.3815,1,0,right,0.7586,,228.3819,228.3822,,0,,228.3824,228.3825,,1,,1,228.3825,228.3825,228.3827,229.8785,0,35,35,35,1,0.6,0.4,0.6,0.4,1,0,,,,,,,,,,,,,,,,,,,,,,,,,,,,,,,,,,,,
,,66cf32c269c7951c97de25fc,66daf8f97b99d644b6352da9,2024-09-06_14h44.21.179,mdp,2024.2.1,Win32,166.6666667,66d7945b1baad48e845df3ce,,,,,,,,,,,,,,,,,,,,,229.8786,229.8786,229.8789,232.4542,0,1,left,2.0669,,232.4546,232.4549,,1,,232.4551,232.4553,,0,,0,232.4553,232.4553,232.4555,233.9511,0,36,36,36,1,0.6,0.4,0.6,0.4,1,0,,,,,,,,,,,,,,,,,,,,,,,,,,,,,,,,,,,,
,,66cf32c269c7951c97de25fc,66daf8f97b99d644b6352da9,2024-09-06_14h44.21.179,mdp,2024.2.1,Win32,166.6666667,66d7945b1baad48e845df3ce,,,,,,,,,,,,,,,,,,,,,233.9513,233.9513,233.9516,235.2057,1,0,right,0.7461,,235.206,235.2062,,0,,235.2064,235.2066,,0,,1,235.2066,235.2066,235.2067,236.7026,0,37,37,37,1,0.4,0.6,0.8,0.2,1,0,,,,,,,,,,,,,,,,,,,,,,,,,,,,,,,,,,,,
,,66cf32c269c7951c97de25fc,66daf8f97b99d644b6352da9,2024-09-06_14h44.21.179,mdp,2024.2.1,Win32,166.6666667,66d7945b1baad48e845df3ce,,,,,,,,,,,,,,,,,,,,,236.7027,236.7027,236.7031,237.5936,1,1,right,0.3866,,237.5939,237.5942,,0,,237.5944,237.5945,,0,,0,237.5945,237.5945,237.5947,239.0905,0,38,38,38,1,0.4,0.6,0.8,0.2,1,0,,,,,,,,,,,,,,,,,,,,,,,,,,,,,,,,,,,,
,,66cf32c269c7951c97de25fc,66daf8f97b99d644b6352da9,2024-09-06_14h44.21.179,mdp,2024.2.1,Win32,166.6666667,66d7945b1baad48e845df3ce,,,,,,,,,,,,,,,,,,,,,239.0906,239.0906,239.0909,239.9572,0,0,left,0.3587,,239.9574,239.9576,,1,,239.958,239.9582,,0,,1,239.9582,239.9582,239.9583,241.4541,0,39,39,39,1,0.4,0.6,0.8,0.2,1,0,,,,,,,,,,,,,,,,,,,,,,,,,,,,,,,,,,,,
,,66cf32c269c7951c97de25fc,66daf8f97b99d644b6352da9,2024-09-06_14h44.21.179,mdp,2024.2.1,Win32,166.6666667,66d7945b1baad48e845df3ce,,,,,,,,,,,,,,,,,,,,,241.4542,241.4542,241.4549,242.5147,0,0,left,0.5551,,242.515,242.5152,,0,,242.5154,242.5156,,0,,1,242.5156,242.5156,242.5158,244.0117,0,40,40,40,1,0.6,0.4,0.2,0.8,1,0,,,,,,,,,,,,,,,,,,,,,,,,,,,,,,,,,,,,
,,66cf32c269c7951c97de25fc,66daf8f97b99d644b6352da9,2024-09-06_14h44.21.179,mdp,2024.2.1,Win32,166.6666667,66d7945b1baad48e845df3ce,,,,,,,,,,,,,,,,,,,,,244.0118,244.0118,244.0121,245.0178,0,1,left,0.5015,,245.018,245.0182,,1,,245.0183,245.0185,,0,,0,245.0186,245.0186,245.0187,246.5147,0,41,41,41,1,0.6,0.4,0.2,0.8,1,0,,,,,,,,,,,,,,,,,,,,,,,,,,,,,,,,,,,,
,,66cf32c269c7951c97de25fc,66daf8f97b99d644b6352da9,2024-09-06_14h44.21.179,mdp,2024.2.1,Win32,166.6666667,66d7945b1baad48e845df3ce,,,,,,,,,,,,,,,,,,,,,246.5148,246.5148,246.5151,247.4541,1,0,right,0.4304,,247.4544,247.4547,,1,,247.4548,247.4549,,1,,1,247.4549,247.4549,247.4551,248.951,0,42,42,42,1,0.6,0.4,0.2,0.8,1,0,,,,,,,,,,,,,,,,,,,,,,,,,,,,,,,,,,,,
,,66cf32c269c7951c97de25fc,66daf8f97b99d644b6352da9,2024-09-06_14h44.21.179,mdp,2024.2.1,Win32,166.6666667,66d7945b1baad48e845df3ce,,,,,,,,,,,,,,,,,,,,,248.9512,248.9512,248.9514,249.8419,1,0,right,0.3861,,249.8423,249.8424,,0,,249.8427,249.8428,,1,,1,249.8428,249.8428,249.843,251.3389,0,43,43,43,1,0.6,0.4,0.2,0.8,1,0,,,,,,,,,,,,,,,,,,,,,,,,,,,,,,,,,,,,
,,66cf32c269c7951c97de25fc,66daf8f97b99d644b6352da9,2024-09-06_14h44.21.179,mdp,2024.2.1,Win32,166.6666667,66d7945b1baad48e845df3ce,,,,,,,,,,,,,,,,,,,,,251.339,251.339,251.3393,253.0541,1,1,right,1.2063,,253.0543,253.0546,,1,,253.0547,253.0549,,0,,0,253.0549,253.0549,253.0551,254.551,0,44,44,44,1,0.6,0.4,0.2,0.8,1,0,,,,,,,,,,,,,,,,,,,,,,,,,,,,,,,,,,,,
,,66cf32c269c7951c97de25fc,66daf8f97b99d644b6352da9,2024-09-06_14h44.21.179,mdp,2024.2.1,Win32,166.6666667,66d7945b1baad48e845df3ce,,,,,,,,,,,,,,,,,,,,,254.5511,254.5511,254.5514,256.7328,1,0,right,1.6741,,256.7332,256.7334,,1,,256.7336,256.7338,,0,,1,256.7338,256.7338,256.734,258.2298,0,45,45,45,1,0.8,0.2,0.8,0.2,1,0,,,,,,,,,,,,,,,,,,,,,,,,,,,,,,,,,,,,
,,66cf32c269c7951c97de25fc,66daf8f97b99d644b6352da9,2024-09-06_14h44.21.179,mdp,2024.2.1,Win32,166.6666667,66d7945b1baad48e845df3ce,,,,,,,,,,,,,,,,,,,,,258.2299,258.2299,258.2303,259.4055,1,1,right,0.6675,,259.4059,259.4061,,0,,259.4064,259.4065,,0,,0,259.4065,259.4065,259.4067,260.9025,0,46,46,46,1,0.8,0.2,0.8,0.2,1,0,,,,,,,,,,,,,,,,,,,,,,,,,,,,,,,,,,,,
,,66cf32c269c7951c97de25fc,66daf8f97b99d644b6352da9,2024-09-06_14h44.21.179,mdp,2024.2.1,Win32,166.6666667,66d7945b1baad48e845df3ce,,,,,,,,,,,,,,,,,,,,,260.9026,260.9026,260.9029,261.8176,1,0,right,0.4108,,261.8179,261.818,,0,,261.8182,261.8183,,0,,1,261.8184,261.8184,261.8185,263.3146,0,47,47,47,1,0.8,0.2,0.8,0.2,1,0,,,,,,,,,,,,,,,,,,,,,,,,,,,,,,,,,,,,
,,66cf32c269c7951c97de25fc,66daf8f97b99d644b6352da9,2024-09-06_14h44.21.179,mdp,2024.2.1,Win32,166.6666667,66d7945b1baad48e845df3ce,,,,,,,,,,,,,,,,,,,,,263.3147,263.3147,263.3149,264.1146,0,0,left,0.2946,,264.1149,264.1151,,1,,264.1153,264.1156,,1,,1,264.1156,264.1156,264.1158,265.6116,0,48,48,48,1,0.6,0.4,0.4,0.6,1,0,,,,,,,,,,,,,,,,,,,,,,,,,,,,,,,,,,,,
,,66cf32c269c7951c97de25fc,66daf8f97b99d644b6352da9,2024-09-06_14h44.21.179,mdp,2024.2.1,Win32,166.6666667,66d7945b1baad48e845df3ce,,,,,,,,,,,,,,,,,,,,,265.6116,265.6116,265.612,267.957,0,0,left,1.8376,,267.9573,267.9576,,0,,267.9578,267.9579,,0,,1,267.9579,267.9579,267.9581,269.454,0,49,49,49,1,0.6,0.4,0.4,0.6,1,0,,,,,,,,,,,,,,,,,,,,,,,,,,,,,,,,,,,,
,,66cf32c269c7951c97de25fc,66daf8f97b99d644b6352da9,2024-09-06_14h44.21.179,mdp,2024.2.1,Win32,166.6666667,66d7945b1baad48e845df3ce,,,,,,,,,,,,,,,,,,,,,,,,,,,,,,,,,,,,,,,,,,,,,,,,,,,,,,,,269.4542,327.9629,0,0,0,2,1,imgs/goat.png,imgs/kangaroo.png,imgs/rabbit.png,imgs/lion.png,imgs/horse.png,,,,,,,,,,,,,,,,,,,,,,,,
,,66cf32c269c7951c97de25fc,66daf8f97b99d644b6352da9,2024-09-06_14h44.21.179,mdp,2024.2.1,Win32,166.6666667,66d7945b1baad48e845df3ce,,,,,,,,,,,,,,2,seqs/st2seq27.csv,327.9676,331.7808,space,3.3044,,331.7828,331.7828,331.783,334.4839,1,1,right,2.1941,,334.4882,338.8536,1,0,right,338.8581,338.8583,,1,,1,338.8583,338.8583,338.8585,340.3565,0,0,0,0,1,0.8,0.2,0.4,0.6,,,,,,,,,,,,,,,3.8589,,0.4,0.6,0.2,0.8,0.8,0.2,0.6,0.4,1,0,,,,,,,,,,,,
,,66cf32c269c7951c97de25fc,66daf8f97b99d644b6352da9,2024-09-06_14h44.21.179,mdp,2024.2.1,Win32,166.6666667,66d7945b1baad48e845df3ce,,,,,,,,,,,,,,,,,,,,,340.3567,340.3567,340.357,344.1384,1,1,right,3.2766,,344.143,345.7626,1,0,right,345.7629,345.7632,,1,,1,345.7632,345.7632,345.7634,347.2595,0,1,1,1,1,0.8,0.2,0.4,0.6,,,,,,,,,,,,,,,1.1187,,0.2,0.8,0.4,0.6,0.8,0.2,0.6,0.4,1,0,,,,,,,,,,,,
,,66cf32c269c7951c97de25fc,66daf8f97b99d644b6352da9,2024-09-06_14h44.21.179,mdp,2024.2.1,Win32,166.6666667,66d7945b1baad48e845df3ce,,,,,,,,,,,,,,,,,,,,,347.2596,347.2596,347.2599,348.7625,1,0,right,0.9976,,348.7628,351.0292,1,1,right,351.0297,351.0298,,1,,0,351.0298,351.0298,351.0301,352.5261,0,2,2,2,1,0.8,0.2,0.4,0.6,,,,,,,,,,,,,,,1.7563,,0.2,0.8,0.4,0.6,0.8,0.2,0.6,0.4,1,0,,,,,,,,,,,,
,,66cf32c269c7951c97de25fc,66daf8f97b99d644b6352da9,2024-09-06_14h44.21.179,mdp,2024.2.1,Win32,166.6666667,66d7945b1baad48e845df3ce,,,,,,,,,,,,,,,,,,,,,352.5263,352.5263,352.5267,353.7565,1,0,right,0.7228,,353.7568,355.017,0,1,left,355.0173,355.0176,,1,,0,355.0176,355.0176,355.0177,356.5141,0,3,3,3,1,0.8,0.2,0.4,0.6,,,,,,,,,,,,,,,0.7567,,0.2,0.8,0.4,0.6,0.8,0.2,0.6,0.4,1,0,,,,,,,,,,,,
,,66cf32c269c7951c97de25fc,66daf8f97b99d644b6352da9,2024-09-06_14h44.21.179,mdp,2024.2.1,Win32,166.6666667,66d7945b1baad48e845df3ce,,,,,,,,,,,,,,,,,,,,,356.5141,356.5141,356.5145,357.6838,1,1,right,0.663,,357.684,359.7625,1,0,right,359.7629,359.7632,,1,,1,359.7632,359.7632,359.7634,361.2594,0,4,4,4,1,0.8,0.2,0.4,0.6,,,,,,,,,,,,,,,1.5722,,0.2,0.8,0.4,0.6,0.8,0.2,0.6,0.4,1,0,,,,,,,,,,,,
,,66cf32c269c7951c97de25fc,66daf8f97b99d644b6352da9,2024-09-06_14h44.21.179,mdp,2024.2.1,Win32,166.6666667,66d7945b1baad48e845df3ce,,,,,,,,,,,,,,,,,,,,,361.2596,361.2596,361.26,364.1382,1,0,right,2.3737,,364.1428,367.5807,1,1,right,367.581,367.5812,,0,,0,367.5812,367.5812,367.5814,369.0775,0,5,5,5,1,0.8,0.2,0.4,0.6,,,,,,,,,,,,,,,2.9338,,0.2,0.8,0.4,0.6,0.8,0.2,0.6,0.4,1,0,,,,,,,,,,,,
,,66cf32c269c7951c97de25fc,66daf8f97b99d644b6352da9,2024-09-06_14h44.21.179,mdp,2024.2.1,Win32,166.6666667,66d7945b1baad48e845df3ce,,,,,,,,,,,,,,,,,,,,,369.0777,369.0777,369.0781,370.3018,1,1,right,0.7154,,370.3021,371.7261,1,0,right,371.7264,371.7266,,0,,1,371.7266,371.7266,371.7268,373.223,0,6,6,6,1,0.8,0.2,0.4,0.6,,,,,,,,,,,,,,,0.9142,,0.8,0.2,0.2,0.8,0.8,0.2,0.6,0.4,1,0,,,,,,,,,,,,
,,66cf32c269c7951c97de25fc,66daf8f97b99d644b6352da9,2024-09-06_14h44.21.179,mdp,2024.2.1,Win32,166.6666667,66d7945b1baad48e845df3ce,,,,,,,,,,,,,,,,,,,,,373.2231,373.2231,373.2235,374.4352,1,0,right,0.706,,374.4354,376.1867,0,0,left,376.1869,376.1871,,0,,1,376.1871,376.1871,376.1873,377.6836,0,7,7,7,1,0.8,0.2,0.4,0.6,,,,,,,,,,,,,,,1.2448,,0.8,0.2,0.2,0.8,0.8,0.2,0.6,0.4,1,0,,,,,,,,,,,,
,,66cf32c269c7951c97de25fc,66daf8f97b99d644b6352da9,2024-09-06_14h44.21.179,mdp,2024.2.1,Win32,166.6666667,66d7945b1baad48e845df3ce,,,,,,,,,,,,,,,,,,,,,377.6837,377.6837,377.684,379.0775,1,1,right,0.8856,,379.0779,380.526,1,0,right,380.5263,380.5266,,0,,1,380.5267,380.5267,380.5268,382.0229,0,8,8,8,1,0.8,0.2,0.4,0.6,,,,,,,,,,,,,,,0.9384,,0.8,0.2,0.2,0.8,0.8,0.2,0.6,0.4,1,0,,,,,,,,,,,,
,,66cf32c269c7951c97de25fc,66daf8f97b99d644b6352da9,2024-09-06_14h44.21.179,mdp,2024.2.1,Win32,166.6666667,66d7945b1baad48e845df3ce,,,,,,,,,,,,,,,,,,,,,382.0231,382.0231,382.0235,383.326,1,1,right,0.794,,383.3262,384.7745,1,1,right,384.7748,384.7749,,1,,0,384.7749,384.7749,384.7752,386.2714,0,9,9,9,1,0.8,0.2,0.4,0.6,,,,,,,,,,,,,,,0.9395,,0.8,0.2,0.2,0.8,0.4,0.6,0.2,0.8,1,0,,,,,,,,,,,,
,,66cf32c269c7951c97de25fc,66daf8f97b99d644b6352da9,2024-09-06_14h44.21.179,mdp,2024.2.1,Win32,166.6666667,66d7945b1baad48e845df3ce,,,,,,,,,,,,,,,,,,,,,386.2715,386.2715,386.2718,387.3138,1,1,right,0.5375,,387.3142,389.4653,0,1,left,389.4657,389.4658,,0,,0,389.4658,389.4658,389.466,390.9623,0,10,10,10,1,0.8,0.2,0.4,0.6,,,,,,,,,,,,,,,1.6472,,0.8,0.2,0.2,0.8,0.4,0.6,0.2,0.8,1,0,,,,,,,,,,,,
,,66cf32c269c7951c97de25fc,66daf8f97b99d644b6352da9,2024-09-06_14h44.21.179,mdp,2024.2.1,Win32,166.6666667,66d7945b1baad48e845df3ce,,,,,,,,,,,,,,,,,,,,,390.9624,390.9624,390.9628,391.9623,1,0,right,0.4946,,391.9626,393.5623,1,1,right,393.5626,393.5628,,1,,0,393.5628,393.5628,393.5629,395.0592,0,11,11,11,1,0.8,0.2,0.4,0.6,,,,,,,,,,,,,,,1.0936,,0.8,0.2,0.2,0.8,0.4,0.6,0.2,0.8,1,0,,,,,,,,,,,,
,,66cf32c269c7951c97de25fc,66daf8f97b99d644b6352da9,2024-09-06_14h44.21.179,mdp,2024.2.1,Win32,166.6666667,66d7945b1baad48e845df3ce,,,,,,,,,,,,,,,,,,,,,395.0593,395.0593,395.0597,395.9865,1,1,right,0.4217,,395.9868,397.829,1,1,right,397.8292,397.8294,,1,,0,397.8294,397.8294,397.8296,399.3259,0,12,12,12,1,0.8,0.2,0.4,0.6,,,,,,,,,,,,,,,1.3332,,0.8,0.2,0.2,0.8,0.4,0.6,0.2,0.8,1,0,,,,,,,,,,,,
,,66cf32c269c7951c97de25fc,66daf8f97b99d644b6352da9,2024-09-06_14h44.21.179,mdp,2024.2.1,Win32,166.6666667,66d7945b1baad48e845df3ce,,,,,,,,,,,,,,,,,,,,,399.326,399.326,399.3263,400.835,1,0,right,1.0032,,400.8354,403.5137,0,0,left,403.5142,403.5144,,0,,1,403.5144,403.5144,403.5146,405.0107,0,13,13,13,1,0.8,0.2,0.4,0.6,,,,,,,,,,,,,,,2.1729,,0.8,0.2,0.2,0.8,0.4,0.6,0.2,0.8,1,0,,,,,,,,,,,,
,,66cf32c269c7951c97de25fc,66daf8f97b99d644b6352da9,2024-09-06_14h44.21.179,mdp,2024.2.1,Win32,166.6666667,66d7945b1baad48e845df3ce,,,,,,,,,,,,,,,,,,,,,405.0108,405.0108,405.0112,406.241,1,0,right,0.7263,,406.2414,408.0107,0,0,left,408.011,408.0111,,1,,1,408.0112,408.0112,408.0114,409.5076,0,14,14,14,1,0.8,0.2,0.4,0.6,,,,,,,,,,,,,,,1.2639,,0.8,0.2,0.2,0.8,0.4,0.6,0.2,0.8,1,0,,,,,,,,,,,,
,,66cf32c269c7951c97de25fc,66daf8f97b99d644b6352da9,2024-09-06_14h44.21.179,mdp,2024.2.1,Win32,166.6666667,66d7945b1baad48e845df3ce,,,,,,,,,,,,,,,,,,,,,409.5078,409.5078,409.508,410.5622,1,1,right,0.5492,,410.5624,412.2894,1,0,right,412.2899,412.29,,1,,1,412.2901,412.2901,412.2902,413.7864,0,15,15,15,1,0.8,0.2,0.4,0.6,,,,,,,,,,,,,,,1.2218,,0.8,0.2,0.2,0.8,0.4,0.6,0.2,0.8,1,0,,,,,,,,,,,,
,,66cf32c269c7951c97de25fc,66daf8f97b99d644b6352da9,2024-09-06_14h44.21.179,mdp,2024.2.1,Win32,166.6666667,66d7945b1baad48e845df3ce,,,,,,,,,,,,,,,,,,,,,413.7866,413.7866,413.7868,414.9318,1,1,right,0.6385,,414.9321,416.9864,1,1,right,416.9867,416.9871,,1,,0,416.9871,416.9871,416.9873,418.4833,0,16,16,16,1,0.8,0.2,0.4,0.6,,,,,,,,,,,,,,,1.5491,,0.8,0.2,0.2,0.8,0.4,0.6,0.2,0.8,1,0,,,,,,,,,,,,
,,66cf32c269c7951c97de25fc,66daf8f97b99d644b6352da9,2024-09-06_14h44.21.179,mdp,2024.2.1,Win32,166.6666667,66d7945b1baad48e845df3ce,,,,,,,,,,,,,,,,,,,,,418.4834,418.4834,418.4838,419.4652,1,0,right,0.4775,,419.4656,421.6651,1,1,right,421.6654,421.6656,,1,,0,421.6656,421.6656,421.6658,423.1621,0,17,17,17,1,0.8,0.2,0.4,0.6,,,,,,,,,,,,,,,1.6949,,0.8,0.2,0.2,0.8,0.4,0.6,0.2,0.8,1,0,,,,,,,,,,,,
,,66cf32c269c7951c97de25fc,66daf8f97b99d644b6352da9,2024-09-06_14h44.21.179,mdp,2024.2.1,Win32,166.6666667,66d7945b1baad48e845df3ce,,,,,,,,,,,,,,,,,,,,,423.1622,423.1622,423.1625,424.253,1,1,right,0.5828,,424.2533,425.853,1,1,right,425.8533,425.8536,,1,,0,425.8536,425.8536,425.8539,427.35,0,18,18,18,1,0.8,0.2,0.4,0.6,,,,,,,,,,,,,,,1.0907,,0.8,0.2,0.2,0.8,0.4,0.6,0.2,0.8,1,0,,,,,,,,,,,,
,,66cf32c269c7951c97de25fc,66daf8f97b99d644b6352da9,2024-09-06_14h44.21.179,mdp,2024.2.1,Win32,166.6666667,66d7945b1baad48e845df3ce,,,,,,,,,,,,,,,,,,,,,427.3501,427.3501,427.3503,428.6409,1,0,right,0.7871,,428.6412,431.1378,1,0,right,431.1382,431.1384,,0,,1,431.1385,431.1385,431.1386,432.6348,0,19,19,19,1,0.8,0.2,0.4,0.6,,,,,,,,,,,,,,,1.991,,0.8,0.2,0.2,0.8,0.6,0.4,0.8,0.2,1,0,,,,,,,,,,,,
,,66cf32c269c7951c97de25fc,66daf8f97b99d644b6352da9,2024-09-06_14h44.21.179,mdp,2024.2.1,Win32,166.6666667,66d7945b1baad48e845df3ce,,,,,,,,,,,,,,,,,,,,,432.6349,432.6349,432.6352,433.5378,1,1,right,0.3981,,433.5381,434.8772,0,0,left,434.8775,434.8777,,1,,1,434.8777,434.8777,434.8779,436.3741,0,20,20,20,1,0.8,0.2,0.4,0.6,,,,,,,,,,,,,,,0.83,,0.8,0.2,0.2,0.8,0.8,0.2,0.4,0.6,1,0,,,,,,,,,,,,
,,66cf32c269c7951c97de25fc,66daf8f97b99d644b6352da9,2024-09-06_14h44.21.179,mdp,2024.2.1,Win32,166.6666667,66d7945b1baad48e845df3ce,,,,,,,,,,,,,,,,,,,,,436.3742,436.3742,436.3747,437.3014,1,0,right,0.4188,,437.3017,439.4348,0,0,left,439.4351,439.4353,,0,,1,439.4353,439.4353,439.4354,440.9317,0,21,21,21,1,0.8,0.2,0.4,0.6,,,,,,,,,,,,,,,1.6265,,0.8,0.2,0.2,0.8,0.8,0.2,0.4,0.6,1,0,,,,,,,,,,,,
,,66cf32c269c7951c97de25fc,66daf8f97b99d644b6352da9,2024-09-06_14h44.21.179,mdp,2024.2.1,Win32,166.6666667,66d7945b1baad48e845df3ce,,,,,,,,,,,,,,,,,,,,,440.9318,440.9318,440.9322,441.8832,1,0,right,0.4453,,441.8835,444.2044,0,0,left,444.209,444.2091,,0,,1,444.2091,444.2091,444.2093,445.7074,0,22,22,22,1,0.8,0.2,0.4,0.6,,,,,,,,,,,,,,,1.8137,,0.8,0.2,0.2,0.8,0.8,0.2,0.4,0.6,1,0,,,,,,,,,,,,
,,66cf32c269c7951c97de25fc,66daf8f97b99d644b6352da9,2024-09-06_14h44.21.179,mdp,2024.2.1,Win32,166.6666667,66d7945b1baad48e845df3ce,,,,,,,,,,,,,,,,,,,,,445.7076,445.7076,445.7078,446.8165,1,0,right,0.6056,,446.8169,448.7559,1,1,right,448.7562,448.7564,,1,,0,448.7565,448.7565,448.7566,450.2529,0,23,23,23,1,0.8,0.2,0.4,0.6,,,,,,,,,,,,,,,1.4323,,0.8,0.2,0.2,0.8,0.8,0.2,0.4,0.6,1,0,,,,,,,,,,,,
,,66cf32c269c7951c97de25fc,66daf8f97b99d644b6352da9,2024-09-06_14h44.21.179,mdp,2024.2.1,Win32,166.6666667,66d7945b1baad48e845df3ce,,,,,,,,,,,,,,,,,,,,,450.253,450.253,450.2533,451.2892,1,1,right,0.5321,,451.2895,453.7316,0,1,left,453.7319,453.7321,,0,,0,453.7321,453.7321,453.7323,455.2286,0,24,24,24,1,0.8,0.2,0.4,0.6,,,,,,,,,,,,,,,1.9347,,0.8,0.2,0.2,0.8,0.8,0.2,0.4,0.6,1,0,,,,,,,,,,,,
,,66cf32c269c7951c97de25fc,66daf8f97b99d644b6352da9,2024-09-06_14h44.21.179,mdp,2024.2.1,Win32,166.6666667,66d7945b1baad48e845df3ce,,,,,,,,,,,,,,,,,,,,,455.2286,455.2286,455.229,456.865,0,0,left,1.1325,,456.8652,460.174,0,0,left,460.1785,460.1786,,0,,1,460.1786,460.1787,460.1789,461.677,0,25,25,25,1,0.8,0.2,0.4,0.6,,,,,,,,,,,,,,,2.799,,0.8,0.2,0.2,0.8,0.8,0.2,0.4,0.6,1,0,,,,,,,,,,,,
,,66cf32c269c7951c97de25fc,66daf8f97b99d644b6352da9,2024-09-06_14h44.21.179,mdp,2024.2.1,Win32,166.6666667,66d7945b1baad48e845df3ce,,,,,,,,,,,,,,,,,,,,,461.6771,461.6771,461.6775,463.3982,0,0,left,1.2122,,463.3987,464.9134,0,0,left,464.9136,464.9138,,0,,1,464.9138,464.9138,464.9139,466.4103,0,26,26,26,1,0.8,0.2,0.4,0.6,,,,,,,,,,,,,,,1.0106,,0.8,0.2,0.2,0.8,0.8,0.2,0.4,0.6,1,0,,,,,,,,,,,,
,,66cf32c269c7951c97de25fc,66daf8f97b99d644b6352da9,2024-09-06_14h44.21.179,mdp,2024.2.1,Win32,166.6666667,66d7945b1baad48e845df3ce,,,,,,,,,,,,,,,,,,,,,466.4104,466.4104,466.4106,468.1012,0,0,left,1.1827,,468.1015,470.0164,0,0,left,470.0167,470.0169,,0,,1,470.0169,470.0169,470.0172,471.5133,0,27,27,27,1,0.8,0.2,0.4,0.6,,,,,,,,,,,,,,,1.4116,,0.8,0.2,0.2,0.8,0.8,0.2,0.4,0.6,1,0,,,,,,,,,,,,
,,66cf32c269c7951c97de25fc,66daf8f97b99d644b6352da9,2024-09-06_14h44.21.179,mdp,2024.2.1,Win32,166.6666667,66d7945b1baad48e845df3ce,,,,,,,,,,,,,,,,,,,,,471.5134,471.5134,471.5138,472.6648,0,0,left,0.6476,,472.6651,474.0164,0,0,left,474.0167,474.0169,,0,,1,474.0169,474.0169,474.0171,475.5133,0,28,28,28,1,0.8,0.2,0.4,0.6,,,,,,,,,,,,,,,0.848,,0.8,0.2,0.2,0.8,0.8,0.2,0.4,0.6,1,0,,,,,,,,,,,,
,,66cf32c269c7951c97de25fc,66daf8f97b99d644b6352da9,2024-09-06_14h44.21.179,mdp,2024.2.1,Win32,166.6666667,66d7945b1baad48e845df3ce,,,,,,,,,,,,,,,,,,,,,475.5134,475.5134,475.5138,476.3861,0,0,left,0.3676,,476.3862,477.6891,0,1,left,477.6894,477.6896,,0,,0,477.6896,477.6896,477.6898,479.186,0,29,29,29,1,0.8,0.2,0.4,0.6,,,,,,,,,,,,,,,0.7989,,0.8,0.2,0.2,0.8,0.8,0.2,0.4,0.6,1,0,,,,,,,,,,,,
,,66cf32c269c7951c97de25fc,66daf8f97b99d644b6352da9,2024-09-06_14h44.21.179,mdp,2024.2.1,Win32,166.6666667,66d7945b1baad48e845df3ce,,,,,,,,,,,,,,,,,,,,,479.1861,479.1861,479.1864,480.1618,0,0,left,0.471,,480.1621,481.9011,1,1,right,481.9014,481.9016,,1,,0,481.9016,481.9016,481.9018,483.398,0,30,30,30,1,0.8,0.2,0.4,0.6,,,,,,,,,,,,,,,1.231,,0.8,0.2,0.2,0.8,0.8,0.2,0.4,0.6,1,0,,,,,,,,,,,,
,,66cf32c269c7951c97de25fc,66daf8f97b99d644b6352da9,2024-09-06_14h44.21.179,mdp,2024.2.1,Win32,166.6666667,66d7945b1baad48e845df3ce,,,,,,,,,,,,,,,,,,,,,483.3982,483.3982,483.3984,484.6587,0,0,left,0.7549,,484.659,486.1859,0,1,left,486.1862,486.1864,,0,,0,486.1864,486.1864,486.1866,487.6828,0,31,31,31,1,0.8,0.2,0.4,0.6,,,,,,,,,,,,,,,1.0221,,0.8,0.2,0.2,0.8,0.8,0.2,0.4,0.6,1,0,,,,,,,,,,,,
,,66cf32c269c7951c97de25fc,66daf8f97b99d644b6352da9,2024-09-06_14h44.21.179,mdp,2024.2.1,Win32,166.6666667,66d7945b1baad48e845df3ce,,,,,,,,,,,,,,,,,,,,,487.683,487.683,487.6835,489.089,0,0,left,0.9019,,489.0892,490.2829,1,1,right,490.2832,490.2834,,0,,0,490.2834,490.2834,490.2836,491.7798,0,32,32,32,1,0.8,0.2,0.4,0.6,,,,,,,,,,,,,,,0.6879,,0.8,0.2,0.2,0.8,0.8,0.2,0.4,0.6,1,0,,,,,,,,,,,,
,,66cf32c269c7951c97de25fc,66daf8f97b99d644b6352da9,2024-09-06_14h44.21.179,mdp,2024.2.1,Win32,166.6666667,66d7945b1baad48e845df3ce,,,,,,,,,,,,,,,,,,,,,491.78,491.78,491.7804,492.9132,1,1,right,0.629,,492.9136,494.2768,1,0,right,494.2771,494.2773,,0,,1,494.2774,494.2774,494.2776,495.7738,0,33,33,33,1,0.8,0.2,0.4,0.6,,,,,,,,,,,,,,,0.8546,,0.8,0.2,0.2,0.8,0.8,0.2,0.4,0.6,1,0,,,,,,,,,,,,
,,66cf32c269c7951c97de25fc,66daf8f97b99d644b6352da9,2024-09-06_14h44.21.179,mdp,2024.2.1,Win32,166.6666667,66d7945b1baad48e845df3ce,,,,,,,,,,,,,,,,,,,,,495.7739,495.7739,495.7742,497.404,1,1,right,1.1231,,497.4043,498.7798,1,1,right,498.7801,498.7803,,0,,0,498.7803,498.7803,498.7805,500.2768,0,34,34,34,1,0.8,0.2,0.4,0.6,,,,,,,,,,,,,,,0.8686,,0.2,0.8,0.6,0.4,0.8,0.2,0.4,0.6,1,0,,,,,,,,,,,,
,,66cf32c269c7951c97de25fc,66daf8f97b99d644b6352da9,2024-09-06_14h44.21.179,mdp,2024.2.1,Win32,166.6666667,66d7945b1baad48e845df3ce,,,,,,,,,,,,,,,,,,,,,500.2769,500.2769,500.2772,501.1556,0,1,left,0.3722,,501.1558,502.9737,0,0,left,502.974,502.9742,,0,,1,502.9742,502.9742,502.9745,504.4707,0,35,35,35,1,0.8,0.2,0.4,0.6,,,,,,,,,,,,,,,1.3094,,0.2,0.8,0.6,0.4,0.6,0.4,0.6,0.4,1,0,,,,,,,,,,,,
,,66cf32c269c7951c97de25fc,66daf8f97b99d644b6352da9,2024-09-06_14h44.21.179,mdp,2024.2.1,Win32,166.6666667,66d7945b1baad48e845df3ce,,,,,,,,,,,,,,,,,,,,,504.4708,504.4708,504.4712,505.3798,0,0,left,0.4021,,505.3801,507.9071,0,1,left,507.9073,507.9076,,1,,0,507.9076,507.9076,507.9077,509.404,0,36,36,36,1,0.8,0.2,0.4,0.6,,,,,,,,,,,,,,,2.0199,,0.2,0.8,0.6,0.4,0.6,0.4,0.6,0.4,1,0,,,,,,,,,,,,
,,66cf32c269c7951c97de25fc,66daf8f97b99d644b6352da9,2024-09-06_14h44.21.179,mdp,2024.2.1,Win32,166.6666667,66d7945b1baad48e845df3ce,,,,,,,,,,,,,,,,,,,,,509.4041,509.4041,509.4045,510.5494,1,0,right,0.6367,,510.5497,512.4646,1,0,right,512.465,512.4651,,1,,1,512.4652,512.4652,512.4653,513.9615,0,37,37,37,1,0.8,0.2,0.4,0.6,,,,,,,,,,,,,,,1.4115,,0.2,0.8,0.6,0.4,0.6,0.4,0.6,0.4,1,0,,,,,,,,,,,,
,,66cf32c269c7951c97de25fc,66daf8f97b99d644b6352da9,2024-09-06_14h44.21.179,mdp,2024.2.1,Win32,166.6666667,66d7945b1baad48e845df3ce,,,,,,,,,,,,,,,,,,,,,513.9617,513.9617,513.9621,514.7858,1,1,right,0.3194,,514.7862,516.107,1,0,right,516.1073,516.1075,,0,,1,516.1075,516.1075,516.1077,517.6039,0,38,38,38,1,0.8,0.2,0.4,0.6,,,,,,,,,,,,,,,0.814,,0.2,0.8,0.6,0.4,0.6,0.4,0.6,0.4,1,0,,,,,,,,,,,,
,,66cf32c269c7951c97de25fc,66daf8f97b99d644b6352da9,2024-09-06_14h44.21.179,mdp,2024.2.1,Win32,166.6666667,66d7945b1baad48e845df3ce,,,,,,,,,,,,,,,,,,,,,517.604,517.604,517.6044,518.3736,1,1,right,0.261,,518.3739,519.6585,1,0,right,519.6588,519.659,,0,,1,519.659,519.659,519.6591,521.1554,0,39,39,39,1,0.8,0.2,0.4,0.6,,,,,,,,,,,,,,,0.7791,,0.2,0.8,0.6,0.4,0.6,0.4,0.6,0.4,1,0,,,,,,,,,,,,
,,66cf32c269c7951c97de25fc,66daf8f97b99d644b6352da9,2024-09-06_14h44.21.179,mdp,2024.2.1,Win32,166.6666667,66d7945b1baad48e845df3ce,,,,,,,,,,,,,,,,,,,,,521.1555,521.1555,521.156,521.9857,1,1,right,0.3252,,521.986,523.113,1,0,right,523.1132,523.1134,,1,,1,523.1134,523.1134,523.1136,524.61,0,40,40,40,1,0.8,0.2,0.4,0.6,,,,,,,,,,,,,,,0.6231,,0.4,0.6,0.4,0.6,0.6,0.4,0.6,0.4,1,0,,,,,,,,,,,,
,,66cf32c269c7951c97de25fc,66daf8f97b99d644b6352da9,2024-09-06_14h44.21.179,mdp,2024.2.1,Win32,166.6666667,66d7945b1baad48e845df3ce,,,,,,,,,,,,,,,,,,,,,524.6101,524.6101,524.6104,525.3979,1,1,right,0.2788,,525.3981,526.41,1,0,right,526.4102,526.4105,,1,,1,526.4105,526.4105,526.4107,527.9069,0,41,41,41,1,0.8,0.2,0.4,0.6,,,,,,,,,,,,,,,0.507,,0.4,0.6,0.4,0.6,0.6,0.4,0.6,0.4,1,0,,,,,,,,,,,,
,,66cf32c269c7951c97de25fc,66daf8f97b99d644b6352da9,2024-09-06_14h44.21.179,mdp,2024.2.1,Win32,166.6666667,66d7945b1baad48e845df3ce,,,,,,,,,,,,,,,,,,,,,527.907,527.907,527.9073,528.7009,1,1,right,0.2858,,528.7011,529.913,0,0,left,529.9133,529.9135,,1,,1,529.9135,529.9135,529.9137,531.4099,0,42,42,42,1,0.8,0.2,0.4,0.6,,,,,,,,,,,,,,,0.708,,0.4,0.6,0.4,0.6,0.6,0.4,0.6,0.4,1,0,,,,,,,,,,,,
,,66cf32c269c7951c97de25fc,66daf8f97b99d644b6352da9,2024-09-06_14h44.21.179,mdp,2024.2.1,Win32,166.6666667,66d7945b1baad48e845df3ce,,,,,,,,,,,,,,,,,,,,,531.41,531.41,531.4102,532.2523,1,0,right,0.3348,,532.2526,534.0523,1,0,right,534.0526,534.0528,,1,,1,534.0528,534.0528,534.053,535.5493,0,43,43,43,1,0.8,0.2,0.4,0.6,,,,,,,,,,,,,,,1.2914,,0.4,0.6,0.4,0.6,0.6,0.4,0.6,0.4,1,0,,,,,,,,,,,,
,,66cf32c269c7951c97de25fc,66daf8f97b99d644b6352da9,2024-09-06_14h44.21.179,mdp,2024.2.1,Win32,166.6666667,66d7945b1baad48e845df3ce,,,,,,,,,,,,,,,,,,,,,535.5494,535.5494,535.5496,536.4038,1,1,right,0.3475,,536.4041,537.7493,1,1,right,537.7495,537.7498,,0,,0,537.7498,537.7498,537.75,539.2462,0,44,44,44,1,0.8,0.2,0.4,0.6,,,,,,,,,,,,,,,0.8358,,0.4,0.6,0.4,0.6,0.6,0.4,0.6,0.4,1,0,,,,,,,,,,,,
,,66cf32c269c7951c97de25fc,66daf8f97b99d644b6352da9,2024-09-06_14h44.21.179,mdp,2024.2.1,Win32,166.6666667,66d7945b1baad48e845df3ce,,,,,,,,,,,,,,,,,,,,,539.2463,539.2463,539.2466,540.1068,1,0,right,0.3546,,540.1071,542.234,0,1,left,542.2343,542.2345,,0,,0,542.2345,542.2345,542.2347,543.731,0,45,45,45,1,0.8,0.2,0.4,0.6,,,,,,,,,,,,,,,1.6209,,0.4,0.6,0.4,0.6,0.6,0.4,0.6,0.4,1,0,,,,,,,,,,,,
,,66cf32c269c7951c97de25fc,66daf8f97b99d644b6352da9,2024-09-06_14h44.21.179,mdp,2024.2.1,Win32,166.6666667,66d7945b1baad48e845df3ce,,,,,,,,,,,,,,,,,,,,,543.7312,543.7312,543.7315,544.4825,1,1,right,0.2459,,544.4828,545.6523,1,0,right,545.6526,545.6527,,1,,1,545.6527,545.6527,545.653,547.1492,0,46,46,46,1,0.8,0.2,0.4,0.6,,,,,,,,,,,,,,,0.6611,,0.4,0.6,0.4,0.6,0.6,0.4,0.6,0.4,1,0,,,,,,,,,,,,
,,66cf32c269c7951c97de25fc,66daf8f97b99d644b6352da9,2024-09-06_14h44.21.179,mdp,2024.2.1,Win32,166.6666667,66d7945b1baad48e845df3ce,,,,,,,,,,,,,,,,,,,,,547.1493,547.1493,547.1496,547.925,1,0,right,0.2675,,547.9252,549.0098,1,0,right,549.0101,549.0103,,0,,1,549.0103,549.0103,549.0105,550.5067,0,47,47,47,1,0.8,0.2,0.4,0.6,,,,,,,,,,,,,,,0.5787,,0.4,0.6,0.4,0.6,0.4,0.6,0.8,0.2,1,0,,,,,,,,,,,,
,,66cf32c269c7951c97de25fc,66daf8f97b99d644b6352da9,2024-09-06_14h44.21.179,mdp,2024.2.1,Win32,166.6666667,66d7945b1baad48e845df3ce,,,,,,,,,,,,,,,,,,,,,550.5068,550.5068,550.5071,551.3795,1,1,right,0.3659,,551.3798,552.9492,1,0,right,552.9495,552.9497,,0,,1,552.9497,552.9497,552.9499,554.4461,0,48,48,48,1,0.8,0.2,0.4,0.6,,,,,,,,,,,,,,,1.0603,,0.4,0.6,0.4,0.6,0.4,0.6,0.8,0.2,1,0,,,,,,,,,,,,
,,66cf32c269c7951c97de25fc,66daf8f97b99d644b6352da9,2024-09-06_14h44.21.179,mdp,2024.2.1,Win32,166.6666667,66d7945b1baad48e845df3ce,,,,,,,,,,,,,,,,,,,,,554.4462,554.4462,554.4465,555.9613,0,1,left,1.0107,,555.9616,557.8886,1,1,right,557.8888,557.889,,0,,0,557.8891,557.8891,557.8892,559.3855,0,49,49,49,1,0.8,0.2,0.4,0.6,,,,,,,,,,,,,,,1.4235,,0.4,0.6,0.4,0.6,0.4,0.6,0.8,0.2,1,0,,,,,,,,,,,,
,,66cf32c269c7951c97de25fc,66daf8f97b99d644b6352da9,2024-09-06_14h44.21.179,mdp,2024.2.1,Win32,166.6666667,66d7945b1baad48e845df3ce,,,,,,,,,,,,,,,,,,,,,,,,,,,,,,,,,,,,,,,,,,,,,,,,,,,,,,,,559.3856,617.8942,0,1,1,7,1,imgs/dog.png,imgs/cat.png,imgs/kangaroo.png,imgs/bear.png,imgs/pig.png,,,,,,,,,,,,,,,,,,,,,,,,
,,66cf32c269c7951c97de25fc,66daf8f97b99d644b6352da9,2024-09-06_14h44.21.179,mdp,2024.2.1,Win32,166.6666667,66d7945b1baad48e845df3ce,,,,,,,,,,,,,,3,seqs/st3seq38.csv,617.8947,620.0821,space,1.6825,,620.0851,620.0851,620.0854,622.1608,1,0,right,1.5726,,622.1612,624.0275,1,1,right,624.0278,625.7002,1,1,right,0,625.7002,625.7002,625.7006,627.1972,0,0,0,0,1,0.2,0.8,0.6,0.4,,,,,,,,,,,,,,,1.3577,,0.2,0.8,0.4,0.6,0.6,0.4,0.4,0.6,,,1.1638,,0.2,0.8,0.6,0.4,0.6,0.4,0.2,0.8,1,0
,,66cf32c269c7951c97de25fc,66daf8f97b99d644b6352da9,2024-09-06_14h44.21.179,mdp,2024.2.1,Win32,166.6666667,66d7945b1baad48e845df3ce,,,,,,,,,,,,,,,,,,,,,627.1973,627.1973,627.1977,628.179,0,1,left,0.4756,,628.1793,629.5608,0,0,left,629.5611,630.8335,0,1,left,0,630.8336,630.8336,630.8338,632.3304,0,1,1,1,1,0.2,0.8,0.6,0.4,,,,,,,,,,,,,,,0.8755,,0.2,0.8,0.4,0.6,0.6,0.4,0.4,0.6,,,0.7667,,0.2,0.8,0.6,0.4,0.6,0.4,0.2,0.8,1,0
,,66cf32c269c7951c97de25fc,66daf8f97b99d644b6352da9,2024-09-06_14h44.21.179,mdp,2024.2.1,Win32,166.6666667,66d7945b1baad48e845df3ce,,,,,,,,,,,,,,,,,,,,,632.3307,632.3307,632.3309,633.1608,1,1,right,0.3262,,633.1612,634.3305,1,0,right,634.3307,635.3972,0,0,left,1,635.3972,635.3972,635.3975,636.8941,0,2,2,2,1,0.2,0.8,0.6,0.4,,,,,,,,,,,,,,,0.6637,,0.2,0.8,0.4,0.6,0.6,0.4,0.4,0.6,,,0.5581,,0.2,0.8,0.6,0.4,0.6,0.4,0.2,0.8,1,0
,,66cf32c269c7951c97de25fc,66daf8f97b99d644b6352da9,2024-09-06_14h44.21.179,mdp,2024.2.1,Win32,166.6666667,66d7945b1baad48e845df3ce,,,,,,,,,,,,,,,,,,,,,636.8943,636.8943,636.8945,637.785,1,0,right,0.3864,,637.7853,638.7063,1,1,right,638.7065,639.785,0,0,left,1,639.785,639.785,639.7854,641.2819,0,3,3,3,1,0.2,0.8,0.6,0.4,,,,,,,,,,,,,,,0.4146,,0.2,0.8,0.4,0.6,0.6,0.4,0.4,0.6,,,0.5732,,0.2,0.8,0.6,0.4,0.6,0.4,0.2,0.8,1,0
,,66cf32c269c7951c97de25fc,66daf8f97b99d644b6352da9,2024-09-06_14h44.21.179,mdp,2024.2.1,Win32,166.6666667,66d7945b1baad48e845df3ce,,,,,,,,,,,,,,,,,,,,,641.2821,641.2821,641.2823,642.1789,1,0,right,0.3906,,642.1792,642.9547,1,0,right,642.955,643.8335,0,0,left,1,643.8335,643.8335,643.8338,645.3304,0,4,4,4,1,0.2,0.8,0.6,0.4,,,,,,,,,,,,,,,0.2698,,0.2,0.8,0.4,0.6,0.6,0.4,0.4,0.6,,,0.3729,,0.2,0.8,0.6,0.4,0.6,0.4,0.2,0.8,1,0
,,66cf32c269c7951c97de25fc,66daf8f97b99d644b6352da9,2024-09-06_14h44.21.179,mdp,2024.2.1,Win32,166.6666667,66d7945b1baad48e845df3ce,,,,,,,,,,,,,,,,,,,,,645.3306,645.3306,645.3309,646.1728,0,0,left,0.3343,,646.1731,646.9607,0,1,left,646.961,647.7486,1,1,right,0,647.7487,647.7487,647.7489,649.2455,0,5,5,5,1,0.2,0.8,0.6,0.4,,,,,,,,,,,,,,,0.2837,,0.2,0.8,0.4,0.6,0.6,0.4,0.4,0.6,,,0.2787,,0.2,0.8,0.6,0.4,0.6,0.4,0.2,0.8,1,0
,,66cf32c269c7951c97de25fc,66daf8f97b99d644b6352da9,2024-09-06_14h44.21.179,mdp,2024.2.1,Win32,166.6666667,66d7945b1baad48e845df3ce,,,,,,,,,,,,,,,,,,,,,649.2456,649.2456,649.2459,650.3243,0,1,left,0.5712,,650.3246,651.0819,0,0,left,651.0822,652.1364,0,1,left,0,652.1364,652.1364,652.1368,653.6334,0,6,6,6,1,0.2,0.8,0.6,0.4,,,,,,,,,,,,,,,0.2514,,0.2,0.8,0.4,0.6,0.6,0.4,0.4,0.6,,,0.5497,,0.2,0.8,0.6,0.4,0.6,0.4,0.2,0.8,1,0
,,66cf32c269c7951c97de25fc,66daf8f97b99d644b6352da9,2024-09-06_14h44.21.179,mdp,2024.2.1,Win32,166.6666667,66d7945b1baad48e845df3ce,,,,,,,,,,,,,,,,,,,,,653.6335,653.6335,653.6338,654.5728,1,1,right,0.4312,,654.5731,655.3789,1,1,right,655.3792,656.8334,1,0,right,1,656.8334,656.8334,656.8337,658.3303,0,7,7,7,1,0.2,0.8,0.6,0.4,,,,,,,,,,,,,,,0.2998,,0.2,0.8,0.4,0.6,0.6,0.4,0.4,0.6,,,0.9486,,0.2,0.8,0.6,0.4,0.6,0.4,0.2,0.8,1,0
,,66cf32c269c7951c97de25fc,66daf8f97b99d644b6352da9,2024-09-06_14h44.21.179,mdp,2024.2.1,Win32,166.6666667,66d7945b1baad48e845df3ce,,,,,,,,,,,,,,,,,,,,,658.3304,658.3305,658.3307,659.2697,1,0,right,0.4304,,659.27,660.0697,1,1,right,660.07,661.0757,1,1,right,0,661.0758,661.0758,661.0761,662.5727,0,8,8,8,1,0.2,0.8,0.6,0.4,,,,,,,,,,,,,,,0.2901,,0.2,0.8,0.4,0.6,0.6,0.4,0.4,0.6,,,0.4989,,0.2,0.8,0.6,0.4,0.6,0.4,0.2,0.8,1,0
,,66cf32c269c7951c97de25fc,66daf8f97b99d644b6352da9,2024-09-06_14h44.21.179,mdp,2024.2.1,Win32,166.6666667,66d7945b1baad48e845df3ce,,,,,,,,,,,,,,,,,,,,,662.5729,662.5729,662.5732,663.6818,1,0,right,0.604,,663.682,664.6333,1,1,right,664.6337,665.6333,0,1,left,0,665.6333,665.6333,665.6337,667.1303,0,9,9,9,1,0.2,0.8,0.6,0.4,,,,,,,,,,,,,,,0.4468,,0.2,0.8,0.4,0.6,0.6,0.4,0.4,0.6,,,0.4954,,0.2,0.8,0.6,0.4,0.6,0.4,0.2,0.8,1,0
,,66cf32c269c7951c97de25fc,66daf8f97b99d644b6352da9,2024-09-06_14h44.21.179,mdp,2024.2.1,Win32,166.6666667,66d7945b1baad48e845df3ce,,,,,,,,,,,,,,,,,,,,,667.1304,667.1304,667.1307,668.4334,1,0,right,0.7983,,668.4336,669.6575,1,0,right,669.6579,671.403,1,0,right,1,671.403,671.403,671.4033,672.8999,0,10,10,10,1,0.2,0.8,0.6,0.4,,,,,,,,,,,,,,,0.7193,,0.2,0.8,0.4,0.6,0.6,0.4,0.4,0.6,,,1.2381,,0.2,0.8,0.6,0.4,0.6,0.4,0.2,0.8,1,0
,,66cf32c269c7951c97de25fc,66daf8f97b99d644b6352da9,2024-09-06_14h44.21.179,mdp,2024.2.1,Win32,166.6666667,66d7945b1baad48e845df3ce,,,,,,,,,,,,,,,,,,,,,672.9001,672.9001,672.9004,673.8272,1,0,right,0.4207,,673.8275,675.0211,1,0,right,675.0214,676.1302,1,1,right,0,676.1302,676.1302,676.1306,677.6272,0,11,11,11,1,0.2,0.8,0.6,0.4,,,,,,,,,,,,,,,0.6851,,0.2,0.8,0.4,0.6,0.6,0.4,0.4,0.6,,,0.6033,,0.2,0.8,0.6,0.4,0.6,0.4,0.2,0.8,1,0
,,66cf32c269c7951c97de25fc,66daf8f97b99d644b6352da9,2024-09-06_14h44.21.179,mdp,2024.2.1,Win32,166.6666667,66d7945b1baad48e845df3ce,,,,,,,,,,,,,,,,,,,,,677.6273,677.6273,677.6276,678.5787,1,0,right,0.4453,,678.579,679.6757,1,1,right,679.676,682.3969,1,1,right,0,682.3969,682.3969,682.3971,683.8938,0,12,12,12,1,0.2,0.8,0.6,0.4,,,,,,,,,,,,,,,0.5898,,0.2,0.8,0.4,0.6,0.6,0.4,0.4,0.6,,,2.2119,,0.2,0.8,0.6,0.4,0.6,0.4,0.2,0.8,1,0
,,66cf32c269c7951c97de25fc,66daf8f97b99d644b6352da9,2024-09-06_14h44.21.179,mdp,2024.2.1,Win32,166.6666667,66d7945b1baad48e845df3ce,,,,,,,,,,,,,,,,,,,,,683.8939,683.8939,683.8943,684.6332,0,1,left,0.2347,,684.6335,685.6514,0,0,left,685.6516,687.8999,0,1,left,0,687.8999,687.8999,687.9002,689.3968,0,13,13,13,1,0.2,0.8,0.6,0.4,,,,,,,,,,,,,,,0.5103,,0.2,0.8,0.4,0.6,0.6,0.4,0.4,0.6,,,1.7401,,0.2,0.8,0.6,0.4,0.6,0.4,0.2,0.8,1,0
,,66cf32c269c7951c97de25fc,66daf8f97b99d644b6352da9,2024-09-06_14h44.21.179,mdp,2024.2.1,Win32,166.6666667,66d7945b1baad48e845df3ce,,,,,,,,,,,,,,,,,,,,,689.3969,689.3969,689.3973,690.3726,1,0,right,0.4677,,690.3728,691.6271,1,1,right,691.6274,693.3847,0,0,left,1,693.3847,693.3847,693.3849,694.8816,0,14,14,14,1,0.2,0.8,0.6,0.4,,,,,,,,,,,,,,,0.7469,,0.2,0.8,0.4,0.6,0.6,0.4,0.4,0.6,,,1.2524,,0.2,0.8,0.6,0.4,0.6,0.4,0.2,0.8,1,0
,,66cf32c269c7951c97de25fc,66daf8f97b99d644b6352da9,2024-09-06_14h44.21.179,mdp,2024.2.1,Win32,166.6666667,66d7945b1baad48e845df3ce,,,,,,,,,,,,,,,,,,,,,694.8817,694.8817,694.882,696.4695,1,0,right,1.0791,,696.4698,697.4514,1,1,right,697.4517,699.6694,0,1,left,0,699.6695,699.6695,699.6698,701.1664,0,15,15,15,1,0.2,0.8,0.6,0.4,,,,,,,,,,,,,,,0.4752,,0.2,0.8,0.4,0.6,0.6,0.4,0.4,0.6,,,1.7093,,0.2,0.8,0.6,0.4,0.6,0.4,0.2,0.8,1,0
,,66cf32c269c7951c97de25fc,66daf8f97b99d644b6352da9,2024-09-06_14h44.21.179,mdp,2024.2.1,Win32,166.6666667,66d7945b1baad48e845df3ce,,,,,,,,,,,,,,,,,,,,,701.1666,701.1666,701.1669,702.0998,1,1,right,0.4262,,702.1001,703.0755,1,0,right,703.0758,704.4089,1,0,right,1,704.4089,704.4089,704.4092,705.9058,0,16,16,16,1,0.2,0.8,0.6,0.4,,,,,,,,,,,,,,,0.4679,,0.2,0.8,0.4,0.6,0.6,0.4,0.4,0.6,,,0.8281,,0.2,0.8,0.6,0.4,0.6,0.4,0.2,0.8,1,0
,,66cf32c269c7951c97de25fc,66daf8f97b99d644b6352da9,2024-09-06_14h44.21.179,mdp,2024.2.1,Win32,166.6666667,66d7945b1baad48e845df3ce,,,,,,,,,,,,,,,,,,,,,705.9059,705.9059,705.9063,706.8694,1,1,right,0.4549,,706.8697,708.1725,1,1,right,708.1727,711.3543,1,1,right,0,711.3543,711.3543,711.3592,712.8512,0,17,17,17,1,0.2,0.8,0.6,0.4,,,,,,,,,,,,,,,0.7951,,0.2,0.8,0.4,0.6,0.6,0.4,0.4,0.6,,,2.6752,,0.2,0.8,0.6,0.4,0.6,0.4,0.2,0.8,1,0
,,66cf32c269c7951c97de25fc,66daf8f97b99d644b6352da9,2024-09-06_14h44.21.179,mdp,2024.2.1,Win32,166.6666667,66d7945b1baad48e845df3ce,,,,,,,,,,,,,,,,,,,,,712.8514,712.8514,712.8517,714.0815,0,1,left,0.7254,,714.0818,715.6087,0,0,left,715.609,717.1785,0,1,left,0,717.1785,717.1785,717.1788,718.6754,0,18,18,18,1,0.2,0.8,0.6,0.4,,,,,,,,,,,,,,,1.0231,,0.2,0.8,0.4,0.6,0.6,0.4,0.4,0.6,,,1.0627,,0.8,0.2,0.8,0.2,0.6,0.4,0.2,0.8,1,0
,,66cf32c269c7951c97de25fc,66daf8f97b99d644b6352da9,2024-09-06_14h44.21.179,mdp,2024.2.1,Win32,166.6666667,66d7945b1baad48e845df3ce,,,,,,,,,,,,,,,,,,,,,718.6755,718.6755,718.6758,719.7966,1,1,right,0.6131,,719.797,721.0936,1,1,right,721.0939,722.1784,1,1,right,0,722.1784,722.1784,722.1787,723.6754,0,19,19,19,1,0.2,0.8,0.6,0.4,,,,,,,,,,,,,,,0.788,,0.2,0.8,0.4,0.6,0.6,0.4,0.4,0.6,,,0.5778,,0.8,0.2,0.8,0.2,0.6,0.4,0.2,0.8,1,0
,,66cf32c269c7951c97de25fc,66daf8f97b99d644b6352da9,2024-09-06_14h44.21.179,mdp,2024.2.1,Win32,166.6666667,66d7945b1baad48e845df3ce,,,,,,,,,,,,,,,,,,,,,723.6755,723.6755,723.676,724.9784,1,1,right,0.7972,,724.9787,725.8936,1,1,right,725.8939,726.9723,1,1,right,0,726.9723,726.9723,726.9726,728.4693,0,20,20,20,1,0.2,0.8,0.6,0.4,,,,,,,,,,,,,,,0.4063,,0.2,0.8,0.4,0.6,0.6,0.4,0.4,0.6,,,0.571,,0.8,0.2,0.8,0.2,0.6,0.4,0.2,0.8,1,0
,,66cf32c269c7951c97de25fc,66daf8f97b99d644b6352da9,2024-09-06_14h44.21.179,mdp,2024.2.1,Win32,166.6666667,66d7945b1baad48e845df3ce,,,,,,,,,,,,,,,,,,,,,728.4694,728.4694,728.4698,729.3239,1,0,right,0.3472,,729.3241,730.1784,1,1,right,730.1787,731.9724,0,1,left,0,731.9724,731.9724,731.9726,733.4693,0,21,21,21,1,0.2,0.8,0.6,0.4,,,,,,,,,,,,,,,0.3477,,0.2,0.8,0.4,0.6,0.2,0.8,0.6,0.4,,,1.286,,0.8,0.2,0.8,0.2,0.6,0.4,0.2,0.8,1,0
,,66cf32c269c7951c97de25fc,66daf8f97b99d644b6352da9,2024-09-06_14h44.21.179,mdp,2024.2.1,Win32,166.6666667,66d7945b1baad48e845df3ce,,,,,,,,,,,,,,,,,,,,,733.4694,733.4694,733.4698,734.4026,1,1,right,0.4272,,734.4029,735.2693,1,1,right,735.2696,736.6753,1,1,right,0,736.6754,736.6754,736.6757,738.1723,0,22,22,22,1,0.2,0.8,0.6,0.4,,,,,,,,,,,,,,,0.3568,,0.2,0.8,0.4,0.6,0.2,0.8,0.6,0.4,,,0.8993,,0.8,0.2,0.8,0.2,0.6,0.4,0.2,0.8,1,0
,,66cf32c269c7951c97de25fc,66daf8f97b99d644b6352da9,2024-09-06_14h44.21.179,mdp,2024.2.1,Win32,166.6666667,66d7945b1baad48e845df3ce,,,,,,,,,,,,,,,,,,,,,738.1724,738.1724,738.1727,739.1299,1,0,right,0.4523,,739.1303,740.148,1,1,right,740.1483,741.3723,0,0,left,1,741.3723,741.3723,741.3725,742.8692,0,23,23,23,1,0.2,0.8,0.6,0.4,,,,,,,,,,,,,,,0.5096,,0.2,0.8,0.4,0.6,0.2,0.8,0.6,0.4,,,0.7164,,0.8,0.2,0.8,0.2,0.8,0.2,0.8,0.2,1,0
,,66cf32c269c7951c97de25fc,66daf8f97b99d644b6352da9,2024-09-06_14h44.21.179,mdp,2024.2.1,Win32,166.6666667,66d7945b1baad48e845df3ce,,,,,,,,,,,,,,,,,,,,,742.8694,742.8694,742.8698,743.7541,1,0,right,0.3794,,743.7544,744.7602,1,0,right,744.7604,745.9238,1,0,right,1,745.9238,745.9238,745.924,747.4207,0,24,24,24,1,0.2,0.8,0.6,0.4,,,,,,,,,,,,,,,0.5024,,0.2,0.8,0.4,0.6,0.2,0.8,0.6,0.4,,,0.6554,,0.8,0.2,0.8,0.2,0.8,0.2,0.8,0.2,1,0
,,66cf32c269c7951c97de25fc,66daf8f97b99d644b6352da9,2024-09-06_14h44.21.179,mdp,2024.2.1,Win32,166.6666667,66d7945b1baad48e845df3ce,,,,,,,,,,,,,,,,,,,,,747.4208,747.4208,747.4212,748.3177,1,1,right,0.388,,748.3179,749.148,1,0,right,749.1482,752.1177,1,0,right,1,752.1177,752.1177,752.118,753.6146,0,25,25,25,1,0.2,0.8,0.6,0.4,,,,,,,,,,,,,,,0.3217,,0.2,0.8,0.4,0.6,0.2,0.8,0.6,0.4,,,2.4606,,0.8,0.2,0.8,0.2,0.8,0.2,0.8,0.2,1,0
,,66cf32c269c7951c97de25fc,66daf8f97b99d644b6352da9,2024-09-06_14h44.21.179,mdp,2024.2.1,Win32,166.6666667,66d7945b1baad48e845df3ce,,,,,,,,,,,,,,,,,,,,,753.6147,753.6147,753.6152,755.0025,1,0,right,0.8818,,755.0028,755.8207,1,1,right,755.8209,757.0812,0,0,left,1,757.0813,757.0813,757.0816,758.5782,0,26,26,26,1,0.2,0.8,0.6,0.4,,,,,,,,,,,,,,,0.3089,,0.2,0.8,0.4,0.6,0.2,0.8,0.6,0.4,,,0.7547,,0.8,0.2,0.8,0.2,0.8,0.2,0.8,0.2,1,0
,,66cf32c269c7951c97de25fc,66daf8f97b99d644b6352da9,2024-09-06_14h44.21.179,mdp,2024.2.1,Win32,166.6666667,66d7945b1baad48e845df3ce,,,,,,,,,,,,,,,,,,,,,758.5784,758.5784,758.5788,759.4934,1,0,right,0.4064,,759.4936,760.5964,1,0,right,760.5967,762.2509,0,0,left,1,762.2509,762.2509,762.2512,763.7479,0,27,27,27,1,0.2,0.8,0.6,0.4,,,,,,,,,,,,,,,0.5951,,0.2,0.8,0.4,0.6,0.2,0.8,0.6,0.4,,,1.147,,0.8,0.2,0.8,0.2,0.8,0.2,0.8,0.2,1,0
,,66cf32c269c7951c97de25fc,66daf8f97b99d644b6352da9,2024-09-06_14h44.21.179,mdp,2024.2.1,Win32,166.6666667,66d7945b1baad48e845df3ce,,,,,,,,,,,,,,,,,,,,,763.748,763.748,763.7484,764.5721,1,1,right,0.3166,,764.5724,765.4448,1,1,right,765.4451,766.5842,1,0,right,1,766.5842,766.5842,766.5845,768.0812,0,28,28,28,1,0.2,0.8,0.6,0.4,,,,,,,,,,,,,,,0.3633,,0.2,0.8,0.4,0.6,0.2,0.8,0.6,0.4,,,0.6345,,0.8,0.2,0.8,0.2,0.8,0.2,0.8,0.2,1,0
,,66cf32c269c7951c97de25fc,66daf8f97b99d644b6352da9,2024-09-06_14h44.21.179,mdp,2024.2.1,Win32,166.6666667,66d7945b1baad48e845df3ce,,,,,,,,,,,,,,,,,,,,,768.0813,768.0813,768.0816,769.0085,1,1,right,0.4233,,769.0088,769.8509,1,1,right,769.8511,770.7963,0,0,left,1,770.7963,770.7963,770.7966,772.2933,0,29,29,29,1,0.2,0.8,0.6,0.4,,,,,,,,,,,,,,,0.336,,0.2,0.8,0.4,0.6,0.2,0.8,0.6,0.4,,,0.4375,,0.8,0.2,0.8,0.2,0.8,0.2,0.8,0.2,1,0
,,66cf32c269c7951c97de25fc,66daf8f97b99d644b6352da9,2024-09-06_14h44.21.179,mdp,2024.2.1,Win32,166.6666667,66d7945b1baad48e845df3ce,,,,,,,,,,,,,,,,,,,,,772.2934,772.2934,772.2938,773.1963,1,0,right,0.3952,,773.1966,774.0691,1,0,right,774.0693,775.3296,1,0,right,1,775.3296,775.3296,775.3299,776.8266,0,30,30,30,1,0.2,0.8,0.6,0.4,,,,,,,,,,,,,,,0.3631,,0.2,0.8,0.4,0.6,0.2,0.8,0.6,0.4,,,0.7543,,0.8,0.2,0.8,0.2,0.8,0.2,0.8,0.2,1,0
,,66cf32c269c7951c97de25fc,66daf8f97b99d644b6352da9,2024-09-06_14h44.21.179,mdp,2024.2.1,Win32,166.6666667,66d7945b1baad48e845df3ce,,,,,,,,,,,,,,,,,,,,,776.8267,776.8267,776.827,778.1478,1,1,right,0.8138,,778.1481,779.0265,1,0,right,779.0268,780.0084,0,0,left,1,780.0084,780.0084,780.0087,781.5053,0,31,31,31,1,0.2,0.8,0.6,0.4,,,,,,,,,,,,,,,0.3717,,0.2,0.8,0.4,0.6,0.2,0.8,0.6,0.4,,,0.478,,0.8,0.2,0.8,0.2,0.8,0.2,0.8,0.2,1,0
,,66cf32c269c7951c97de25fc,66daf8f97b99d644b6352da9,2024-09-06_14h44.21.179,mdp,2024.2.1,Win32,166.6666667,66d7945b1baad48e845df3ce,,,,,,,,,,,,,,,,,,,,,781.5056,781.5056,781.5058,782.8569,1,1,right,0.8472,,782.8571,784.0569,1,0,right,784.0571,785.0932,0,1,left,0,785.0932,785.0932,785.0935,786.5901,0,32,32,32,1,0.2,0.8,0.6,0.4,,,,,,,,,,,,,,,0.6955,,0.2,0.8,0.4,0.6,0.2,0.8,0.6,0.4,,,0.5277,,0.2,0.8,0.4,0.6,0.8,0.2,0.8,0.2,1,0
,,66cf32c269c7951c97de25fc,66daf8f97b99d644b6352da9,2024-09-06_14h44.21.179,mdp,2024.2.1,Win32,166.6666667,66d7945b1baad48e845df3ce,,,,,,,,,,,,,,,,,,,,,786.5903,786.5903,786.5907,788.7477,1,1,right,1.6502,,788.7523,789.7841,1,1,right,789.7845,791.4568,1,0,right,1,791.4568,791.4568,791.4572,792.9537,0,33,33,33,1,0.2,0.8,0.6,0.4,,,,,,,,,,,,,,,0.5326,,0.2,0.8,0.4,0.6,0.2,0.8,0.6,0.4,,,1.1673,,0.2,0.8,0.4,0.6,0.8,0.2,0.8,0.2,1,0
,,66cf32c269c7951c97de25fc,66daf8f97b99d644b6352da9,2024-09-06_14h44.21.179,mdp,2024.2.1,Win32,166.6666667,66d7945b1baad48e845df3ce,,,,,,,,,,,,,,,,,,,,,792.9539,792.9539,792.9543,793.8023,1,0,right,0.3427,,793.8026,794.6083,1,0,right,794.6086,795.7235,1,0,right,1,795.7235,795.7235,795.7237,797.2203,0,34,34,34,1,0.2,0.8,0.6,0.4,,,,,,,,,,,,,,,0.301,,0.2,0.8,0.4,0.6,0.2,0.8,0.6,0.4,,,0.6071,,0.2,0.8,0.4,0.6,0.8,0.2,0.8,0.2,1,0
,,66cf32c269c7951c97de25fc,66daf8f97b99d644b6352da9,2024-09-06_14h44.21.179,mdp,2024.2.1,Win32,166.6666667,66d7945b1baad48e845df3ce,,,,,,,,,,,,,,,,,,,,,797.2205,797.2205,797.2209,798.1659,1,0,right,0.4365,,798.1661,799.0325,1,0,right,799.0328,800.2507,1,1,right,0,800.2507,800.2507,800.251,801.7476,0,35,35,35,1,0.2,0.8,0.6,0.4,,,,,,,,,,,,,,,0.3625,,0.2,0.8,0.4,0.6,0.2,0.8,0.6,0.4,,,0.7119,,0.2,0.8,0.4,0.6,0.8,0.2,0.8,0.2,1,0
,,66cf32c269c7951c97de25fc,66daf8f97b99d644b6352da9,2024-09-06_14h44.21.179,mdp,2024.2.1,Win32,166.6666667,66d7945b1baad48e845df3ce,,,,,,,,,,,,,,,,,,,,,801.7478,801.7478,801.748,802.4992,1,0,right,0.2449,,802.4995,803.5295,1,1,right,803.5297,804.384,0,0,left,1,804.384,804.384,804.3843,805.8809,0,36,36,36,1,0.2,0.8,0.6,0.4,,,,,,,,,,,,,,,0.5252,,0.2,0.8,0.4,0.6,0.2,0.8,0.6,0.4,,,0.3499,,0.2,0.8,0.4,0.6,0.8,0.2,0.8,0.2,1,0
,,66cf32c269c7951c97de25fc,66daf8f97b99d644b6352da9,2024-09-06_14h44.21.179,mdp,2024.2.1,Win32,166.6666667,66d7945b1baad48e845df3ce,,,,,,,,,,,,,,,,,,,,,805.8811,805.8811,805.8814,807.0083,1,0,right,0.6235,,807.0085,807.8931,1,1,right,807.8933,808.784,0,0,left,1,808.784,808.784,808.7843,810.2809,0,37,37,37,1,0.2,0.8,0.6,0.4,,,,,,,,,,,,,,,0.3758,,0.2,0.8,0.4,0.6,0.2,0.8,0.6,0.4,,,0.3871,,0.2,0.8,0.4,0.6,0.8,0.2,0.8,0.2,1,0
,,66cf32c269c7951c97de25fc,66daf8f97b99d644b6352da9,2024-09-06_14h44.21.179,mdp,2024.2.1,Win32,166.6666667,66d7945b1baad48e845df3ce,,,,,,,,,,,,,,,,,,,,,810.2811,810.2811,810.2813,811.0506,1,0,right,0.2636,,811.0511,811.8324,1,1,right,811.8328,812.8749,0,0,left,1,812.8749,812.8749,812.8753,814.3718,0,38,38,38,1,0.2,0.8,0.6,0.4,,,,,,,,,,,,,,,0.2777,,0.2,0.8,0.4,0.6,0.2,0.8,0.6,0.4,,,0.5362,,0.2,0.8,0.4,0.6,0.8,0.2,0.8,0.2,1,0
,,66cf32c269c7951c97de25fc,66daf8f97b99d644b6352da9,2024-09-06_14h44.21.179,mdp,2024.2.1,Win32,166.6666667,66d7945b1baad48e845df3ce,,,,,,,,,,,,,,,,,,,,,814.372,814.372,814.3724,815.5234,1,1,right,0.6446,,815.5236,816.8082,1,0,right,816.8085,818.093,1,0,right,1,818.093,818.093,818.0933,819.59,0,39,39,39,1,0.2,0.8,0.6,0.4,,,,,,,,,,,,,,,0.7799,,0.2,0.8,0.4,0.6,0.2,0.8,0.6,0.4,,,0.775,,0.2,0.8,0.4,0.6,0.8,0.2,0.8,0.2,1,0
,,66cf32c269c7951c97de25fc,66daf8f97b99d644b6352da9,2024-09-06_14h44.21.179,mdp,2024.2.1,Win32,166.6666667,66d7945b1baad48e845df3ce,,,,,,,,,,,,,,,,,,,,,819.5901,819.5901,819.5906,820.3899,1,0,right,0.291,,820.3902,821.2082,1,0,right,821.2085,822.1475,1,1,right,0,822.1476,822.1476,822.1478,823.6444,0,40,40,40,1,0.2,0.8,0.6,0.4,,,,,,,,,,,,,,,0.3133,,0.2,0.8,0.4,0.6,0.2,0.8,0.6,0.4,,,0.4323,,0.2,0.8,0.4,0.6,0.8,0.2,0.8,0.2,1,0
,,66cf32c269c7951c97de25fc,66daf8f97b99d644b6352da9,2024-09-06_14h44.21.179,mdp,2024.2.1,Win32,166.6666667,66d7945b1baad48e845df3ce,,,,,,,,,,,,,,,,,,,,,823.6446,823.6446,823.645,824.5536,1,0,right,0.404,,824.5538,825.3415,1,0,right,825.3417,827.1899,0,1,left,0,827.1899,827.1899,827.1902,828.6868,0,41,41,41,1,0.2,0.8,0.6,0.4,,,,,,,,,,,,,,,0.2788,,0.2,0.8,0.4,0.6,0.2,0.8,0.6,0.4,,,1.3394,,0.2,0.8,0.4,0.6,0.8,0.2,0.8,0.2,1,0
,,66cf32c269c7951c97de25fc,66daf8f97b99d644b6352da9,2024-09-06_14h44.21.179,mdp,2024.2.1,Win32,166.6666667,66d7945b1baad48e845df3ce,,,,,,,,,,,,,,,,,,,,,828.687,828.687,828.6874,829.4748,1,0,right,0.2815,,829.475,830.3051,1,0,right,830.3053,832.6808,0,0,left,1,832.6808,832.6808,832.6853,834.1777,0,42,42,42,1,0.2,0.8,0.6,0.4,,,,,,,,,,,,,,,0.3257,,0.2,0.8,0.4,0.6,0.2,0.8,0.6,0.4,,,1.8715,,0.2,0.8,0.4,0.6,0.8,0.2,0.8,0.2,1,0
,,66cf32c269c7951c97de25fc,66daf8f97b99d644b6352da9,2024-09-06_14h44.21.179,mdp,2024.2.1,Win32,166.6666667,66d7945b1baad48e845df3ce,,,,,,,,,,,,,,,,,,,,,834.1779,834.1779,834.1783,835.7475,1,1,right,1.0628,,835.7478,836.8323,1,0,right,836.8326,837.9414,1,1,right,0,837.9414,837.9414,837.9416,839.4383,0,43,43,43,1,0.2,0.8,0.6,0.4,,,,,,,,,,,,,,,0.5798,,0.2,0.8,0.4,0.6,0.2,0.8,0.6,0.4,,,0.6001,,0.2,0.8,0.4,0.6,0.8,0.2,0.8,0.2,1,0
,,66cf32c269c7951c97de25fc,66daf8f97b99d644b6352da9,2024-09-06_14h44.21.179,mdp,2024.2.1,Win32,166.6666667,66d7945b1baad48e845df3ce,,,,,,,,,,,,,,,,,,,,,839.4384,839.4384,839.4388,840.1474,1,0,right,0.2022,,840.1477,840.9777,1,1,right,840.978,842.208,0,0,left,1,842.208,842.208,842.2083,843.7049,0,44,44,44,1,0.2,0.8,0.6,0.4,,,,,,,,,,,,,,,0.3239,,0.2,0.8,0.4,0.6,0.2,0.8,0.6,0.4,,,0.7257,,0.2,0.8,0.4,0.6,0.8,0.2,0.8,0.2,1,0
,,66cf32c269c7951c97de25fc,66daf8f97b99d644b6352da9,2024-09-06_14h44.21.179,mdp,2024.2.1,Win32,166.6666667,66d7945b1baad48e845df3ce,,,,,,,,,,,,,,,,,,,,,843.7051,843.7051,843.7055,844.4262,1,0,right,0.2155,,844.4265,845.2201,1,1,right,845.2204,846.2019,0,0,left,1,846.2019,846.2019,846.2022,847.6989,0,45,45,45,1,0.2,0.8,0.6,0.4,,,,,,,,,,,,,,,0.2862,,0.2,0.8,0.4,0.6,0.2,0.8,0.6,0.4,,,0.4763,,0.2,0.8,0.4,0.6,0.8,0.2,0.8,0.2,1,0
,,66cf32c269c7951c97de25fc,66daf8f97b99d644b6352da9,2024-09-06_14h44.21.179,mdp,2024.2.1,Win32,166.6666667,66d7945b1baad48e845df3ce,,,,,,,,,,,,,,,,,,,,,847.699,847.699,847.6994,848.7716,1,0,right,0.5654,,848.7719,849.7534,1,0,right,849.7537,851.9231,1,1,right,0,851.9231,851.9231,851.9234,853.42,0,46,46,46,1,0.2,0.8,0.6,0.4,,,,,,,,,,,,,,,0.4767,,0.2,0.8,0.4,0.6,0.2,0.8,0.6,0.4,,,1.6619,,0.2,0.8,0.4,0.6,0.8,0.2,0.8,0.2,1,0
,,66cf32c269c7951c97de25fc,66daf8f97b99d644b6352da9,2024-09-06_14h44.21.179,mdp,2024.2.1,Win32,166.6666667,66d7945b1baad48e845df3ce,,,,,,,,,,,,,,,,,,,,,853.4202,853.4202,853.4206,854.1897,1,0,right,0.2608,,854.19,854.9474,1,0,right,854.9476,855.7291,1,1,right,0,855.7291,855.7291,855.7294,857.226,0,47,47,47,1,0.2,0.8,0.6,0.4,,,,,,,,,,,,,,,0.2507,,0.2,0.8,0.4,0.6,0.2,0.8,0.6,0.4,,,0.277,,0.2,0.8,0.4,0.6,0.8,0.2,0.8,0.2,1,0
,,66cf32c269c7951c97de25fc,66daf8f97b99d644b6352da9,2024-09-06_14h44.21.179,mdp,2024.2.1,Win32,166.6666667,66d7945b1baad48e845df3ce,,,,,,,,,,,,,,,,,,,,,857.2262,857.2262,857.2266,857.9654,1,0,right,0.2305,,857.9658,858.7473,1,1,right,858.7476,859.523,0,0,left,1,859.523,859.523,859.5234,861.02,0,48,48,48,1,0.2,0.8,0.6,0.4,,,,,,,,,,,,,,,0.2748,,0.2,0.8,0.4,0.6,0.2,0.8,0.6,0.4,,,0.2681,,0.2,0.8,0.4,0.6,0.8,0.2,0.8,0.2,1,0
,,66cf32c269c7951c97de25fc,66daf8f97b99d644b6352da9,2024-09-06_14h44.21.179,mdp,2024.2.1,Win32,166.6666667,66d7945b1baad48e845df3ce,,,,,,,,,,,,,,,,,,,,,861.0201,861.0201,861.0205,861.7776,1,1,right,0.2524,,861.7777,862.5048,1,1,right,862.5051,863.9048,0,0,left,1,863.9048,863.9048,863.9052,865.4018,0,49,49,49,1,0.2,0.8,0.6,0.4,,,,,,,,,,,,,,,0.2217,,0.2,0.8,0.4,0.6,0.2,0.8,0.6,0.4,,,0.8954,,0.2,0.8,0.4,0.6,0.8,0.2,0.8,0.2,1,0
,,66cf32c269c7951c97de25fc,66daf8f97b99d644b6352da9,2024-09-06_14h44.21.179,mdp,2024.2.1,Win32,166.6666667,66d7945b1baad48e845df3ce,,,,,,,,,,,,,,,,,,,,,,,,,,,,,,,,,,,,,,,,,,,,,,,,,,,,,,,,865.4019,923.9105,0,2,2,6,1,imgs/goat.png,imgs/bear.png,imgs/pig.png,imgs/dog.png,imgs/cat.png,,,,,,,,,,,,,,,,,,,,,,,,
,,66cf32c269c7951c97de25fc,66daf8f97b99d644b6352da9,2024-09-06_14h44.21.179,mdp,2024.2.1,Win32,166.6666667,66d7945b1baad48e845df3ce,,,,,,,,,,,,,,3,seqs/st3seq20.csv,923.9151,925.8499,space,1.4278,,925.8528,925.8528,925.8531,927.4984,0,1,left,1.1406,,927.4987,928.7953,0,1,left,928.7957,930.1711,0,1,left,0,930.1712,930.1712,930.1714,931.6681,0,0,0,0,1,0.2,0.8,0.4,0.6,,,,,,,,,,,,,,,0.7878,,0.4,0.6,0.6,0.4,0.8,0.2,0.6,0.4,,,0.8679,,0.4,0.6,0.8,0.2,0.2,0.8,0.4,0.6,1,0
,,66cf32c269c7951c97de25fc,66daf8f97b99d644b6352da9,2024-09-06_14h44.21.179,mdp,2024.2.1,Win32,166.6666667,66d7945b1baad48e845df3ce,,,,,,,,,,,,,,,,,,,,,931.6682,931.6682,931.6685,932.8499,1,1,right,0.6762,,932.8501,935.1166,1,0,right,935.1169,936.4377,1,1,right,0,936.4377,936.4377,936.438,937.9347,0,1,1,1,1,0.2,0.8,0.4,0.6,,,,,,,,,,,,,,,1.7584,,0.4,0.6,0.6,0.4,0.8,0.2,0.6,0.4,,,0.8112,,0.4,0.6,0.8,0.2,0.2,0.8,0.4,0.6,1,0
,,66cf32c269c7951c97de25fc,66daf8f97b99d644b6352da9,2024-09-06_14h44.21.179,mdp,2024.2.1,Win32,166.6666667,66d7945b1baad48e845df3ce,,,,,,,,,,,,,,,,,,,,,937.9349,937.9349,937.9351,938.6983,1,1,right,0.2576,,938.6986,939.5408,1,0,right,939.5411,940.8498,1,0,right,1,940.8499,940.8499,940.8501,942.3468,0,2,2,2,1,0.2,0.8,0.4,0.6,,,,,,,,,,,,,,,0.3339,,0.4,0.6,0.6,0.4,0.8,0.2,0.6,0.4,,,0.8036,,0.4,0.6,0.8,0.2,0.2,0.8,0.4,0.6,1,0
,,66cf32c269c7951c97de25fc,66daf8f97b99d644b6352da9,2024-09-06_14h44.21.179,mdp,2024.2.1,Win32,166.6666667,66d7945b1baad48e845df3ce,,,,,,,,,,,,,,,,,,,,,942.3469,942.3469,942.3471,943.1407,1,1,right,0.2854,,943.141,943.9165,1,1,right,943.9167,945.5892,1,1,right,0,945.5892,945.5892,945.5895,947.0861,0,3,3,3,1,0.2,0.8,0.4,0.6,,,,,,,,,,,,,,,0.2675,,0.4,0.6,0.6,0.4,0.8,0.2,0.6,0.4,,,1.1629,,0.4,0.6,0.8,0.2,0.2,0.8,0.4,0.6,1,0
,,66cf32c269c7951c97de25fc,66daf8f97b99d644b6352da9,2024-09-06_14h44.21.179,mdp,2024.2.1,Win32,166.6666667,66d7945b1baad48e845df3ce,,,,,,,,,,,,,,,,,,,,,947.0862,947.0862,947.0866,948.1286,0,1,left,0.5382,,948.1288,949.0255,0,0,left,949.0257,950.8134,0,1,left,0,950.8134,950.8135,950.8138,952.3103,0,4,4,4,1,0.2,0.8,0.4,0.6,,,,,,,,,,,,,,,0.3917,,0.4,0.6,0.6,0.4,0.8,0.2,0.6,0.4,,,1.2778,,0.4,0.6,0.8,0.2,0.2,0.8,0.4,0.6,1,0
,,66cf32c269c7951c97de25fc,66daf8f97b99d644b6352da9,2024-09-06_14h44.21.179,mdp,2024.2.1,Win32,166.6666667,66d7945b1baad48e845df3ce,,,,,,,,,,,,,,,,,,,,,952.3104,952.3104,952.3107,953.3164,1,0,right,0.4978,,953.3168,957.0376,1,0,right,957.0422,958.4497,1,0,right,1,958.4498,958.4498,958.4501,959.9467,0,5,5,5,1,0.2,0.8,0.4,0.6,,,,,,,,,,,,,,,3.2111,,0.4,0.6,0.6,0.4,0.8,0.2,0.6,0.4,,,0.9067,,0.4,0.6,0.8,0.2,0.8,0.2,0.2,0.8,1,0
,,66cf32c269c7951c97de25fc,66daf8f97b99d644b6352da9,2024-09-06_14h44.21.179,mdp,2024.2.1,Win32,166.6666667,66d7945b1baad48e845df3ce,,,,,,,,,,,,,,,,,,,,,959.9468,959.9468,959.9471,961.0679,1,1,right,0.6134,,961.0681,962.0436,1,0,right,962.0439,965.7163,1,0,right,1,965.7164,965.7164,965.7167,967.2133,0,6,6,6,1,0.2,0.8,0.4,0.6,,,,,,,,,,,,,,,0.4672,,0.4,0.6,0.6,0.4,0.8,0.2,0.6,0.4,,,3.1646,,0.4,0.6,0.8,0.2,0.8,0.2,0.2,0.8,1,0
,,66cf32c269c7951c97de25fc,66daf8f97b99d644b6352da9,2024-09-06_14h44.21.179,mdp,2024.2.1,Win32,166.6666667,66d7945b1baad48e845df3ce,,,,,,,,,,,,,,,,,,,,,967.2134,967.2134,967.2138,967.9951,1,0,right,0.2749,,967.9954,968.8012,1,0,right,968.8015,970.0255,1,0,right,1,970.0255,970.0255,970.0258,971.5224,0,7,7,7,1,0.2,0.8,0.4,0.6,,,,,,,,,,,,,,,0.3001,,0.4,0.6,0.6,0.4,0.8,0.2,0.6,0.4,,,0.7191,,0.4,0.6,0.8,0.2,0.8,0.2,0.2,0.8,1,0
,,66cf32c269c7951c97de25fc,66daf8f97b99d644b6352da9,2024-09-06_14h44.21.179,mdp,2024.2.1,Win32,166.6666667,66d7945b1baad48e845df3ce,,,,,,,,,,,,,,,,,,,,,971.5225,971.5225,971.5227,972.3224,1,1,right,0.2938,,972.3226,973.28,1,0,right,973.2802,974.2799,0,1,left,0,974.2799,974.2799,974.2802,975.7769,0,8,8,8,1,0.2,0.8,0.4,0.6,,,,,,,,,,,,,,,0.4528,,0.4,0.6,0.6,0.4,0.8,0.2,0.6,0.4,,,0.4963,,0.4,0.6,0.8,0.2,0.8,0.2,0.2,0.8,1,0
,,66cf32c269c7951c97de25fc,66daf8f97b99d644b6352da9,2024-09-06_14h44.21.179,mdp,2024.2.1,Win32,166.6666667,66d7945b1baad48e845df3ce,,,,,,,,,,,,,,,,,,,,,975.777,975.777,975.7773,976.8193,1,1,right,0.5352,,976.8195,977.8799,1,1,right,977.8802,979.4193,0,0,left,1,979.4194,979.4194,979.4196,980.9162,0,9,9,9,1,0.2,0.8,0.4,0.6,,,,,,,,,,,,,,,0.5569,,0.4,0.6,0.6,0.4,0.8,0.2,0.6,0.4,,,1.0313,,0.4,0.6,0.8,0.2,0.8,0.2,0.2,0.8,1,0
,,66cf32c269c7951c97de25fc,66daf8f97b99d644b6352da9,2024-09-06_14h44.21.179,mdp,2024.2.1,Win32,166.6666667,66d7945b1baad48e845df3ce,,,,,,,,,,,,,,,,,,,,,980.9164,980.9164,980.9166,981.9284,1,0,right,0.508,,981.9287,982.7223,1,0,right,982.7226,984.0435,1,0,right,1,984.0435,984.0435,984.0437,985.5404,0,10,10,10,1,0.2,0.8,0.4,0.6,,,,,,,,,,,,,,,0.287,,0.2,0.8,0.4,0.6,0.8,0.2,0.6,0.4,,,0.8129,,0.4,0.6,0.8,0.2,0.8,0.2,0.2,0.8,1,0
,,66cf32c269c7951c97de25fc,66daf8f97b99d644b6352da9,2024-09-06_14h44.21.179,mdp,2024.2.1,Win32,166.6666667,66d7945b1baad48e845df3ce,,,,,,,,,,,,,,,,,,,,,985.5406,985.5406,985.5408,986.4435,1,1,right,0.3957,,986.4438,987.3465,1,1,right,987.3468,988.9525,0,0,left,1,988.9525,988.9525,988.9528,990.4495,0,11,11,11,1,0.4,0.6,0.2,0.8,,,,,,,,,,,,,,,0.3958,,0.2,0.8,0.4,0.6,0.8,0.2,0.6,0.4,,,1.1008,,0.4,0.6,0.8,0.2,0.8,0.2,0.2,0.8,1,0
,,66cf32c269c7951c97de25fc,66daf8f97b99d644b6352da9,2024-09-06_14h44.21.179,mdp,2024.2.1,Win32,166.6666667,66d7945b1baad48e845df3ce,,,,,,,,,,,,,,,,,,,,,990.4496,990.4496,990.4499,991.2737,1,1,right,0.3188,,991.274,992.098,1,0,right,992.0982,993.298,1,0,right,1,993.298,993.298,993.2983,994.795,0,12,12,12,1,0.4,0.6,0.2,0.8,,,,,,,,,,,,,,,0.3185,,0.4,0.6,0.6,0.4,0.8,0.2,0.6,0.4,,,0.6931,,0.4,0.6,0.8,0.2,0.8,0.2,0.2,0.8,1,0
,,66cf32c269c7951c97de25fc,66daf8f97b99d644b6352da9,2024-09-06_14h44.21.179,mdp,2024.2.1,Win32,166.6666667,66d7945b1baad48e845df3ce,,,,,,,,,,,,,,,,,,,,,994.7951,994.7951,994.7954,996.0374,1,1,right,0.7334,,996.0377,996.8737,1,0,right,996.874,998.7889,1,1,right,0,998.7889,998.7889,998.7892,1000.2858,0,13,13,13,1,0.4,0.6,0.2,0.8,,,,,,,,,,,,,,,0.3307,,0.4,0.6,0.6,0.4,0.8,0.2,0.6,0.4,,,1.4065,,0.4,0.6,0.8,0.2,0.8,0.2,0.2,0.8,1,0
,,66cf32c269c7951c97de25fc,66daf8f97b99d644b6352da9,2024-09-06_14h44.21.179,mdp,2024.2.1,Win32,166.6666667,66d7945b1baad48e845df3ce,,,,,,,,,,,,,,,,,,,,,1000.2859,1000.2859,1000.2863,1001.6858,0,1,left,0.8909,,1001.6861,1002.6131,0,0,left,1002.6134,1004.4737,0,1,left,0,1004.4737,1004.4737,1004.474,1005.9706,0,14,14,14,1,0.4,0.6,0.2,0.8,,,,,,,,,,,,,,,0.4183,,0.4,0.6,0.6,0.4,0.8,0.2,0.6,0.4,,,1.355,,0.4,0.6,0.8,0.2,0.8,0.2,0.2,0.8,1,0
,,66cf32c269c7951c97de25fc,66daf8f97b99d644b6352da9,2024-09-06_14h44.21.179,mdp,2024.2.1,Win32,166.6666667,66d7945b1baad48e845df3ce,,,,,,,,,,,,,,,,,,,,,1005.9708,1005.9708,1005.971,1007.3221,0,0,left,0.8456,,1007.3224,1008.2009,0,1,left,1008.2012,1009.904,0,0,left,1,1009.904,1009.904,1009.9042,1011.4009,0,15,15,15,1,0.4,0.6,0.2,0.8,,,,,,,,,,,,,,,0.3729,,0.4,0.6,0.6,0.4,0.8,0.2,0.6,0.4,,,1.1982,,0.4,0.6,0.8,0.2,0.8,0.2,0.2,0.8,1,0
,,66cf32c269c7951c97de25fc,66daf8f97b99d644b6352da9,2024-09-06_14h44.21.179,mdp,2024.2.1,Win32,166.6666667,66d7945b1baad48e845df3ce,,,,,,,,,,,,,,,,,,,,,1011.401,1011.401,1011.4014,1012.6251,0,1,left,0.7193,,1012.6254,1013.5948,0,0,left,1013.5951,1014.916,1,0,right,1,1014.916,1014.916,1014.9163,1016.413,0,16,16,16,1,0.4,0.6,0.2,0.8,,,,,,,,,,,,,,,0.4619,,0.4,0.6,0.6,0.4,0.8,0.2,0.6,0.4,,,0.8123,,0.4,0.6,0.8,0.2,0.8,0.2,0.2,0.8,1,0
,,66cf32c269c7951c97de25fc,66daf8f97b99d644b6352da9,2024-09-06_14h44.21.179,mdp,2024.2.1,Win32,166.6666667,66d7945b1baad48e845df3ce,,,,,,,,,,,,,,,,,,,,,1016.4131,1016.4131,1016.4134,1017.3463,0,0,left,0.4272,,1017.3467,1018.2979,0,1,left,1018.2981,1019.3888,0,0,left,1,1019.3888,1019.3888,1019.389,1020.8857,0,17,17,17,1,0.4,0.6,0.2,0.8,,,,,,,,,,,,,,,0.4448,,0.4,0.6,0.6,0.4,0.8,0.2,0.6,0.4,,,0.5813,,0.4,0.6,0.8,0.2,0.8,0.2,0.2,0.8,1,0
,,66cf32c269c7951c97de25fc,66daf8f97b99d644b6352da9,2024-09-06_14h44.21.179,mdp,2024.2.1,Win32,166.6666667,66d7945b1baad48e845df3ce,,,,,,,,,,,,,,,,,,,,,1020.8858,1020.8858,1020.8861,1021.716,0,1,left,0.3224,,1021.7163,1022.6917,0,0,left,1022.6921,1024.0797,1,0,right,1,1024.0797,1024.0797,1024.08,1025.5766,0,18,18,18,1,0.4,0.6,0.2,0.8,,,,,,,,,,,,,,,0.4672,,0.4,0.6,0.6,0.4,0.8,0.2,0.6,0.4,,,0.8834,,0.4,0.6,0.8,0.2,0.8,0.2,0.2,0.8,1,0
,,66cf32c269c7951c97de25fc,66daf8f97b99d644b6352da9,2024-09-06_14h44.21.179,mdp,2024.2.1,Win32,166.6666667,66d7945b1baad48e845df3ce,,,,,,,,,,,,,,,,,,,,,1025.5767,1025.5767,1025.577,1026.6614,0,1,left,0.5758,,1026.6617,1027.5463,0,0,left,1027.5465,1028.5887,1,1,right,0,1028.5887,1028.5887,1028.589,1030.0857,0,19,19,19,1,0.4,0.6,0.2,0.8,,,,,,,,,,,,,,,0.3786,,0.2,0.8,0.4,0.6,0.8,0.2,0.6,0.4,,,0.5339,,0.4,0.6,0.8,0.2,0.8,0.2,0.2,0.8,1,0
,,66cf32c269c7951c97de25fc,66daf8f97b99d644b6352da9,2024-09-06_14h44.21.179,mdp,2024.2.1,Win32,166.6666667,66d7945b1baad48e845df3ce,,,,,,,,,,,,,,,,,,,,,1030.0858,1030.0858,1030.0861,1031.316,0,1,left,0.7225,,1031.3162,1032.122,0,1,left,1032.1223,1033.1219,0,0,left,1,1033.122,1033.122,1033.1223,1034.6189,0,20,20,20,1,0.4,0.6,0.2,0.8,,,,,,,,,,,,,,,0.3002,,0.2,0.8,0.4,0.6,0.8,0.2,0.6,0.4,,,0.4934,,0.4,0.6,0.8,0.2,0.8,0.2,0.2,0.8,1,0
,,66cf32c269c7951c97de25fc,66daf8f97b99d644b6352da9,2024-09-06_14h44.21.179,mdp,2024.2.1,Win32,166.6666667,66d7945b1baad48e845df3ce,,,,,,,,,,,,,,,,,,,,,1034.6191,1034.6191,1034.6194,1036.2735,0,1,left,1.1493,,1036.2738,1037.2735,0,1,left,1037.2738,1039.2008,0,0,left,1,1039.2008,1039.2008,1039.201,1040.6977,0,21,21,21,1,0.4,0.6,0.2,0.8,,,,,,,,,,,,,,,0.4946,,0.2,0.8,0.4,0.6,0.8,0.2,0.6,0.4,,,1.4226,,0.4,0.6,0.8,0.2,0.8,0.2,0.2,0.8,1,0
,,66cf32c269c7951c97de25fc,66daf8f97b99d644b6352da9,2024-09-06_14h44.21.179,mdp,2024.2.1,Win32,166.6666667,66d7945b1baad48e845df3ce,,,,,,,,,,,,,,,,,,,,,1040.6978,1040.6978,1040.6981,1041.4977,0,1,left,0.2944,,1041.4979,1042.425,0,1,left,1042.4252,1044.8007,0,0,left,1,1044.8007,1044.8007,1044.801,1046.2977,0,22,22,22,1,0.4,0.6,0.2,0.8,,,,,,,,,,,,,,,0.4224,,0.2,0.8,0.4,0.6,0.8,0.2,0.6,0.4,,,1.8712,,0.4,0.6,0.8,0.2,0.8,0.2,0.2,0.8,1,0
,,66cf32c269c7951c97de25fc,66daf8f97b99d644b6352da9,2024-09-06_14h44.21.179,mdp,2024.2.1,Win32,166.6666667,66d7945b1baad48e845df3ce,,,,,,,,,,,,,,,,,,,,,1046.2977,1046.2977,1046.2981,1047.1401,0,1,left,0.3344,,1047.1403,1048.0734,0,1,left,1048.0736,1049.3886,1,1,right,0,1049.3886,1049.3886,1049.3889,1050.8855,0,23,23,23,1,0.4,0.6,0.2,0.8,,,,,,,,,,,,,,,0.428,,0.2,0.8,0.4,0.6,0.8,0.2,0.6,0.4,,,0.8066,,0.4,0.6,0.8,0.2,0.8,0.2,0.2,0.8,1,0
,,66cf32c269c7951c97de25fc,66daf8f97b99d644b6352da9,2024-09-06_14h44.21.179,mdp,2024.2.1,Win32,166.6666667,66d7945b1baad48e845df3ce,,,,,,,,,,,,,,,,,,,,,1050.8857,1050.8857,1050.8859,1051.8976,0,1,left,0.5066,,1051.8979,1052.8188,0,0,left,1052.8191,1054.9219,0,1,left,0,1054.9219,1054.9219,1054.9223,1056.4188,0,24,24,24,1,0.4,0.6,0.2,0.8,,,,,,,,,,,,,,,0.4145,,0.2,0.8,0.4,0.6,0.8,0.2,0.6,0.4,,,1.5964,,0.4,0.6,0.8,0.2,0.8,0.2,0.2,0.8,1,0
,,66cf32c269c7951c97de25fc,66daf8f97b99d644b6352da9,2024-09-06_14h44.21.179,mdp,2024.2.1,Win32,166.6666667,66d7945b1baad48e845df3ce,,,,,,,,,,,,,,,,,,,,,1056.4189,1056.4189,1056.4192,1057.3704,1,1,right,0.4453,,1057.3706,1058.3643,1,0,right,1058.3645,1059.54,1,0,right,1,1059.54,1059.5401,1059.5403,1061.037,0,25,25,25,1,0.4,0.6,0.2,0.8,,,,,,,,,,,,,,,0.4857,,0.2,0.8,0.4,0.6,0.8,0.2,0.6,0.4,,,0.6678,,0.4,0.6,0.8,0.2,0.8,0.2,0.2,0.8,1,0
,,66cf32c269c7951c97de25fc,66daf8f97b99d644b6352da9,2024-09-06_14h44.21.179,mdp,2024.2.1,Win32,166.6666667,66d7945b1baad48e845df3ce,,,,,,,,,,,,,,,,,,,,,1061.0371,1061.0371,1061.0373,1061.94,1,1,right,0.395,,1061.9403,1062.8248,1,1,right,1062.8251,1064.6248,1,0,right,1,1064.6249,1064.6249,1064.6251,1066.1218,0,26,26,26,1,0.4,0.6,0.2,0.8,,,,,,,,,,,,,,,0.3801,,0.2,0.8,0.4,0.6,0.8,0.2,0.6,0.4,,,1.2942,,0.4,0.6,0.8,0.2,0.8,0.2,0.2,0.8,1,0
,,66cf32c269c7951c97de25fc,66daf8f97b99d644b6352da9,2024-09-06_14h44.21.179,mdp,2024.2.1,Win32,166.6666667,66d7945b1baad48e845df3ce,,,,,,,,,,,,,,,,,,,,,1066.122,1066.122,1066.1222,1066.94,1,0,right,0.3103,,1066.9402,1067.746,1,0,right,1067.7463,1068.9399,1,1,right,0,1068.9399,1068.9399,1068.9403,1070.4369,0,27,27,27,1,0.4,0.6,0.2,0.8,,,,,,,,,,,,,,,0.2991,,0.2,0.8,0.4,0.6,0.8,0.2,0.6,0.4,,,0.6851,,0.4,0.6,0.8,0.2,0.8,0.2,0.2,0.8,1,0
,,66cf32c269c7951c97de25fc,66daf8f97b99d644b6352da9,2024-09-06_14h44.21.179,mdp,2024.2.1,Win32,166.6666667,66d7945b1baad48e845df3ce,,,,,,,,,,,,,,,,,,,,,1070.4371,1070.4371,1070.4373,1071.1702,1,0,right,0.2271,,1071.1705,1072.0429,1,0,right,1072.0433,1073.0672,0,1,left,0,1073.0672,1073.0672,1073.0676,1074.5642,0,28,28,28,1,0.4,0.6,0.2,0.8,,,,,,,,,,,,,,,0.3658,,0.2,0.8,0.4,0.6,0.8,0.2,0.6,0.4,,,0.5172,,0.4,0.6,0.8,0.2,0.8,0.2,0.2,0.8,1,0
,,66cf32c269c7951c97de25fc,66daf8f97b99d644b6352da9,2024-09-06_14h44.21.179,mdp,2024.2.1,Win32,166.6666667,66d7945b1baad48e845df3ce,,,,,,,,,,,,,,,,,,,,,1074.5643,1074.5643,1074.5646,1075.4975,1,1,right,0.4281,,1075.4978,1076.5763,1,0,right,1076.5766,1077.5641,1,1,right,0,1077.5641,1077.5641,1077.5644,1079.0611,0,29,29,29,1,0.4,0.6,0.2,0.8,,,,,,,,,,,,,,,0.5735,,0.2,0.8,0.4,0.6,0.8,0.2,0.6,0.4,,,0.4798,,0.4,0.6,0.8,0.2,0.8,0.2,0.2,0.8,1,0
,,66cf32c269c7951c97de25fc,66daf8f97b99d644b6352da9,2024-09-06_14h44.21.179,mdp,2024.2.1,Win32,166.6666667,66d7945b1baad48e845df3ce,,,,,,,,,,,,,,,,,,,,,1079.0613,1079.0613,1079.0615,1079.8247,1,1,right,0.259,,1079.825,1080.6004,1,1,right,1080.6007,1082.0368,1,0,right,1,1082.0368,1082.0368,1082.0371,1083.5338,0,30,30,30,1,0.4,0.6,0.2,0.8,,,,,,,,,,,,,,,0.2714,,0.2,0.8,0.4,0.6,0.2,0.8,0.8,0.2,,,0.9265,,0.4,0.6,0.8,0.2,0.8,0.2,0.2,0.8,1,0
,,66cf32c269c7951c97de25fc,66daf8f97b99d644b6352da9,2024-09-06_14h44.21.179,mdp,2024.2.1,Win32,166.6666667,66d7945b1baad48e845df3ce,,,,,,,,,,,,,,,,,,,,,1083.534,1083.534,1083.5343,1084.2914,1,1,right,0.2503,,1084.2917,1085.0974,1,0,right,1085.0977,1087.2004,0,0,left,1,1087.2004,1087.2004,1087.2007,1088.6974,0,31,31,31,1,0.4,0.6,0.2,0.8,,,,,,,,,,,,,,,0.3007,,0.2,0.8,0.4,0.6,0.2,0.8,0.8,0.2,,,1.5976,,0.4,0.6,0.8,0.2,0.8,0.2,0.2,0.8,1,0
,,66cf32c269c7951c97de25fc,66daf8f97b99d644b6352da9,2024-09-06_14h44.21.179,mdp,2024.2.1,Win32,166.6666667,66d7945b1baad48e845df3ce,,,,,,,,,,,,,,,,,,,,,1088.6975,1088.6975,1088.6978,1089.5155,1,1,right,0.3107,,1089.5159,1090.3095,1,0,right,1090.3098,1091.4852,0,1,left,0,1091.4852,1091.4852,1091.4856,1092.9822,0,32,32,32,1,0.4,0.6,0.2,0.8,,,,,,,,,,,,,,,0.2849,,0.2,0.8,0.4,0.6,0.2,0.8,0.8,0.2,,,0.6668,,0.4,0.6,0.8,0.2,0.8,0.2,0.2,0.8,1,0
,,66cf32c269c7951c97de25fc,66daf8f97b99d644b6352da9,2024-09-06_14h44.21.179,mdp,2024.2.1,Win32,166.6666667,66d7945b1baad48e845df3ce,,,,,,,,,,,,,,,,,,,,,1092.9824,1092.9824,1092.9828,1093.6913,1,1,right,0.2018,,1093.6916,1094.4913,1,0,right,1094.4916,1095.4125,1,1,right,0,1095.4125,1095.4125,1095.4128,1096.9094,0,33,33,33,1,0.8,0.2,0.4,0.6,,,,,,,,,,,,,,,0.2927,,0.2,0.8,0.4,0.6,0.2,0.8,0.8,0.2,,,0.4127,,0.4,0.6,0.8,0.2,0.8,0.2,0.2,0.8,1,0
,,66cf32c269c7951c97de25fc,66daf8f97b99d644b6352da9,2024-09-06_14h44.21.179,mdp,2024.2.1,Win32,166.6666667,66d7945b1baad48e845df3ce,,,,,,,,,,,,,,,,,,,,,1096.9096,1096.9096,1096.91,1097.7397,1,1,right,0.3225,,1097.7401,1098.6731,1,0,right,1098.6734,1099.4912,0,0,left,1,1099.4913,1099.4913,1099.4916,1100.9882,0,34,34,34,1,0.8,0.2,0.4,0.6,,,,,,,,,,,,,,,0.4282,,0.2,0.8,0.4,0.6,0.2,0.8,0.8,0.2,,,0.3108,,0.4,0.6,0.8,0.2,0.8,0.2,0.2,0.8,1,0
,,66cf32c269c7951c97de25fc,66daf8f97b99d644b6352da9,2024-09-06_14h44.21.179,mdp,2024.2.1,Win32,166.6666667,66d7945b1baad48e845df3ce,,,,,,,,,,,,,,,,,,,,,1100.9883,1100.9883,1100.9887,1101.7701,1,0,right,0.2759,,1101.7704,1102.5761,1,0,right,1102.5763,1103.4852,0,1,left,0,1103.4852,1103.4852,1103.4854,1104.9822,0,35,35,35,1,0.8,0.2,0.4,0.6,,,,,,,,,,,,,,,0.3009,,0.2,0.8,0.4,0.6,0.2,0.8,0.8,0.2,,,0.4001,,0.4,0.6,0.8,0.2,0.8,0.2,0.2,0.8,1,0
,,66cf32c269c7951c97de25fc,66daf8f97b99d644b6352da9,2024-09-06_14h44.21.179,mdp,2024.2.1,Win32,166.6666667,66d7945b1baad48e845df3ce,,,,,,,,,,,,,,,,,,,,,1104.9822,1104.9822,1104.9826,1105.7276,1,1,right,0.2419,,1105.7279,1106.4912,1,1,right,1106.4915,1107.6246,1,0,right,1,1107.6246,1107.6246,1107.6249,1109.1215,0,36,36,36,1,0.8,0.2,0.4,0.6,,,,,,,,,,,,,,,0.2554,,0.2,0.8,0.4,0.6,0.2,0.8,0.8,0.2,,,0.6277,,0.4,0.6,0.8,0.2,0.8,0.2,0.2,0.8,1,0
,,66cf32c269c7951c97de25fc,66daf8f97b99d644b6352da9,2024-09-06_14h44.21.179,mdp,2024.2.1,Win32,166.6666667,66d7945b1baad48e845df3ce,,,,,,,,,,,,,,,,,,,,,1109.1216,1109.1216,1109.122,1109.873,1,0,right,0.2465,,1109.8733,1110.6367,1,0,right,1110.6369,1111.764,0,0,left,1,1111.764,1111.764,1111.7643,1113.2608,0,37,37,37,1,0.8,0.2,0.4,0.6,,,,,,,,,,,,,,,0.254,,0.2,0.8,0.4,0.6,0.2,0.8,0.8,0.2,,,0.6183,,0.4,0.6,0.8,0.2,0.8,0.2,0.2,0.8,1,0
,,66cf32c269c7951c97de25fc,66daf8f97b99d644b6352da9,2024-09-06_14h44.21.179,mdp,2024.2.1,Win32,166.6666667,66d7945b1baad48e845df3ce,,,,,,,,,,,,,,,,,,,,,1113.261,1113.261,1113.2614,1114.1882,1,1,right,0.419,,1114.1885,1115.3155,1,0,right,1115.3157,1116.7154,0,1,left,0,1116.7155,1116.7155,1116.7158,1118.2124,0,38,38,38,1,0.8,0.2,0.4,0.6,,,,,,,,,,,,,,,0.6186,,0.2,0.8,0.4,0.6,0.2,0.8,0.8,0.2,,,0.8926,,0.4,0.6,0.8,0.2,0.8,0.2,0.2,0.8,1,0
,,66cf32c269c7951c97de25fc,66daf8f97b99d644b6352da9,2024-09-06_14h44.21.179,mdp,2024.2.1,Win32,166.6666667,66d7945b1baad48e845df3ce,,,,,,,,,,,,,,,,,,,,,1118.2125,1118.2125,1118.2129,1119.0487,1,1,right,0.3316,,1119.049,1119.873,1,1,right,1119.8733,1121.2367,1,1,right,0,1121.2367,1121.2367,1121.237,1122.7336,0,39,39,39,1,0.8,0.2,0.4,0.6,,,,,,,,,,,,,,,0.3193,,0.2,0.8,0.4,0.6,0.2,0.8,0.8,0.2,,,0.8539,,0.4,0.6,0.8,0.2,0.8,0.2,0.2,0.8,1,0
,,66cf32c269c7951c97de25fc,66daf8f97b99d644b6352da9,2024-09-06_14h44.21.179,mdp,2024.2.1,Win32,166.6666667,66d7945b1baad48e845df3ce,,,,,,,,,,,,,,,,,,,,,1122.7337,1122.7337,1122.7341,1123.5154,0,1,left,0.2744,,1123.5156,1124.4123,0,1,left,1124.4126,1125.7214,0,1,left,0,1125.7214,1125.7214,1125.7218,1127.2184,0,40,40,40,1,0.2,0.8,0.2,0.8,,,,,,,,,,,,,,,0.3887,,0.2,0.8,0.4,0.6,0.2,0.8,0.8,0.2,,,0.8037,,0.4,0.6,0.8,0.2,0.8,0.2,0.2,0.8,1,0
,,66cf32c269c7951c97de25fc,66daf8f97b99d644b6352da9,2024-09-06_14h44.21.179,mdp,2024.2.1,Win32,166.6666667,66d7945b1baad48e845df3ce,,,,,,,,,,,,,,,,,,,,,1127.2185,1127.2185,1127.2187,1128.4124,0,0,left,0.6856,,1128.4126,1129.2365,0,1,left,1129.2369,1130.1214,1,1,right,0,1130.1215,1130.1215,1130.1218,1131.6184,0,41,41,41,1,0.4,0.6,0.4,0.6,,,,,,,,,,,,,,,0.3145,,0.2,0.8,0.4,0.6,0.2,0.8,0.8,0.2,,,0.3795,,0.4,0.6,0.8,0.2,0.8,0.2,0.2,0.8,1,0
,,66cf32c269c7951c97de25fc,66daf8f97b99d644b6352da9,2024-09-06_14h44.21.179,mdp,2024.2.1,Win32,166.6666667,66d7945b1baad48e845df3ce,,,,,,,,,,,,,,,,,,,,,1131.6184,1131.6184,1131.6189,1132.4972,0,1,left,0.3736,,1132.4974,1133.3335,0,0,left,1133.3338,1134.6123,0,1,left,0,1134.6123,1134.6123,1134.6125,1136.1092,0,42,42,42,1,0.4,0.6,0.4,0.6,,,,,,,,,,,,,,,0.3262,,0.2,0.8,0.4,0.6,0.2,0.8,0.8,0.2,,,0.7695,,0.4,0.6,0.8,0.2,0.8,0.2,0.2,0.8,1,0
,,66cf32c269c7951c97de25fc,66daf8f97b99d644b6352da9,2024-09-06_14h44.21.179,mdp,2024.2.1,Win32,166.6666667,66d7945b1baad48e845df3ce,,,,,,,,,,,,,,,,,,,,,1136.1093,1136.1093,1136.1096,1136.9517,0,0,left,0.3386,,1136.9519,1137.9456,0,1,left,1137.9459,1138.9517,1,1,right,0,1138.9517,1138.9517,1138.9519,1140.4486,0,43,43,43,1,0.4,0.6,0.4,0.6,,,,,,,,,,,,,,,0.4874,,0.2,0.8,0.4,0.6,0.2,0.8,0.8,0.2,,,0.5013,,0.4,0.6,0.8,0.2,0.8,0.2,0.2,0.8,1,0
,,66cf32c269c7951c97de25fc,66daf8f97b99d644b6352da9,2024-09-06_14h44.21.179,mdp,2024.2.1,Win32,166.6666667,66d7945b1baad48e845df3ce,,,,,,,,,,,,,,,,,,,,,1140.4487,1140.4487,1140.4491,1141.1941,0,0,left,0.2394,,1141.1943,1142.0244,0,1,left,1142.0246,1144.7759,0,1,left,0,1144.7759,1144.7759,1144.7763,1146.2728,0,44,44,44,1,0.4,0.6,0.4,0.6,,,,,,,,,,,,,,,0.3259,,0.2,0.8,0.4,0.6,0.2,0.8,0.8,0.2,,,2.2477,,0.4,0.6,0.8,0.2,0.8,0.2,0.2,0.8,1,0
,,66cf32c269c7951c97de25fc,66daf8f97b99d644b6352da9,2024-09-06_14h44.21.179,mdp,2024.2.1,Win32,166.6666667,66d7945b1baad48e845df3ce,,,,,,,,,,,,,,,,,,,,,1146.273,1146.273,1146.2732,1147.1698,0,1,left,0.3912,,1147.1701,1148.0243,0,1,left,1148.0245,1148.9758,0,0,left,1,1148.9758,1148.9758,1148.9761,1150.4728,0,45,45,45,1,0.4,0.6,0.4,0.6,,,,,,,,,,,,,,,0.3491,,0.2,0.8,0.4,0.6,0.2,0.8,0.8,0.2,,,0.4476,,0.4,0.6,0.8,0.2,0.8,0.2,0.2,0.8,1,0
,,66cf32c269c7951c97de25fc,66daf8f97b99d644b6352da9,2024-09-06_14h44.21.179,mdp,2024.2.1,Win32,166.6666667,66d7945b1baad48e845df3ce,,,,,,,,,,,,,,,,,,,,,1150.4729,1150.4729,1150.4733,1151.9637,0,0,left,0.9832,,1151.964,1152.7637,0,0,left,1152.7639,1154.5213,1,0,right,1,1154.5213,1154.5213,1154.5217,1156.0182,0,46,46,46,1,0.4,0.6,0.4,0.6,,,,,,,,,,,,,,,0.2913,,0.2,0.8,0.4,0.6,0.2,0.8,0.8,0.2,,,1.2513,,0.4,0.6,0.8,0.2,0.8,0.2,0.2,0.8,1,0
,,66cf32c269c7951c97de25fc,66daf8f97b99d644b6352da9,2024-09-06_14h44.21.179,mdp,2024.2.1,Win32,166.6666667,66d7945b1baad48e845df3ce,,,,,,,,,,,,,,,,,,,,,1156.0183,1156.0183,1156.0187,1156.8849,0,0,left,0.3579,,1156.8851,1157.6728,0,0,left,1157.673,1158.7637,1,0,right,1,1158.7637,1158.7637,1158.7639,1160.2606,0,47,47,47,1,0.4,0.6,0.4,0.6,,,,,,,,,,,,,,,0.283,,0.2,0.8,0.4,0.6,0.2,0.8,0.8,0.2,,,0.583,,0.4,0.6,0.8,0.2,0.8,0.2,0.2,0.8,1,0
,,66cf32c269c7951c97de25fc,66daf8f97b99d644b6352da9,2024-09-06_14h44.21.179,mdp,2024.2.1,Win32,166.6666667,66d7945b1baad48e845df3ce,,,,,,,,,,,,,,,,,,,,,1160.2607,1160.2607,1160.2611,1161.0727,0,1,left,0.3073,,1161.0731,1161.9515,0,1,left,1161.9518,1163.2424,0,0,left,1,1163.2424,1163.2424,1163.2427,1164.7394,0,48,48,48,1,0.4,0.6,0.4,0.6,,,,,,,,,,,,,,,0.3743,,0.2,0.8,0.4,0.6,0.2,0.8,0.8,0.2,,,0.7833,,0.4,0.6,0.8,0.2,0.8,0.2,0.2,0.8,1,0
,,66cf32c269c7951c97de25fc,66daf8f97b99d644b6352da9,2024-09-06_14h44.21.179,mdp,2024.2.1,Win32,166.6666667,66d7945b1baad48e845df3ce,,,,,,,,,,,,,,,,,,,,,1164.7395,1164.7395,1164.7398,1165.5637,0,1,left,0.3164,,1165.5639,1166.3636,0,1,left,1166.3638,1167.4484,0,0,left,1,1167.4485,1167.4485,1167.4488,1168.9454,0,49,49,49,1,0.4,0.6,0.4,0.6,,,,,,,,,,,,,,,0.2923,,0.2,0.8,0.4,0.6,0.2,0.8,0.8,0.2,,,0.5803,,0.4,0.6,0.8,0.2,0.8,0.2,0.2,0.8,1,0
,,66cf32c269c7951c97de25fc,66daf8f97b99d644b6352da9,2024-09-06_14h44.21.179,mdp,2024.2.1,Win32,166.6666667,66d7945b1baad48e845df3ce,,,,,,,,,,,,,,,,,,,,,,,,,,,,,,,,,,,,,,,,,,,,,,,,,,,,,,,,1168.9455,1227.4542,0,3,3,8,1,imgs/elephant.png,imgs/goat.png,imgs/horse.png,imgs/bear.png,imgs/cat.png,,,,,,,,,,,,,,,,,,,,,,,,
,,66cf32c269c7951c97de25fc,66daf8f97b99d644b6352da9,2024-09-06_14h44.21.179,mdp,2024.2.1,Win32,166.6666667,66d7945b1baad48e845df3ce,,,,,,,,,,,,,,1,seqs/st1seq18.csv,1227.459,1229.8359,space,1.8678,,1229.8376,1229.8376,1229.8378,1231.9935,1,0,right,1.6498,,1231.9938,1231.9942,0,0,,1231.9943,1231.9945,0,0,,1,1231.9945,1231.9945,1231.9946,1233.4905,0,0,0,0,1,0.2,0.8,0.8,0.2,1,0,,,,,,,,,,,,,,,,,,,,,,,,,,,,,,,,,,,,
,,66cf32c269c7951c97de25fc,66daf8f97b99d644b6352da9,2024-09-06_14h44.21.179,mdp,2024.2.1,Win32,166.6666667,66d7945b1baad48e845df3ce,,,,,,,,,,,,,,,,,,,,,1233.4906,1233.4906,1233.4909,1235.2177,1,0,right,1.2214,,1235.218,1235.2182,0,0,,1235.2184,1235.2185,0,0,,1,1235.2185,1235.2185,1235.2186,1236.7147,0,1,1,1,1,0.2,0.8,0.8,0.2,1,0,,,,,,,,,,,,,,,,,,,,,,,,,,,,,,,,,,,,
,,66cf32c269c7951c97de25fc,66daf8f97b99d644b6352da9,2024-09-06_14h44.21.179,mdp,2024.2.1,Win32,166.6666667,66d7945b1baad48e845df3ce,,,,,,,,,,,,,,,,,,,,,1236.7148,1236.7148,1236.7151,1239.0116,1,0,right,1.7892,,1239.012,1239.0122,0,0,,1239.0124,1239.0125,0,0,,1,1239.0125,1239.0125,1239.0126,1240.5086,0,2,2,2,1,0.2,0.8,0.8,0.2,1,0,,,,,,,,,,,,,,,,,,,,,,,,,,,,,,,,,,,,
,,66cf32c269c7951c97de25fc,66daf8f97b99d644b6352da9,2024-09-06_14h44.21.179,mdp,2024.2.1,Win32,166.6666667,66d7945b1baad48e845df3ce,,,,,,,,,,,,,,,,,,,,,1240.5087,1240.5087,1240.5091,1241.7086,1,0,right,0.6913,,1241.7089,1241.7091,0,0,,1241.7092,1241.7094,0,0,,1,1241.7094,1241.7094,1241.7096,1243.2056,0,3,3,3,1,0.2,0.8,0.8,0.2,1,0,,,,,,,,,,,,,,,,,,,,,,,,,,,,,,,,,,,,
,,66cf32c269c7951c97de25fc,66daf8f97b99d644b6352da9,2024-09-06_14h44.21.179,mdp,2024.2.1,Win32,166.6666667,66d7945b1baad48e845df3ce,,,,,,,,,,,,,,,,,,,,,1243.2056,1243.2056,1243.206,1244.4419,1,0,right,0.7303,,1244.4422,1244.4424,0,0,,1244.4426,1244.4427,0,0,,1,1244.4427,1244.4427,1244.443,1245.9389,0,4,4,4,1,0.2,0.8,0.8,0.2,1,0,,,,,,,,,,,,,,,,,,,,,,,,,,,,,,,,,,,,
,,66cf32c269c7951c97de25fc,66daf8f97b99d644b6352da9,2024-09-06_14h44.21.179,mdp,2024.2.1,Win32,166.6666667,66d7945b1baad48e845df3ce,,,,,,,,,,,,,,,,,,,,,1245.939,1245.939,1245.9393,1247.3571,1,1,right,0.9092,,1247.3573,1247.3577,0,1,,1247.3579,1247.358,0,0,,0,1247.358,1247.358,1247.3582,1248.854,0,5,5,5,1,0.2,0.8,0.8,0.2,1,0,,,,,,,,,,,,,,,,,,,,,,,,,,,,,,,,,,,,
,,66cf32c269c7951c97de25fc,66daf8f97b99d644b6352da9,2024-09-06_14h44.21.179,mdp,2024.2.1,Win32,166.6666667,66d7945b1baad48e845df3ce,,,,,,,,,,,,,,,,,,,,,1248.8541,1248.8541,1248.8545,1250.648,1,0,right,1.2901,,1250.6484,1250.6486,0,0,,1250.6488,1250.6489,0,1,,1,1250.6489,1250.649,1250.6491,1252.1449,0,6,6,6,1,0.2,0.8,0.8,0.2,1,0,,,,,,,,,,,,,,,,,,,,,,,,,,,,,,,,,,,,
,,66cf32c269c7951c97de25fc,66daf8f97b99d644b6352da9,2024-09-06_14h44.21.179,mdp,2024.2.1,Win32,166.6666667,66d7945b1baad48e845df3ce,,,,,,,,,,,,,,,,,,,,,1252.1452,1252.1452,1252.1454,1253.7388,1,0,right,1.0871,,1253.7392,1253.7394,0,0,,1253.7396,1253.7397,0,0,,1,1253.7397,1253.7397,1253.7399,1255.2358,0,7,7,7,1,0.2,0.8,0.8,0.2,1,0,,,,,,,,,,,,,,,,,,,,,,,,,,,,,,,,,,,,
,,66cf32c269c7951c97de25fc,66daf8f97b99d644b6352da9,2024-09-06_14h44.21.179,mdp,2024.2.1,Win32,166.6666667,66d7945b1baad48e845df3ce,,,,,,,,,,,,,,,,,,,,,1255.2359,1255.2359,1255.2362,1256.5873,1,0,right,0.8441,,1256.5876,1256.5878,0,0,,1256.588,1256.5881,0,1,,1,1256.5881,1256.5881,1256.5883,1258.0842,0,8,8,8,1,0.2,0.8,0.8,0.2,1,0,,,,,,,,,,,,,,,,,,,,,,,,,,,,,,,,,,,,
,,66cf32c269c7951c97de25fc,66daf8f97b99d644b6352da9,2024-09-06_14h44.21.179,mdp,2024.2.1,Win32,166.6666667,66d7945b1baad48e845df3ce,,,,,,,,,,,,,,,,,,,,,1258.0844,1258.0844,1258.0846,1259.163,1,0,right,0.5716,,1259.1634,1259.1635,0,1,,1259.1637,1259.1639,0,0,,1,1259.1639,1259.1639,1259.1641,1260.66,0,9,9,9,1,0.2,0.8,0.8,0.2,1,0,,,,,,,,,,,,,,,,,,,,,,,,,,,,,,,,,,,,
,,66cf32c269c7951c97de25fc,66daf8f97b99d644b6352da9,2024-09-06_14h44.21.179,mdp,2024.2.1,Win32,166.6666667,66d7945b1baad48e845df3ce,,,,,,,,,,,,,,,,,,,,,1260.6601,1260.6601,1260.6604,1262.1569,1,0,right,0.9881,,1262.1574,1262.1576,0,0,,1262.1577,1262.1579,0,0,,1,1262.1579,1262.1579,1262.158,1263.6539,0,10,10,10,1,0.2,0.8,0.8,0.2,1,0,,,,,,,,,,,,,,,,,,,,,,,,,,,,,,,,,,,,
,,66cf32c269c7951c97de25fc,66daf8f97b99d644b6352da9,2024-09-06_14h44.21.179,mdp,2024.2.1,Win32,166.6666667,66d7945b1baad48e845df3ce,,,,,,,,,,,,,,,,,,,,,1263.654,1263.654,1263.6543,1264.9145,1,1,right,0.7539,,1264.9148,1264.915,0,1,,1264.9152,1264.9153,0,0,,0,1264.9153,1264.9153,1264.9155,1266.4114,0,11,11,11,1,0.8,0.2,0.2,0.8,1,0,,,,,,,,,,,,,,,,,,,,,,,,,,,,,,,,,,,,
,,66cf32c269c7951c97de25fc,66daf8f97b99d644b6352da9,2024-09-06_14h44.21.179,mdp,2024.2.1,Win32,166.6666667,66d7945b1baad48e845df3ce,,,,,,,,,,,,,,,,,,,,,1266.4115,1266.4116,1266.412,1267.7933,1,1,right,0.8764,,1267.7936,1267.7939,0,1,,1267.7941,1267.7942,0,0,,0,1267.7942,1267.7942,1267.7945,1269.2902,0,12,12,12,1,0.6,0.4,0.4,0.6,1,0,,,,,,,,,,,,,,,,,,,,,,,,,,,,,,,,,,,,
,,66cf32c269c7951c97de25fc,66daf8f97b99d644b6352da9,2024-09-06_14h44.21.179,mdp,2024.2.1,Win32,166.6666667,66d7945b1baad48e845df3ce,,,,,,,,,,,,,,,,,,,,,1269.2904,1269.2904,1269.2907,1270.2963,0,0,left,0.5016,,1270.2966,1270.2967,0,0,,1270.2969,1270.297,0,1,,1,1270.297,1270.297,1270.2971,1271.7932,0,13,13,13,1,0.6,0.4,0.4,0.6,1,0,,,,,,,,,,,,,,,,,,,,,,,,,,,,,,,,,,,,
,,66cf32c269c7951c97de25fc,66daf8f97b99d644b6352da9,2024-09-06_14h44.21.179,mdp,2024.2.1,Win32,166.6666667,66d7945b1baad48e845df3ce,,,,,,,,,,,,,,,,,,,,,1271.7934,1271.7934,1271.7936,1272.8115,0,0,left,0.5106,,1272.8117,1272.8119,0,0,,1272.8121,1272.8123,0,1,,1,1272.8123,1272.8123,1272.8124,1274.3084,0,14,14,14,1,0.6,0.4,0.4,0.6,1,0,,,,,,,,,,,,,,,,,,,,,,,,,,,,,,,,,,,,
,,66cf32c269c7951c97de25fc,66daf8f97b99d644b6352da9,2024-09-06_14h44.21.179,mdp,2024.2.1,Win32,166.6666667,66d7945b1baad48e845df3ce,,,,,,,,,,,,,,,,,,,,,1274.3085,1274.3085,1274.3088,1275.3932,0,1,left,0.5794,,1275.3935,1275.3937,0,0,,1275.3939,1275.3941,0,0,,0,1275.3941,1275.3941,1275.3943,1276.8902,0,15,15,15,1,0.6,0.4,0.4,0.6,1,0,,,,,,,,,,,,,,,,,,,,,,,,,,,,,,,,,,,,
,,66cf32c269c7951c97de25fc,66daf8f97b99d644b6352da9,2024-09-06_14h44.21.179,mdp,2024.2.1,Win32,166.6666667,66d7945b1baad48e845df3ce,,,,,,,,,,,,,,,,,,,,,1276.8902,1276.8902,1276.8905,1277.7872,0,0,left,0.3895,,1277.7874,1277.7876,0,0,,1277.7878,1277.788,0,0,,1,1277.788,1277.788,1277.7881,1279.2841,0,16,16,16,1,0.8,0.2,0.6,0.4,1,0,,,,,,,,,,,,,,,,,,,,,,,,,,,,,,,,,,,,
,,66cf32c269c7951c97de25fc,66daf8f97b99d644b6352da9,2024-09-06_14h44.21.179,mdp,2024.2.1,Win32,166.6666667,66d7945b1baad48e845df3ce,,,,,,,,,,,,,,,,,,,,,1279.2843,1279.2843,1279.2845,1280.3084,0,0,left,0.5158,,1280.3087,1280.3088,0,0,,1280.3091,1280.3092,0,0,,1,1280.3092,1280.3092,1280.3094,1281.8053,0,17,17,17,1,0.8,0.2,0.6,0.4,1,0,,,,,,,,,,,,,,,,,,,,,,,,,,,,,,,,,,,,
,,66cf32c269c7951c97de25fc,66daf8f97b99d644b6352da9,2024-09-06_14h44.21.179,mdp,2024.2.1,Win32,166.6666667,66d7945b1baad48e845df3ce,,,,,,,,,,,,,,,,,,,,,1281.8054,1281.8054,1281.8057,1282.8416,0,0,left,0.5304,,1282.842,1282.8421,0,0,,1282.8424,1282.8425,0,1,,1,1282.8426,1282.8426,1282.8427,1284.3386,0,18,18,18,1,0.6,0.4,0.8,0.2,1,0,,,,,,,,,,,,,,,,,,,,,,,,,,,,,,,,,,,,
,,66cf32c269c7951c97de25fc,66daf8f97b99d644b6352da9,2024-09-06_14h44.21.179,mdp,2024.2.1,Win32,166.6666667,66d7945b1baad48e845df3ce,,,,,,,,,,,,,,,,,,,,,1284.3387,1284.3387,1284.339,1285.3387,0,0,left,0.4932,,1285.339,1285.3391,0,0,,1285.3393,1285.3394,0,0,,1,1285.3395,1285.3395,1285.3397,1286.8356,0,19,19,19,1,0.6,0.4,0.8,0.2,1,0,,,,,,,,,,,,,,,,,,,,,,,,,,,,,,,,,,,,
,,66cf32c269c7951c97de25fc,66daf8f97b99d644b6352da9,2024-09-06_14h44.21.179,mdp,2024.2.1,Win32,166.6666667,66d7945b1baad48e845df3ce,,,,,,,,,,,,,,,,,,,,,1286.8357,1286.8357,1286.836,1288.1326,0,0,left,0.7883,,1288.1328,1288.133,0,0,,1288.1332,1288.1334,0,1,,1,1288.1334,1288.1334,1288.1335,1289.6295,0,20,20,20,1,0.6,0.4,0.8,0.2,1,0,,,,,,,,,,,,,,,,,,,,,,,,,,,,,,,,,,,,
,,66cf32c269c7951c97de25fc,66daf8f97b99d644b6352da9,2024-09-06_14h44.21.179,mdp,2024.2.1,Win32,166.6666667,66d7945b1baad48e845df3ce,,,,,,,,,,,,,,,,,,,,,1289.6296,1289.6296,1289.6299,1290.6599,0,0,left,0.5222,,1290.6601,1290.6603,0,1,,1290.6605,1290.6607,0,0,,1,1290.6607,1290.6607,1290.6607,1292.1568,0,21,21,21,1,0.6,0.4,0.8,0.2,1,0,,,,,,,,,,,,,,,,,,,,,,,,,,,,,,,,,,,,
,,66cf32c269c7951c97de25fc,66daf8f97b99d644b6352da9,2024-09-06_14h44.21.179,mdp,2024.2.1,Win32,166.6666667,66d7945b1baad48e845df3ce,,,,,,,,,,,,,,,,,,,,,1292.1569,1292.1569,1292.1573,1293.3871,0,1,left,0.723,,1293.3874,1293.3876,0,0,,1293.3877,1293.3879,0,0,,0,1293.3879,1293.3879,1293.3881,1294.884,0,22,22,22,1,0.6,0.4,0.8,0.2,1,0,,,,,,,,,,,,,,,,,,,,,,,,,,,,,,,,,,,,
,,66cf32c269c7951c97de25fc,66daf8f97b99d644b6352da9,2024-09-06_14h44.21.179,mdp,2024.2.1,Win32,166.6666667,66d7945b1baad48e845df3ce,,,,,,,,,,,,,,,,,,,,,1294.8841,1294.8841,1294.8843,1295.787,0,1,left,0.3958,,1295.7873,1295.7875,0,1,,1295.7877,1295.7878,0,0,,0,1295.7878,1295.7878,1295.788,1297.284,0,23,23,23,1,0.6,0.4,0.8,0.2,1,0,,,,,,,,,,,,,,,,,,,,,,,,,,,,,,,,,,,,
,,66cf32c269c7951c97de25fc,66daf8f97b99d644b6352da9,2024-09-06_14h44.21.179,mdp,2024.2.1,Win32,166.6666667,66d7945b1baad48e845df3ce,,,,,,,,,,,,,,,,,,,,,1297.2841,1297.2841,1297.2843,1298.3204,1,1,right,0.5319,,1298.3206,1298.3208,0,1,,1298.3209,1298.3211,0,0,,0,1298.3211,1298.3211,1298.3212,1299.8173,0,24,24,24,1,0.4,0.6,0.6,0.4,1,0,,,,,,,,,,,,,,,,,,,,,,,,,,,,,,,,,,,,
,,66cf32c269c7951c97de25fc,66daf8f97b99d644b6352da9,2024-09-06_14h44.21.179,mdp,2024.2.1,Win32,166.6666667,66d7945b1baad48e845df3ce,,,,,,,,,,,,,,,,,,,,,1299.8174,1299.8174,1299.8177,1300.6476,1,0,right,0.3264,,1300.6479,1300.648,0,1,,1300.6482,1300.6484,0,1,,1,1300.6484,1300.6484,1300.6485,1302.1446,0,25,25,25,1,0.8,0.2,0.4,0.6,1,0,,,,,,,,,,,,,,,,,,,,,,,,,,,,,,,,,,,,
,,66cf32c269c7951c97de25fc,66daf8f97b99d644b6352da9,2024-09-06_14h44.21.179,mdp,2024.2.1,Win32,166.6666667,66d7945b1baad48e845df3ce,,,,,,,,,,,,,,,,,,,,,1302.1446,1302.1446,1302.1449,1303.0659,1,1,right,0.4151,,1303.0661,1303.0663,0,1,,1303.0666,1303.0667,0,0,,0,1303.0667,1303.0667,1303.0669,1304.5628,0,26,26,26,1,0.8,0.2,0.4,0.6,1,0,,,,,,,,,,,,,,,,,,,,,,,,,,,,,,,,,,,,
,,66cf32c269c7951c97de25fc,66daf8f97b99d644b6352da9,2024-09-06_14h44.21.179,mdp,2024.2.1,Win32,166.6666667,66d7945b1baad48e845df3ce,,,,,,,,,,,,,,,,,,,,,1304.5629,1304.5629,1304.5631,1305.3082,1,0,right,0.2371,,1305.3085,1305.3086,0,0,,1305.3089,1305.3089,0,0,,1,1305.3089,1305.3089,1305.3091,1306.8051,0,27,27,27,1,0.2,0.8,0.8,0.2,1,0,,,,,,,,,,,,,,,,,,,,,,,,,,,,,,,,,,,,
,,66cf32c269c7951c97de25fc,66daf8f97b99d644b6352da9,2024-09-06_14h44.21.179,mdp,2024.2.1,Win32,166.6666667,66d7945b1baad48e845df3ce,,,,,,,,,,,,,,,,,,,,,1306.8052,1306.8052,1306.8055,1307.5688,1,0,right,0.2586,,1307.5691,1307.5693,0,0,,1307.5695,1307.5697,0,0,,1,1307.5697,1307.5697,1307.5698,1309.0658,0,28,28,28,1,0.2,0.8,0.8,0.2,1,0,,,,,,,,,,,,,,,,,,,,,,,,,,,,,,,,,,,,
,,66cf32c269c7951c97de25fc,66daf8f97b99d644b6352da9,2024-09-06_14h44.21.179,mdp,2024.2.1,Win32,166.6666667,66d7945b1baad48e845df3ce,,,,,,,,,,,,,,,,,,,,,1309.0659,1309.0659,1309.0661,1309.9446,1,0,right,0.3742,,1309.9448,1309.9451,0,0,,1309.9453,1309.9454,0,0,,1,1309.9454,1309.9454,1309.9456,1311.4415,0,29,29,29,1,0.2,0.8,0.8,0.2,1,0,,,,,,,,,,,,,,,,,,,,,,,,,,,,,,,,,,,,
,,66cf32c269c7951c97de25fc,66daf8f97b99d644b6352da9,2024-09-06_14h44.21.179,mdp,2024.2.1,Win32,166.6666667,66d7945b1baad48e845df3ce,,,,,,,,,,,,,,,,,,,,,1311.4416,1311.4416,1311.4418,1312.2354,1,1,right,0.2862,,1312.2357,1312.2359,0,1,,1312.2361,1312.2363,0,1,,0,1312.2363,1312.2363,1312.2364,1313.7324,0,30,30,30,1,0.6,0.4,0.2,0.8,1,0,,,,,,,,,,,,,,,,,,,,,,,,,,,,,,,,,,,,
,,66cf32c269c7951c97de25fc,66daf8f97b99d644b6352da9,2024-09-06_14h44.21.179,mdp,2024.2.1,Win32,166.6666667,66d7945b1baad48e845df3ce,,,,,,,,,,,,,,,,,,,,,1313.7325,1313.7325,1313.7327,1314.5384,1,1,right,0.2994,,1314.5388,1314.5389,0,1,,1314.5392,1314.5393,0,1,,0,1314.5393,1314.5393,1314.5394,1316.0354,0,31,31,31,1,0.6,0.4,0.2,0.8,1,0,,,,,,,,,,,,,,,,,,,,,,,,,,,,,,,,,,,,
,,66cf32c269c7951c97de25fc,66daf8f97b99d644b6352da9,2024-09-06_14h44.21.179,mdp,2024.2.1,Win32,166.6666667,66d7945b1baad48e845df3ce,,,,,,,,,,,,,,,,,,,,,1316.0355,1316.0355,1316.0358,1316.9809,1,1,right,0.4365,,1316.9811,1316.9813,0,1,,1316.9816,1316.9817,0,1,,0,1316.9817,1316.9817,1316.9819,1318.4778,0,32,32,32,1,0.6,0.4,0.2,0.8,1,0,,,,,,,,,,,,,,,,,,,,,,,,,,,,,,,,,,,,
,,66cf32c269c7951c97de25fc,66daf8f97b99d644b6352da9,2024-09-06_14h44.21.179,mdp,2024.2.1,Win32,166.6666667,66d7945b1baad48e845df3ce,,,,,,,,,,,,,,,,,,,,,1318.4779,1318.4779,1318.4781,1320.3627,0,1,left,1.3781,,1320.3629,1320.3632,0,0,,1320.3634,1320.3635,0,0,,0,1320.3635,1320.3635,1320.3638,1321.8596,0,33,33,33,1,0.6,0.4,0.2,0.8,1,0,,,,,,,,,,,,,,,,,,,,,,,,,,,,,,,,,,,,
,,66cf32c269c7951c97de25fc,66daf8f97b99d644b6352da9,2024-09-06_14h44.21.179,mdp,2024.2.1,Win32,166.6666667,66d7945b1baad48e845df3ce,,,,,,,,,,,,,,,,,,,,,1321.8597,1321.8597,1321.8599,1323.2172,0,0,left,0.8521,,1323.2174,1323.2177,0,0,,1323.2179,1323.218,0,0,,1,1323.218,1323.218,1323.2181,1324.7141,0,34,34,34,1,0.8,0.2,0.8,0.2,1,0,,,,,,,,,,,,,,,,,,,,,,,,,,,,,,,,,,,,
,,66cf32c269c7951c97de25fc,66daf8f97b99d644b6352da9,2024-09-06_14h44.21.179,mdp,2024.2.1,Win32,166.6666667,66d7945b1baad48e845df3ce,,,,,,,,,,,,,,,,,,,,,1324.7142,1324.7142,1324.7145,1325.7081,0,1,left,0.4855,,1325.7084,1325.7086,0,1,,1325.7088,1325.709,0,1,,0,1325.709,1325.709,1325.7091,1327.205,0,35,35,35,1,0.8,0.2,0.8,0.2,1,0,,,,,,,,,,,,,,,,,,,,,,,,,,,,,,,,,,,,
,,66cf32c269c7951c97de25fc,66daf8f97b99d644b6352da9,2024-09-06_14h44.21.179,mdp,2024.2.1,Win32,166.6666667,66d7945b1baad48e845df3ce,,,,,,,,,,,,,,,,,,,,,1327.2052,1327.2052,1327.2054,1328.4414,1,0,right,0.7307,,1328.4417,1328.442,0,1,,1328.4421,1328.4422,0,0,,1,1328.4422,1328.4422,1328.4424,1329.9384,0,36,36,36,1,0.8,0.2,0.8,0.2,1,0,,,,,,,,,,,,,,,,,,,,,,,,,,,,,,,,,,,,
,,66cf32c269c7951c97de25fc,66daf8f97b99d644b6352da9,2024-09-06_14h44.21.179,mdp,2024.2.1,Win32,166.6666667,66d7945b1baad48e845df3ce,,,,,,,,,,,,,,,,,,,,,1329.9384,1329.9384,1329.9387,1331.0838,1,1,right,0.6374,,1331.0841,1331.0844,0,1,,1331.0845,1331.0847,0,1,,0,1331.0848,1331.0848,1331.0849,1332.5807,0,37,37,37,1,0.6,0.4,0.4,0.6,1,0,,,,,,,,,,,,,,,,,,,,,,,,,,,,,,,,,,,,
,,66cf32c269c7951c97de25fc,66daf8f97b99d644b6352da9,2024-09-06_14h44.21.179,mdp,2024.2.1,Win32,166.6666667,66d7945b1baad48e845df3ce,,,,,,,,,,,,,,,,,,,,,1332.5808,1332.5808,1332.5811,1333.708,1,0,right,0.6191,,1333.7083,1333.7085,0,1,,1333.7087,1333.7088,0,1,,1,1333.7088,1333.7088,1333.709,1335.205,0,38,38,38,1,0.6,0.4,0.4,0.6,1,0,,,,,,,,,,,,,,,,,,,,,,,,,,,,,,,,,,,,
,,66cf32c269c7951c97de25fc,66daf8f97b99d644b6352da9,2024-09-06_14h44.21.179,mdp,2024.2.1,Win32,166.6666667,66d7945b1baad48e845df3ce,,,,,,,,,,,,,,,,,,,,,1335.2051,1335.2051,1335.2053,1336.308,1,1,right,0.5948,,1336.3083,1336.3085,0,0,,1336.3088,1336.3089,0,1,,0,1336.3089,1336.3089,1336.309,1337.805,0,39,39,39,1,0.6,0.4,0.4,0.6,1,0,,,,,,,,,,,,,,,,,,,,,,,,,,,,,,,,,,,,
,,66cf32c269c7951c97de25fc,66daf8f97b99d644b6352da9,2024-09-06_14h44.21.179,mdp,2024.2.1,Win32,166.6666667,66d7945b1baad48e845df3ce,,,,,,,,,,,,,,,,,,,,,1337.8051,1337.8051,1337.8053,1338.6899,0,0,left,0.3788,,1338.69,1338.6903,0,0,,1338.6905,1338.6906,0,1,,1,1338.6906,1338.6906,1338.6908,1340.1868,0,40,40,40,1,0.6,0.4,0.4,0.6,1,0,,,,,,,,,,,,,,,,,,,,,,,,,,,,,,,,,,,,
