init_exp.started,init_exp.stopped,participant,session,date,expName,psychopyVersion,OS,frameRate,study_id,disp_instruction.started,disp_instruction.stopped,instruction.thisRepN,instruction.thisTrialN,instruction.thisN,instruction.thisIndex,instruction.ran,instimg_path,consent.started,consent.stopped,key_resp_3.keys,key_resp_3.rt,key_resp_3.duration,n_steps,sequence_path,init_block.started,init_block.stopped,key_resp.keys,key_resp.rt,key_resp.duration,init_trials.started,init_trials.stopped,step0.started,step0.stopped,act0,s1,res0.keys,res0.rt,res0.duration,step1.started,step1.stopped,act1,s2,res1.keys,step2.started,step2.stopped,act2,s3,res2.keys,rew,reward_comp.started,reward_comp.stopped,reward_disp.started,reward_disp.stopped,trials.thisRepN,trials.thisTrialN,trials.thisN,trials.thisIndex,trials.ran,s00a0s10,s00a0s11,s00a1s10,s00a1s11,rew10,rew11,break_block.started,break_block.stopped,block.thisRepN,block.thisTrialN,block.thisN,block.thisIndex,block.ran,s00path,s10path,s11path,s20path,s21path,res1.rt,res1.duration,s10a0s20,s10a0s21,s10a1s20,s10a1s21,s11a0s20,s11a0s21,s11a1s20,s11a1s21,rew20,rew21,res2.rt,res2.duration,s20a0s30,s20a0s31,s20a1s30,s20a1s31,s21a0s30,s21a0s31,s21a1s30,s21a1s31,rew30,rew31
0.0004,0.0019,66d0a027b8886581c95f2768,66fc979040a8f383c4a55212,2024-10-02_01h45.19.356,mdp,2024.2.1,Win32,142.8571429,66fa4ebf79326e780c390304,,,,,,,,,,,,,,,,,,,,,,,,,,,,,,,,,,,,,,,,,,,,,,,,,,,,,,,,,,,,,,,,,,,,,,,,,,,,,,,,,,,,,,,,,,,
,,66d0a027b8886581c95f2768,66fc979040a8f383c4a55212,2024-10-02_01h45.19.356,mdp,2024.2.1,Win32,142.8571429,66fa4ebf79326e780c390304,0.0044,55.7518,0,0,0,0,1,rlnn_exp/rlnn_exp.001.png,,,,,,,,,,,,,,,,,,,,,,,,,,,,,,,,,,,,,,,,,,,,,,,,,,,,,,,,,,,,,,,,,,,,,,,,,,,,,,,,,,,
,,66d0a027b8886581c95f2768,66fc979040a8f383c4a55212,2024-10-02_01h45.19.356,mdp,2024.2.1,Win32,142.8571429,66fa4ebf79326e780c390304,55.7522,175.2176,0,1,1,1,1,rlnn_exp/rlnn_exp.002.png,,,,,,,,,,,,,,,,,,,,,,,,,,,,,,,,,,,,,,,,,,,,,,,,,,,,,,,,,,,,,,,,,,,,,,,,,,,,,,,,,,,
,,66d0a027b8886581c95f2768,66fc979040a8f383c4a55212,2024-10-02_01h45.19.356,mdp,2024.2.1,Win32,142.8571429,66fa4ebf79326e780c390304,175.2181,204.933,0,2,2,2,1,rlnn_exp/rlnn_exp.003.png,,,,,,,,,,,,,,,,,,,,,,,,,,,,,,,,,,,,,,,,,,,,,,,,,,,,,,,,,,,,,,,,,,,,,,,,,,,,,,,,,,,
,,66d0a027b8886581c95f2768,66fc979040a8f383c4a55212,2024-10-02_01h45.19.356,mdp,2024.2.1,Win32,142.8571429,66fa4ebf79326e780c390304,204.9335,227.0442,0,3,3,3,1,rlnn_exp/rlnn_exp.004.png,,,,,,,,,,,,,,,,,,,,,,,,,,,,,,,,,,,,,,,,,,,,,,,,,,,,,,,,,,,,,,,,,,,,,,,,,,,,,,,,,,,
,,66d0a027b8886581c95f2768,66fc979040a8f383c4a55212,2024-10-02_01h45.19.356,mdp,2024.2.1,Win32,142.8571429,66fa4ebf79326e780c390304,,,,,,,,,227.0444,251.6833,y,14.6175,,,,,,,,,,,,,,,,,,,,,,,,,,,,,,,,,,,,,,,,,,,,,,,,,,,,,,,,,,,,,,,,,,,,,,,,,,,,,,,
,,66d0a027b8886581c95f2768,66fc979040a8f383c4a55212,2024-10-02_01h45.19.356,mdp,2024.2.1,Win32,142.8571429,66fa4ebf79326e780c390304,,,,,,,,,,,,,,1,seqs/st1seq19.csv,251.6865,254.7459,space,2.5489,,254.7474,254.7475,254.7476,258.5236,1,0,right,3.2598,,258.5238,258.5246,,0,,258.5247,258.5252,,0,,1,258.5253,258.5253,258.5256,260.0235,0,0,0,0,1,0.8,0.2,0.8,0.2,1,0,,,,,,,,,,,,,,,,,,,,,,,,,,,,,,,,,,,,
,,66d0a027b8886581c95f2768,66fc979040a8f383c4a55212,2024-10-02_01h45.19.356,mdp,2024.2.1,Win32,142.8571429,66fa4ebf79326e780c390304,,,,,,,,,,,,,,,,,,,,,260.0238,260.0238,260.0245,261.3916,1,1,right,0.8548,,261.3922,261.3927,,0,,261.393,261.3934,,0,,0,261.3934,261.3934,261.3936,262.8915,0,1,1,1,1,0.8,0.2,0.8,0.2,1,0,,,,,,,,,,,,,,,,,,,,,,,,,,,,,,,,,,,,
,,66d0a027b8886581c95f2768,66fc979040a8f383c4a55212,2024-10-02_01h45.19.356,mdp,2024.2.1,Win32,142.8571429,66fa4ebf79326e780c390304,,,,,,,,,,,,,,,,,,,,,262.8917,262.8917,262.8923,265.0026,0,0,left,1.5975,,265.0034,265.004,,0,,265.0043,265.0045,,1,,1,265.0045,265.0045,265.0047,266.5027,0,2,2,2,1,0.8,0.2,0.8,0.2,1,0,,,,,,,,,,,,,,,,,,,,,,,,,,,,,,,,,,,,
,,66d0a027b8886581c95f2768,66fc979040a8f383c4a55212,2024-10-02_01h45.19.356,mdp,2024.2.1,Win32,142.8571429,66fa4ebf79326e780c390304,,,,,,,,,,,,,,,,,,,,,266.5029,266.5029,266.5036,268.0861,0,0,left,1.0705,,268.0866,268.0871,,0,,268.0873,268.0875,,0,,1,268.0875,268.0875,268.0877,269.586,0,3,3,3,1,0.8,0.2,0.8,0.2,1,0,,,,,,,,,,,,,,,,,,,,,,,,,,,,,,,,,,,,
,,66d0a027b8886581c95f2768,66fc979040a8f383c4a55212,2024-10-02_01h45.19.356,mdp,2024.2.1,Win32,142.8571429,66fa4ebf79326e780c390304,,,,,,,,,,,,,,,,,,,,,269.5862,269.5862,269.5868,270.954,0,1,left,0.8555,,270.9547,270.9552,,0,,270.9554,270.9557,,0,,0,270.9557,270.9557,270.9559,272.4541,0,4,4,4,1,0.8,0.2,0.8,0.2,1,0,,,,,,,,,,,,,,,,,,,,,,,,,,,,,,,,,,,,
,,66d0a027b8886581c95f2768,66fc979040a8f383c4a55212,2024-10-02_01h45.19.356,mdp,2024.2.1,Win32,142.8571429,66fa4ebf79326e780c390304,,,,,,,,,,,,,,,,,,,,,272.4543,272.4543,272.4549,273.8777,1,0,right,0.9139,,273.8782,273.8787,,0,,273.879,273.8793,,0,,1,273.8793,273.8793,273.8795,275.3777,0,5,5,5,1,0.8,0.2,0.8,0.2,1,0,,,,,,,,,,,,,,,,,,,,,,,,,,,,,,,,,,,,
,,66d0a027b8886581c95f2768,66fc979040a8f383c4a55212,2024-10-02_01h45.19.356,mdp,2024.2.1,Win32,142.8571429,66fa4ebf79326e780c390304,,,,,,,,,,,,,,,,,,,,,275.3779,275.3779,275.3786,277.4889,1,0,right,1.5975,,277.4895,277.4899,,0,,277.4901,277.4904,,0,,1,277.4904,277.4904,277.4906,278.9888,0,6,6,6,1,0.8,0.2,0.8,0.2,1,0,,,,,,,,,,,,,,,,,,,,,,,,,,,,,,,,,,,,
,,66d0a027b8886581c95f2768,66fc979040a8f383c4a55212,2024-10-02_01h45.19.356,mdp,2024.2.1,Win32,142.8571429,66fa4ebf79326e780c390304,,,,,,,,,,,,,,,,,,,,,278.989,278.989,278.9897,280.6416,1,0,right,1.1421,,280.6422,280.6427,,0,,280.643,280.6433,,0,,1,280.6433,280.6433,280.6436,282.1417,0,7,7,7,1,0.8,0.2,0.8,0.2,1,0,,,,,,,,,,,,,,,,,,,,,,,,,,,,,,,,,,,,
,,66d0a027b8886581c95f2768,66fc979040a8f383c4a55212,2024-10-02_01h45.19.356,mdp,2024.2.1,Win32,142.8571429,66fa4ebf79326e780c390304,,,,,,,,,,,,,,,,,,,,,282.142,282.1421,282.1428,283.3292,1,0,right,0.6738,,283.3297,283.3301,,1,,283.3304,283.3307,,0,,1,283.3307,283.3308,283.3311,284.8291,0,8,8,8,1,0.8,0.2,0.8,0.2,1,0,,,,,,,,,,,,,,,,,,,,,,,,,,,,,,,,,,,,
,,66d0a027b8886581c95f2768,66fc979040a8f383c4a55212,2024-10-02_01h45.19.356,mdp,2024.2.1,Win32,142.8571429,66fa4ebf79326e780c390304,,,,,,,,,,,,,,,,,,,,,284.8293,284.8294,284.83,287.9125,1,1,right,2.5696,,287.9132,287.9136,,1,,287.9139,287.9142,,1,,0,287.9142,287.9142,287.9145,289.4125,0,9,9,9,1,0.6,0.4,0.2,0.8,1,0,,,,,,,,,,,,,,,,,,,,,,,,,,,,,,,,,,,,
,,66d0a027b8886581c95f2768,66fc979040a8f383c4a55212,2024-10-02_01h45.19.356,mdp,2024.2.1,Win32,142.8571429,66fa4ebf79326e780c390304,,,,,,,,,,,,,,,,,,,,,289.4128,289.4128,289.4135,290.1972,0,0,left,0.271,,290.1978,290.1982,,1,,290.1985,290.1988,,1,,1,290.1988,290.1988,290.199,291.6972,0,10,10,10,1,0.6,0.4,0.2,0.8,1,0,,,,,,,,,,,,,,,,,,,,,,,,,,,,,,,,,,,,
,,66d0a027b8886581c95f2768,66fc979040a8f383c4a55212,2024-10-02_01h45.19.356,mdp,2024.2.1,Win32,142.8571429,66fa4ebf79326e780c390304,,,,,,,,,,,,,,,,,,,,,291.6974,291.6974,291.6979,292.6834,0,1,left,0.4766,,292.6842,292.6846,,1,,292.685,292.6853,,0,,0,292.6853,292.6853,292.6856,294.1834,0,11,11,11,1,0.6,0.4,0.2,0.8,1,0,,,,,,,,,,,,,,,,,,,,,,,,,,,,,,,,,,,,
,,66d0a027b8886581c95f2768,66fc979040a8f383c4a55212,2024-10-02_01h45.19.356,mdp,2024.2.1,Win32,142.8571429,66fa4ebf79326e780c390304,,,,,,,,,,,,,,,,,,,,,294.1837,294.1837,294.1842,295.0167,1,1,right,0.3191,,295.0172,295.0176,,0,,295.0179,295.0181,,0,,0,295.0181,295.0181,295.0184,296.5166,0,12,12,12,1,0.8,0.2,0.4,0.6,1,0,,,,,,,,,,,,,,,,,,,,,,,,,,,,,,,,,,,,
,,66d0a027b8886581c95f2768,66fc979040a8f383c4a55212,2024-10-02_01h45.19.356,mdp,2024.2.1,Win32,142.8571429,66fa4ebf79326e780c390304,,,,,,,,,,,,,,,,,,,,,296.5169,296.5169,296.5173,297.3015,0,0,left,0.2709,,297.302,297.3024,,1,,297.3028,297.3031,,1,,1,297.3031,297.3031,297.3033,298.8015,0,13,13,13,1,0.8,0.2,0.4,0.6,1,0,,,,,,,,,,,,,,,,,,,,,,,,,,,,,,,,,,,,
,,66d0a027b8886581c95f2768,66fc979040a8f383c4a55212,2024-10-02_01h45.19.356,mdp,2024.2.1,Win32,142.8571429,66fa4ebf79326e780c390304,,,,,,,,,,,,,,,,,,,,,298.8017,298.8017,298.8021,299.6209,1,0,right,0.3095,,299.6214,299.6217,,1,,299.6221,299.6223,,0,,1,299.6223,299.6223,299.6226,301.1209,0,14,14,14,1,0.8,0.2,0.4,0.6,1,0,,,,,,,,,,,,,,,,,,,,,,,,,,,,,,,,,,,,
,,66d0a027b8886581c95f2768,66fc979040a8f383c4a55212,2024-10-02_01h45.19.356,mdp,2024.2.1,Win32,142.8571429,66fa4ebf79326e780c390304,,,,,,,,,,,,,,,,,,,,,301.1211,301.1211,301.1216,301.9056,0,1,left,0.271,,301.9061,301.9065,,1,,301.9067,301.9069,,0,,0,301.907,301.907,301.9071,303.4059,0,15,15,15,1,0.8,0.2,0.4,0.6,1,0,,,,,,,,,,,,,,,,,,,,,,,,,,,,,,,,,,,,
,,66d0a027b8886581c95f2768,66fc979040a8f383c4a55212,2024-10-02_01h45.19.356,mdp,2024.2.1,Win32,142.8571429,66fa4ebf79326e780c390304,,,,,,,,,,,,,,,,,,,,,303.4063,303.4063,303.407,304.364,0,0,left,0.4445,,304.3646,304.3651,,0,,304.3653,304.3656,,0,,1,304.3656,304.3656,304.3658,305.864,0,16,16,16,1,0.8,0.2,0.4,0.6,1,0,,,,,,,,,,,,,,,,,,,,,,,,,,,,,,,,,,,,
,,66d0a027b8886581c95f2768,66fc979040a8f383c4a55212,2024-10-02_01h45.19.356,mdp,2024.2.1,Win32,142.8571429,66fa4ebf79326e780c390304,,,,,,,,,,,,,,,,,,,,,305.8642,305.8642,305.8648,306.5098,1,0,right,0.1335,,306.5104,306.5108,,0,,306.511,306.5113,,0,,1,306.5114,306.5114,306.5115,308.0099,0,17,17,17,1,0.4,0.6,0.8,0.2,1,0,,,,,,,,,,,,,,,,,,,,,,,,,,,,,,,,,,,,
,,66d0a027b8886581c95f2768,66fc979040a8f383c4a55212,2024-10-02_01h45.19.356,mdp,2024.2.1,Win32,142.8571429,66fa4ebf79326e780c390304,,,,,,,,,,,,,,,,,,,,,308.0101,308.0101,308.0106,308.739,1,0,right,0.2155,,308.7397,308.7401,,1,,308.7404,308.7407,,0,,1,308.7407,308.7407,308.7411,310.239,0,18,18,18,1,0.4,0.6,0.8,0.2,1,0,,,,,,,,,,,,,,,,,,,,,,,,,,,,,,,,,,,,
,,66d0a027b8886581c95f2768,66fc979040a8f383c4a55212,2024-10-02_01h45.19.356,mdp,2024.2.1,Win32,142.8571429,66fa4ebf79326e780c390304,,,,,,,,,,,,,,,,,,,,,310.2393,310.2393,310.2398,311.5377,1,0,right,0.7865,,311.5384,311.5391,,0,,311.5394,311.5397,,0,,1,311.5397,311.5397,311.5399,313.0376,0,19,19,19,1,0.4,0.6,0.8,0.2,1,0,,,,,,,,,,,,,,,,,,,,,,,,,,,,,,,,,,,,
,,66d0a027b8886581c95f2768,66fc979040a8f383c4a55212,2024-10-02_01h45.19.356,mdp,2024.2.1,Win32,142.8571429,66fa4ebf79326e780c390304,,,,,,,,,,,,,,,,,,,,,313.0379,313.0379,313.0385,314.2947,1,0,right,0.7433,,314.2954,314.2957,,0,,314.296,314.2963,,0,,1,314.2963,314.2963,314.2965,315.7945,0,20,20,20,1,0.4,0.6,0.8,0.2,1,0,,,,,,,,,,,,,,,,,,,,,,,,,,,,,,,,,,,,
,,66d0a027b8886581c95f2768,66fc979040a8f383c4a55212,2024-10-02_01h45.19.356,mdp,2024.2.1,Win32,142.8571429,66fa4ebf79326e780c390304,,,,,,,,,,,,,,,,,,,,,315.7948,315.7948,315.7951,316.8571,1,1,right,0.5488,,316.8579,316.8584,,1,,316.8587,316.8589,,0,,0,316.8589,316.8589,316.8591,318.3571,0,21,21,21,1,0.4,0.6,0.8,0.2,1,0,,,,,,,,,,,,,,,,,,,,,,,,,,,,,,,,,,,,
,,66d0a027b8886581c95f2768,66fc979040a8f383c4a55212,2024-10-02_01h45.19.356,mdp,2024.2.1,Win32,142.8571429,66fa4ebf79326e780c390304,,,,,,,,,,,,,,,,,,,,,318.3573,318.3573,318.3578,319.128,0,1,left,0.2571,,319.1287,319.1291,,1,,319.1293,319.1296,,0,,0,319.1296,319.1296,319.1298,320.6279,0,22,22,22,1,0.4,0.6,0.8,0.2,1,0,,,,,,,,,,,,,,,,,,,,,,,,,,,,,,,,,,,,
,,66d0a027b8886581c95f2768,66fc979040a8f383c4a55212,2024-10-02_01h45.19.356,mdp,2024.2.1,Win32,142.8571429,66fa4ebf79326e780c390304,,,,,,,,,,,,,,,,,,,,,320.6281,320.6282,320.6286,321.2529,1,0,right,0.1117,,321.2534,321.2539,,0,,321.254,321.2543,,0,,1,321.2543,321.2543,321.2545,322.7529,0,23,23,23,1,0.4,0.6,0.8,0.2,1,0,,,,,,,,,,,,,,,,,,,,,,,,,,,,,,,,,,,,
,,66d0a027b8886581c95f2768,66fc979040a8f383c4a55212,2024-10-02_01h45.19.356,mdp,2024.2.1,Win32,142.8571429,66fa4ebf79326e780c390304,,,,,,,,,,,,,,,,,,,,,322.7532,322.7532,322.7538,323.4474,1,0,right,0.1807,,323.448,323.4484,,0,,323.4488,323.4489,,0,,1,323.449,323.449,323.4491,324.9474,0,24,24,24,1,0.4,0.6,0.8,0.2,1,0,,,,,,,,,,,,,,,,,,,,,,,,,,,,,,,,,,,,
,,66d0a027b8886581c95f2768,66fc979040a8f383c4a55212,2024-10-02_01h45.19.356,mdp,2024.2.1,Win32,142.8571429,66fa4ebf79326e780c390304,,,,,,,,,,,,,,,,,,,,,324.9476,324.9477,324.9481,325.4895,1,0,right,0.0313,,325.4904,325.491,,1,,325.4913,325.4917,,1,,1,325.4917,325.4917,325.492,326.989,0,25,25,25,1,0.4,0.6,0.8,0.2,1,0,,,,,,,,,,,,,,,,,,,,,,,,,,,,,,,,,,,,
,,66d0a027b8886581c95f2768,66fc979040a8f383c4a55212,2024-10-02_01h45.19.356,mdp,2024.2.1,Win32,142.8571429,66fa4ebf79326e780c390304,,,,,,,,,,,,,,,,,,,,,326.9893,326.9893,326.9898,327.8016,1,1,right,0.3015,,327.8022,327.8025,,0,,327.8027,327.803,,0,,0,327.8031,327.8031,327.8033,329.3015,0,26,26,26,1,0.4,0.6,0.8,0.2,1,0,,,,,,,,,,,,,,,,,,,,,,,,,,,,,,,,,,,,
,,66d0a027b8886581c95f2768,66fc979040a8f383c4a55212,2024-10-02_01h45.19.356,mdp,2024.2.1,Win32,142.8571429,66fa4ebf79326e780c390304,,,,,,,,,,,,,,,,,,,,,329.3017,329.3017,329.3025,330.1279,0,1,left,0.3153,,330.1284,330.1287,,1,,330.129,330.1292,,1,,0,330.1292,330.1292,330.1295,331.628,0,27,27,27,1,0.4,0.6,0.8,0.2,1,0,,,,,,,,,,,,,,,,,,,,,,,,,,,,,,,,,,,,
,,66d0a027b8886581c95f2768,66fc979040a8f383c4a55212,2024-10-02_01h45.19.356,mdp,2024.2.1,Win32,142.8571429,66fa4ebf79326e780c390304,,,,,,,,,,,,,,,,,,,,,331.6281,331.6281,331.6287,332.5238,1,0,right,0.3821,,332.5243,332.5248,,0,,332.5252,332.5254,,0,,1,332.5254,332.5254,332.5256,334.0239,0,28,28,28,1,0.4,0.6,0.8,0.2,1,0,,,,,,,,,,,,,,,,,,,,,,,,,,,,,,,,,,,,
,,66d0a027b8886581c95f2768,66fc979040a8f383c4a55212,2024-10-02_01h45.19.356,mdp,2024.2.1,Win32,142.8571429,66fa4ebf79326e780c390304,,,,,,,,,,,,,,,,,,,,,334.0241,334.0241,334.0246,334.6976,0,1,left,0.1617,,334.6984,334.6987,,0,,334.699,334.6994,,1,,0,334.6994,334.6994,334.6996,336.1975,0,29,29,29,1,0.4,0.6,0.8,0.2,1,0,,,,,,,,,,,,,,,,,,,,,,,,,,,,,,,,,,,,
,,66d0a027b8886581c95f2768,66fc979040a8f383c4a55212,2024-10-02_01h45.19.356,mdp,2024.2.1,Win32,142.8571429,66fa4ebf79326e780c390304,,,,,,,,,,,,,,,,,,,,,336.1978,336.1978,336.1983,336.9197,1,1,right,0.2103,,336.9203,336.9206,,1,,336.9209,336.9211,,0,,0,336.9211,336.9211,336.9214,338.4196,0,30,30,30,1,0.4,0.6,0.8,0.2,1,0,,,,,,,,,,,,,,,,,,,,,,,,,,,,,,,,,,,,
,,66d0a027b8886581c95f2768,66fc979040a8f383c4a55212,2024-10-02_01h45.19.356,mdp,2024.2.1,Win32,142.8571429,66fa4ebf79326e780c390304,,,,,,,,,,,,,,,,,,,,,338.4199,338.4199,338.4204,339.385,0,1,left,0.4555,,339.3855,339.3858,,1,,339.386,339.3863,,0,,0,339.3864,339.3864,339.3865,340.885,0,31,31,31,1,0.6,0.4,0.6,0.4,1,0,,,,,,,,,,,,,,,,,,,,,,,,,,,,,,,,,,,,
,,66d0a027b8886581c95f2768,66fc979040a8f383c4a55212,2024-10-02_01h45.19.356,mdp,2024.2.1,Win32,142.8571429,66fa4ebf79326e780c390304,,,,,,,,,,,,,,,,,,,,,340.8852,340.8852,340.8857,341.6003,1,0,right,0.2035,,341.6008,341.6013,,0,,341.6016,341.6018,,0,,1,341.6018,341.6018,341.602,343.1003,0,32,32,32,1,0.6,0.4,0.6,0.4,1,0,,,,,,,,,,,,,,,,,,,,,,,,,,,,,,,,,,,,
,,66d0a027b8886581c95f2768,66fc979040a8f383c4a55212,2024-10-02_01h45.19.356,mdp,2024.2.1,Win32,142.8571429,66fa4ebf79326e780c390304,,,,,,,,,,,,,,,,,,,,,343.1004,343.1004,343.1009,343.8156,0,0,left,0.2048,,343.816,343.8163,,1,,343.8166,343.8168,,0,,1,343.8168,343.8168,343.8171,345.3156,0,33,33,33,1,0.8,0.2,0.8,0.2,1,0,,,,,,,,,,,,,,,,,,,,,,,,,,,,,,,,,,,,
,,66d0a027b8886581c95f2768,66fc979040a8f383c4a55212,2024-10-02_01h45.19.356,mdp,2024.2.1,Win32,142.8571429,66fa4ebf79326e780c390304,,,,,,,,,,,,,,,,,,,,,345.3158,345.3158,345.3163,346.0378,0,0,left,0.2117,,346.0382,346.0385,,0,,346.0388,346.039,,0,,1,346.039,346.039,346.0392,347.5378,0,34,34,34,1,0.8,0.2,0.8,0.2,1,0,,,,,,,,,,,,,,,,,,,,,,,,,,,,,,,,,,,,
,,66d0a027b8886581c95f2768,66fc979040a8f383c4a55212,2024-10-02_01h45.19.356,mdp,2024.2.1,Win32,142.8571429,66fa4ebf79326e780c390304,,,,,,,,,,,,,,,,,,,,,347.538,347.538,347.5389,348.2878,0,0,left,0.2365,,348.2883,348.2887,,0,,348.289,348.2892,,0,,1,348.2892,348.2892,348.2894,349.7878,0,35,35,35,1,0.8,0.2,0.8,0.2,1,0,,,,,,,,,,,,,,,,,,,,,,,,,,,,,,,,,,,,
,,66d0a027b8886581c95f2768,66fc979040a8f383c4a55212,2024-10-02_01h45.19.356,mdp,2024.2.1,Win32,142.8571429,66fa4ebf79326e780c390304,,,,,,,,,,,,,,,,,,,,,349.788,349.788,349.7885,350.5448,0,0,left,0.2432,,350.5453,350.5458,,0,,350.546,350.5462,,0,,1,350.5462,350.5463,350.5464,352.0448,0,36,36,36,1,0.6,0.4,0.6,0.4,1,0,,,,,,,,,,,,,,,,,,,,,,,,,,,,,,,,,,,,
,,66d0a027b8886581c95f2768,66fc979040a8f383c4a55212,2024-10-02_01h45.19.356,mdp,2024.2.1,Win32,142.8571429,66fa4ebf79326e780c390304,,,,,,,,,,,,,,,,,,,,,352.0449,352.0449,352.0454,353.017,0,1,left,0.4624,,353.0175,353.0179,,1,,353.0182,353.0184,,0,,0,353.0184,353.0184,353.0186,354.517,0,37,37,37,1,0.6,0.4,0.6,0.4,1,0,,,,,,,,,,,,,,,,,,,,,,,,,,,,,,,,,,,,
,,66d0a027b8886581c95f2768,66fc979040a8f383c4a55212,2024-10-02_01h45.19.356,mdp,2024.2.1,Win32,142.8571429,66fa4ebf79326e780c390304,,,,,,,,,,,,,,,,,,,,,354.5173,354.5173,354.5177,355.2044,1,1,right,0.1737,,355.205,355.2054,,1,,355.2057,355.206,,1,,0,355.206,355.206,355.2062,356.7045,0,38,38,38,1,0.8,0.2,0.2,0.8,1,0,,,,,,,,,,,,,,,,,,,,,,,,,,,,,,,,,,,,
,,66d0a027b8886581c95f2768,66fc979040a8f383c4a55212,2024-10-02_01h45.19.356,mdp,2024.2.1,Win32,142.8571429,66fa4ebf79326e780c390304,,,,,,,,,,,,,,,,,,,,,356.7047,356.7048,356.7052,357.649,0,0,left,0.4307,,357.6497,357.6501,,0,,357.6505,357.6507,,0,,1,357.6507,357.6507,357.651,359.1489,0,39,39,39,1,0.8,0.2,0.2,0.8,1,0,,,,,,,,,,,,,,,,,,,,,,,,,,,,,,,,,,,,
,,66d0a027b8886581c95f2768,66fc979040a8f383c4a55212,2024-10-02_01h45.19.356,mdp,2024.2.1,Win32,142.8571429,66fa4ebf79326e780c390304,,,,,,,,,,,,,,,,,,,,,359.1491,359.1491,359.1502,359.9337,1,1,right,0.274,,359.9341,359.9344,,1,,359.9347,359.9349,,1,,0,359.9349,359.9349,359.9351,361.4337,0,40,40,40,1,0.8,0.2,0.2,0.8,1,0,,,,,,,,,,,,,,,,,,,,,,,,,,,,,,,,,,,,
,,66d0a027b8886581c95f2768,66fc979040a8f383c4a55212,2024-10-02_01h45.19.356,mdp,2024.2.1,Win32,142.8571429,66fa4ebf79326e780c390304,,,,,,,,,,,,,,,,,,,,,361.4338,361.4338,361.4344,362.1768,0,0,left,0.2325,,362.1775,362.1778,,0,,362.1781,362.1784,,0,,1,362.1784,362.1784,362.1786,363.6768,0,41,41,41,1,0.8,0.2,0.2,0.8,1,0,,,,,,,,,,,,,,,,,,,,,,,,,,,,,,,,,,,,
,,66d0a027b8886581c95f2768,66fc979040a8f383c4a55212,2024-10-02_01h45.19.356,mdp,2024.2.1,Win32,142.8571429,66fa4ebf79326e780c390304,,,,,,,,,,,,,,,,,,,,,363.6769,363.6769,363.6775,364.4059,0,0,left,0.2179,,364.4064,364.4068,,0,,364.4071,364.4073,,0,,1,364.4073,364.4073,364.4074,365.9059,0,42,42,42,1,0.8,0.2,0.2,0.8,1,0,,,,,,,,,,,,,,,,,,,,,,,,,,,,,,,,,,,,
,,66d0a027b8886581c95f2768,66fc979040a8f383c4a55212,2024-10-02_01h45.19.356,mdp,2024.2.1,Win32,142.8571429,66fa4ebf79326e780c390304,,,,,,,,,,,,,,,,,,,,,365.9061,365.9061,365.9066,366.6281,0,0,left,0.212,,366.6286,366.629,,0,,366.6293,366.6295,,0,,1,366.6295,366.6295,366.6298,368.1281,0,43,43,43,1,0.8,0.2,0.2,0.8,1,0,,,,,,,,,,,,,,,,,,,,,,,,,,,,,,,,,,,,
,,66d0a027b8886581c95f2768,66fc979040a8f383c4a55212,2024-10-02_01h45.19.356,mdp,2024.2.1,Win32,142.8571429,66fa4ebf79326e780c390304,,,,,,,,,,,,,,,,,,,,,368.1283,368.1283,368.1288,368.6837,0,0,left,0.0419,,368.6843,368.6846,,0,,368.6849,368.685,,0,,1,368.6851,368.6851,368.6853,370.1837,0,44,44,44,1,0.8,0.2,0.2,0.8,1,0,,,,,,,,,,,,,,,,,,,,,,,,,,,,,,,,,,,,
,,66d0a027b8886581c95f2768,66fc979040a8f383c4a55212,2024-10-02_01h45.19.356,mdp,2024.2.1,Win32,142.8571429,66fa4ebf79326e780c390304,,,,,,,,,,,,,,,,,,,,,370.1839,370.1839,370.1844,370.8921,0,0,left,0.1947,,370.8926,370.8929,,0,,370.8932,370.8934,,0,,1,370.8934,370.8934,370.8936,372.392,0,45,45,45,1,0.8,0.2,0.2,0.8,1,0,,,,,,,,,,,,,,,,,,,,,,,,,,,,,,,,,,,,
,,66d0a027b8886581c95f2768,66fc979040a8f383c4a55212,2024-10-02_01h45.19.356,mdp,2024.2.1,Win32,142.8571429,66fa4ebf79326e780c390304,,,,,,,,,,,,,,,,,,,,,372.3923,372.3923,372.3929,373.1351,0,0,left,0.2307,,373.1356,373.136,,1,,373.1362,373.1364,,0,,1,373.1364,373.1365,373.1367,374.6352,0,46,46,46,1,0.8,0.2,0.2,0.8,1,0,,,,,,,,,,,,,,,,,,,,,,,,,,,,,,,,,,,,
,,66d0a027b8886581c95f2768,66fc979040a8f383c4a55212,2024-10-02_01h45.19.356,mdp,2024.2.1,Win32,142.8571429,66fa4ebf79326e780c390304,,,,,,,,,,,,,,,,,,,,,374.6353,374.6353,374.6358,375.2255,0,0,left,0.0781,,375.226,375.2265,,1,,375.2268,375.227,,0,,1,375.2271,375.2271,375.2273,376.7254,0,47,47,47,1,0.8,0.2,0.2,0.8,1,0,,,,,,,,,,,,,,,,,,,,,,,,,,,,,,,,,,,,
,,66d0a027b8886581c95f2768,66fc979040a8f383c4a55212,2024-10-02_01h45.19.356,mdp,2024.2.1,Win32,142.8571429,66fa4ebf79326e780c390304,,,,,,,,,,,,,,,,,,,,,376.7256,376.7256,376.726,377.3296,0,1,left,0.091,,377.3301,377.3305,,1,,377.3309,377.3312,,1,,0,377.3312,377.3312,377.3314,378.8296,0,48,48,48,1,0.2,0.8,0.6,0.4,1,0,,,,,,,,,,,,,,,,,,,,,,,,,,,,,,,,,,,,
,,66d0a027b8886581c95f2768,66fc979040a8f383c4a55212,2024-10-02_01h45.19.356,mdp,2024.2.1,Win32,142.8571429,66fa4ebf79326e780c390304,,,,,,,,,,,,,,,,,,,,,378.8298,378.8298,378.8305,379.6837,1,1,right,0.3404,,379.6842,379.6845,,0,,379.6847,379.6851,,1,,0,379.6851,379.6851,379.6852,381.1837,0,49,49,49,1,0.6,0.4,0.4,0.6,1,0,,,,,,,,,,,,,,,,,,,,,,,,,,,,,,,,,,,,
,,66d0a027b8886581c95f2768,66fc979040a8f383c4a55212,2024-10-02_01h45.19.356,mdp,2024.2.1,Win32,142.8571429,66fa4ebf79326e780c390304,,,,,,,,,,,,,,,,,,,,,,,,,,,,,,,,,,,,,,,,,,,,,,,,,,,,,,,,381.184,439.6913,0,0,0,2,1,imgs/goat.png,imgs/elephant.png,imgs/kangaroo.png,imgs/bear.png,imgs/lion.png,,,,,,,,,,,,,,,,,,,,,,,,
,,66d0a027b8886581c95f2768,66fc979040a8f383c4a55212,2024-10-02_01h45.19.356,mdp,2024.2.1,Win32,142.8571429,66fa4ebf79326e780c390304,,,,,,,,,,,,,,2,seqs/st2seq0.csv,439.6919,447.0104,space,6.8057,,447.0122,447.0122,447.0127,451.1356,0,0,left,3.6035,,451.1364,454.0383,0,1,left,454.0389,454.0392,,1,,0,454.0392,454.0392,454.0395,455.5383,0,0,0,0,1,0.2,0.8,0.6,0.4,,,,,,,,,,,,,,,2.3813,,0.2,0.8,0.6,0.4,0.2,0.8,0.2,0.8,1,0,,,,,,,,,,,,
,,66d0a027b8886581c95f2768,66fc979040a8f383c4a55212,2024-10-02_01h45.19.356,mdp,2024.2.1,Win32,142.8571429,66fa4ebf79326e780c390304,,,,,,,,,,,,,,,,,,,,,455.5385,455.5385,455.5392,458.2259,0,1,left,2.1738,,458.2267,460.2675,0,0,left,460.268,460.2685,,1,,1,460.2686,460.2686,460.2689,461.7675,0,1,1,1,1,0.2,0.8,0.6,0.4,,,,,,,,,,,,,,,1.52,,0.2,0.8,0.6,0.4,0.2,0.8,0.2,0.8,1,0,,,,,,,,,,,,
,,66d0a027b8886581c95f2768,66fc979040a8f383c4a55212,2024-10-02_01h45.19.356,mdp,2024.2.1,Win32,142.8571429,66fa4ebf79326e780c390304,,,,,,,,,,,,,,,,,,,,,461.7678,461.7678,461.7682,463.1286,0,1,left,0.8497,,463.1292,464.8232,0,1,left,464.8237,464.8241,,0,,0,464.8241,464.8241,464.8243,466.323,0,2,2,2,1,0.2,0.8,0.6,0.4,,,,,,,,,,,,,,,1.1849,,0.2,0.8,0.6,0.4,0.2,0.8,0.2,0.8,1,0,,,,,,,,,,,,
,,66d0a027b8886581c95f2768,66fc979040a8f383c4a55212,2024-10-02_01h45.19.356,mdp,2024.2.1,Win32,142.8571429,66fa4ebf79326e780c390304,,,,,,,,,,,,,,,,,,,,,466.3232,466.3232,466.3237,467.0661,0,1,left,0.2328,,467.0665,468.5523,1,1,right,468.5529,468.5533,,0,,0,468.5533,468.5534,468.5536,470.0522,0,3,3,3,1,0.2,0.8,0.6,0.4,,,,,,,,,,,,,,,0.9724,,0.2,0.8,0.6,0.4,0.2,0.8,0.2,0.8,1,0,,,,,,,,,,,,
,,66d0a027b8886581c95f2768,66fc979040a8f383c4a55212,2024-10-02_01h45.19.356,mdp,2024.2.1,Win32,142.8571429,66fa4ebf79326e780c390304,,,,,,,,,,,,,,,,,,,,,470.0524,470.0524,470.0529,471.0731,0,1,left,0.5112,,471.0736,472.2953,0,1,left,472.2958,472.2964,,1,,0,472.2964,472.2964,472.2967,473.7954,0,4,4,4,1,0.2,0.8,0.6,0.4,,,,,,,,,,,,,,,0.7164,,0.2,0.8,0.6,0.4,0.2,0.8,0.2,0.8,1,0,,,,,,,,,,,,
,,66d0a027b8886581c95f2768,66fc979040a8f383c4a55212,2024-10-02_01h45.19.356,mdp,2024.2.1,Win32,142.8571429,66fa4ebf79326e780c390304,,,,,,,,,,,,,,,,,,,,,473.7956,473.7956,473.7962,474.7398,0,1,left,0.4307,,474.7403,476.233,0,1,left,476.2335,476.234,,1,,0,476.234,476.234,476.2344,477.7328,0,5,5,5,1,0.2,0.8,0.6,0.4,,,,,,,,,,,,,,,0.9863,,0.2,0.8,0.6,0.4,0.2,0.8,0.2,0.8,1,0,,,,,,,,,,,,
,,66d0a027b8886581c95f2768,66fc979040a8f383c4a55212,2024-10-02_01h45.19.356,mdp,2024.2.1,Win32,142.8571429,66fa4ebf79326e780c390304,,,,,,,,,,,,,,,,,,,,,477.733,477.733,477.7336,479.4273,1,0,right,1.1807,,479.4279,481.5453,1,1,right,481.5458,481.5462,,0,,0,481.5462,481.5462,481.5465,483.0454,0,6,6,6,1,0.2,0.8,0.6,0.4,,,,,,,,,,,,,,,1.5998,,0.2,0.8,0.6,0.4,0.2,0.8,0.2,0.8,1,0,,,,,,,,,,,,
,,66d0a027b8886581c95f2768,66fc979040a8f383c4a55212,2024-10-02_01h45.19.356,mdp,2024.2.1,Win32,142.8571429,66fa4ebf79326e780c390304,,,,,,,,,,,,,,,,,,,,,483.0456,483.0456,483.046,485.3164,0,1,left,1.7574,,485.3171,486.58,1,1,right,486.5805,486.5808,,1,,0,486.5808,486.5808,486.5811,488.0801,0,7,7,7,1,0.2,0.8,0.6,0.4,,,,,,,,,,,,,,,0.7459,,0.2,0.8,0.6,0.4,0.2,0.8,0.2,0.8,1,0,,,,,,,,,,,,
,,66d0a027b8886581c95f2768,66fc979040a8f383c4a55212,2024-10-02_01h45.19.356,mdp,2024.2.1,Win32,142.8571429,66fa4ebf79326e780c390304,,,,,,,,,,,,,,,,,,,,,488.0803,488.0803,488.0808,489.6913,0,1,left,1.1011,,489.6917,490.962,0,1,left,490.9625,490.963,,1,,0,490.963,490.963,490.9632,492.4622,0,8,8,8,1,0.2,0.8,0.6,0.4,,,,,,,,,,,,,,,0.7571,,0.2,0.8,0.6,0.4,0.2,0.8,0.2,0.8,1,0,,,,,,,,,,,,
,,66d0a027b8886581c95f2768,66fc979040a8f383c4a55212,2024-10-02_01h45.19.356,mdp,2024.2.1,Win32,142.8571429,66fa4ebf79326e780c390304,,,,,,,,,,,,,,,,,,,,,492.4624,492.4624,492.4629,493.4829,0,1,left,0.5075,,493.4834,495.0455,1,1,right,495.0463,495.0467,,1,,0,495.0467,495.0467,495.047,496.5455,0,9,9,9,1,0.2,0.8,0.6,0.4,,,,,,,,,,,,,,,1.0558,,0.2,0.8,0.6,0.4,0.2,0.8,0.2,0.8,1,0,,,,,,,,,,,,
,,66d0a027b8886581c95f2768,66fc979040a8f383c4a55212,2024-10-02_01h45.19.356,mdp,2024.2.1,Win32,142.8571429,66fa4ebf79326e780c390304,,,,,,,,,,,,,,,,,,,,,496.5457,496.5457,496.5462,497.8441,0,1,left,0.7849,,497.8446,499.6218,0,1,left,499.6224,499.6229,,1,,0,499.6229,499.6229,499.6232,501.1219,0,10,10,10,1,0.2,0.8,0.6,0.4,,,,,,,,,,,,,,,1.2582,,0.2,0.8,0.6,0.4,0.2,0.8,0.2,0.8,1,0,,,,,,,,,,,,
,,66d0a027b8886581c95f2768,66fc979040a8f383c4a55212,2024-10-02_01h45.19.356,mdp,2024.2.1,Win32,142.8571429,66fa4ebf79326e780c390304,,,,,,,,,,,,,,,,,,,,,501.1222,501.1222,501.123,501.9691,1,0,right,0.3335,,501.9697,505.1983,0,0,left,505.1991,505.1997,,1,,1,505.1997,505.1997,505.2,506.6983,0,11,11,11,1,0.2,0.8,0.6,0.4,,,,,,,,,,,,,,,2.7082,,0.2,0.8,0.6,0.4,0.2,0.8,0.2,0.8,1,0,,,,,,,,,,,,
,,66d0a027b8886581c95f2768,66fc979040a8f383c4a55212,2024-10-02_01h45.19.356,mdp,2024.2.1,Win32,142.8571429,66fa4ebf79326e780c390304,,,,,,,,,,,,,,,,,,,,,506.6985,506.6985,506.699,507.6566,1,0,right,0.4483,,507.6572,508.9067,0,0,left,508.9073,508.9077,,1,,1,508.9077,508.9078,508.9081,510.4066,0,12,12,12,1,0.2,0.8,0.6,0.4,,,,,,,,,,,,,,,0.7448,,0.2,0.8,0.6,0.4,0.2,0.8,0.2,0.8,1,0,,,,,,,,,,,,
,,66d0a027b8886581c95f2768,66fc979040a8f383c4a55212,2024-10-02_01h45.19.356,mdp,2024.2.1,Win32,142.8571429,66fa4ebf79326e780c390304,,,,,,,,,,,,,,,,,,,,,510.4068,510.4068,510.4073,511.4691,1,1,right,0.5503,,511.4696,513.7261,1,1,right,513.7267,513.727,,0,,0,513.727,513.727,513.7273,515.2261,0,13,13,13,1,0.2,0.8,0.6,0.4,,,,,,,,,,,,,,,1.7425,,0.2,0.8,0.6,0.4,0.2,0.8,0.2,0.8,1,0,,,,,,,,,,,,
,,66d0a027b8886581c95f2768,66fc979040a8f383c4a55212,2024-10-02_01h45.19.356,mdp,2024.2.1,Win32,142.8571429,66fa4ebf79326e780c390304,,,,,,,,,,,,,,,,,,,,,515.2264,515.2264,515.2268,516.608,1,0,right,0.8682,,516.6086,517.8928,0,1,left,517.8932,517.8936,,1,,0,517.8937,517.8937,517.894,519.3928,0,14,14,14,1,0.2,0.8,0.6,0.4,,,,,,,,,,,,,,,0.7671,,0.2,0.8,0.6,0.4,0.2,0.8,0.2,0.8,1,0,,,,,,,,,,,,
,,66d0a027b8886581c95f2768,66fc979040a8f383c4a55212,2024-10-02_01h45.19.356,mdp,2024.2.1,Win32,142.8571429,66fa4ebf79326e780c390304,,,,,,,,,,,,,,,,,,,,,519.393,519.393,519.3935,520.1498,1,0,right,0.2433,,520.1505,520.9553,1,0,right,520.9557,520.9561,,0,,1,520.9562,520.9562,520.9564,522.4554,0,15,15,15,1,0.2,0.8,0.6,0.4,,,,,,,,,,,,,,,0.2946,,0.2,0.8,0.6,0.4,0.2,0.8,0.2,0.8,1,0,,,,,,,,,,,,
,,66d0a027b8886581c95f2768,66fc979040a8f383c4a55212,2024-10-02_01h45.19.356,mdp,2024.2.1,Win32,142.8571429,66fa4ebf79326e780c390304,,,,,,,,,,,,,,,,,,,,,522.4557,522.4557,522.4564,523.6775,1,0,right,0.7085,,523.6781,524.858,1,1,right,524.8586,524.859,,0,,0,524.859,524.859,524.8594,526.3581,0,16,16,16,1,0.2,0.8,0.6,0.4,,,,,,,,,,,,,,,0.6696,,0.2,0.8,0.6,0.4,0.2,0.8,0.2,0.8,1,0,,,,,,,,,,,,
,,66d0a027b8886581c95f2768,66fc979040a8f383c4a55212,2024-10-02_01h45.19.356,mdp,2024.2.1,Win32,142.8571429,66fa4ebf79326e780c390304,,,,,,,,,,,,,,,,,,,,,526.3584,526.3584,526.359,527.1359,1,0,right,0.2641,,527.1364,528.1775,0,1,left,528.1781,528.1785,,0,,0,528.1785,528.1785,528.1789,529.6777,0,17,17,17,1,0.2,0.8,0.6,0.4,,,,,,,,,,,,,,,0.5363,,0.2,0.8,0.6,0.4,0.2,0.8,0.2,0.8,1,0,,,,,,,,,,,,
,,66d0a027b8886581c95f2768,66fc979040a8f383c4a55212,2024-10-02_01h45.19.356,mdp,2024.2.1,Win32,142.8571429,66fa4ebf79326e780c390304,,,,,,,,,,,,,,,,,,,,,529.6779,529.6779,529.6783,530.622,1,1,right,0.4312,,530.6226,532.5459,1,1,right,532.5464,532.5468,,1,,0,532.5468,532.5468,532.547,534.0456,0,18,18,18,1,0.2,0.8,0.6,0.4,,,,,,,,,,,,,,,1.4091,,0.2,0.8,0.6,0.4,0.2,0.8,0.2,0.8,1,0,,,,,,,,,,,,
,,66d0a027b8886581c95f2768,66fc979040a8f383c4a55212,2024-10-02_01h45.19.356,mdp,2024.2.1,Win32,142.8571429,66fa4ebf79326e780c390304,,,,,,,,,,,,,,,,,,,,,534.046,534.046,534.0465,535.1082,0,1,left,0.5505,,535.1089,536.3374,1,1,right,536.3387,536.3392,,1,,0,536.3392,536.3392,536.3395,537.8374,0,19,19,19,1,0.2,0.8,0.6,0.4,,,,,,,,,,,,,,,0.724,,0.2,0.8,0.6,0.4,0.2,0.8,0.2,0.8,1,0,,,,,,,,,,,,
,,66d0a027b8886581c95f2768,66fc979040a8f383c4a55212,2024-10-02_01h45.19.356,mdp,2024.2.1,Win32,142.8571429,66fa4ebf79326e780c390304,,,,,,,,,,,,,,,,,,,,,537.8377,537.8377,537.8383,538.4069,1,0,right,0.0557,,538.4077,539.6083,0,1,left,539.6091,539.6097,,1,,0,539.6097,539.6097,539.6099,541.1082,0,20,20,20,1,0.2,0.8,0.6,0.4,,,,,,,,,,,,,,,0.6828,,0.2,0.8,0.6,0.4,0.2,0.8,0.2,0.8,1,0,,,,,,,,,,,,
,,66d0a027b8886581c95f2768,66fc979040a8f383c4a55212,2024-10-02_01h45.19.356,mdp,2024.2.1,Win32,142.8571429,66fa4ebf79326e780c390304,,,,,,,,,,,,,,,,,,,,,541.1086,541.1086,541.1092,542.0042,1,1,right,0.3821,,542.0053,543.497,0,1,left,543.4977,543.498,,1,,0,543.4981,543.4981,543.4984,544.9972,0,21,21,21,1,0.2,0.8,0.6,0.4,,,,,,,,,,,,,,,0.9734,,0.2,0.8,0.6,0.4,0.2,0.8,0.2,0.8,1,0,,,,,,,,,,,,
,,66d0a027b8886581c95f2768,66fc979040a8f383c4a55212,2024-10-02_01h45.19.356,mdp,2024.2.1,Win32,142.8571429,66fa4ebf79326e780c390304,,,,,,,,,,,,,,,,,,,,,544.9976,544.9976,544.9982,546.4415,1,0,right,0.9307,,546.4421,547.5318,0,1,left,547.5324,547.5328,,1,,0,547.5328,547.5328,547.5331,549.0318,0,22,22,22,1,0.6,0.4,0.8,0.2,,,,,,,,,,,,,,,0.5777,,0.2,0.8,0.6,0.4,0.2,0.8,0.2,0.8,1,0,,,,,,,,,,,,
,,66d0a027b8886581c95f2768,66fc979040a8f383c4a55212,2024-10-02_01h45.19.356,mdp,2024.2.1,Win32,142.8571429,66fa4ebf79326e780c390304,,,,,,,,,,,,,,,,,,,,,549.032,549.032,549.0324,549.7888,1,0,right,0.2446,,549.7893,550.7679,1,0,right,550.7684,550.7688,,0,,1,550.7689,550.7689,550.7691,552.2682,0,23,23,23,1,0.6,0.4,0.8,0.2,,,,,,,,,,,,,,,0.4648,,0.2,0.8,0.6,0.4,0.2,0.8,0.2,0.8,1,0,,,,,,,,,,,,
,,66d0a027b8886581c95f2768,66fc979040a8f383c4a55212,2024-10-02_01h45.19.356,mdp,2024.2.1,Win32,142.8571429,66fa4ebf79326e780c390304,,,,,,,,,,,,,,,,,,,,,552.2686,552.2686,552.2692,553.2679,1,0,right,0.4862,,553.2684,554.2126,1,0,right,554.2131,554.2136,,0,,1,554.2136,554.2136,554.2138,555.7125,0,24,24,24,1,0.6,0.4,0.8,0.2,,,,,,,,,,,,,,,0.4376,,0.2,0.8,0.6,0.4,0.4,0.6,0.6,0.4,1,0,,,,,,,,,,,,
,,66d0a027b8886581c95f2768,66fc979040a8f383c4a55212,2024-10-02_01h45.19.356,mdp,2024.2.1,Win32,142.8571429,66fa4ebf79326e780c390304,,,,,,,,,,,,,,,,,,,,,555.7127,555.7127,555.7131,556.5666,1,1,right,0.3441,,556.567,559.018,0,0,left,559.0185,559.0189,,1,,1,559.0189,559.0189,559.0191,560.518,0,25,25,25,1,0.6,0.4,0.8,0.2,,,,,,,,,,,,,,,1.9297,,0.2,0.8,0.6,0.4,0.4,0.6,0.6,0.4,1,0,,,,,,,,,,,,
,,66d0a027b8886581c95f2768,66fc979040a8f383c4a55212,2024-10-02_01h45.19.356,mdp,2024.2.1,Win32,142.8571429,66fa4ebf79326e780c390304,,,,,,,,,,,,,,,,,,,,,560.5182,560.5182,560.5187,561.5179,1,0,right,0.4879,,561.5185,562.8583,1,0,right,562.8587,562.8591,,0,,1,562.8591,562.8591,562.8593,564.3583,0,26,26,26,1,0.6,0.4,0.8,0.2,,,,,,,,,,,,,,,0.8283,,0.2,0.8,0.6,0.4,0.2,0.8,0.4,0.6,1,0,,,,,,,,,,,,
,,66d0a027b8886581c95f2768,66fc979040a8f383c4a55212,2024-10-02_01h45.19.356,mdp,2024.2.1,Win32,142.8571429,66fa4ebf79326e780c390304,,,,,,,,,,,,,,,,,,,,,564.3587,564.3587,564.3593,565.1014,1,0,right,0.2294,,565.1019,566.4278,1,0,right,566.4284,566.4288,,0,,1,566.4288,566.4288,566.4292,567.9277,0,27,27,27,1,0.6,0.4,0.8,0.2,,,,,,,,,,,,,,,0.817,,0.2,0.8,0.6,0.4,0.2,0.8,0.4,0.6,1,0,,,,,,,,,,,,
,,66d0a027b8886581c95f2768,66fc979040a8f383c4a55212,2024-10-02_01h45.19.356,mdp,2024.2.1,Win32,142.8571429,66fa4ebf79326e780c390304,,,,,,,,,,,,,,,,,,,,,567.9279,567.9279,567.9284,568.9763,1,1,right,0.5385,,568.9768,569.9416,0,1,left,569.9422,569.9426,,0,,0,569.9426,569.9426,569.9429,571.4417,0,28,28,28,1,0.8,0.2,0.2,0.8,,,,,,,,,,,,,,,0.4528,,0.2,0.8,0.6,0.4,0.2,0.8,0.4,0.6,1,0,,,,,,,,,,,,
,,66d0a027b8886581c95f2768,66fc979040a8f383c4a55212,2024-10-02_01h45.19.356,mdp,2024.2.1,Win32,142.8571429,66fa4ebf79326e780c390304,,,,,,,,,,,,,,,,,,,,,571.442,571.442,571.4426,572.1916,1,1,right,0.2378,,572.1922,573.7125,0,0,left,573.7131,573.7134,,1,,1,573.7134,573.7134,573.7136,575.2125,0,29,29,29,1,0.8,0.2,0.2,0.8,,,,,,,,,,,,,,,1.0141,,0.2,0.8,0.6,0.4,0.2,0.8,0.4,0.6,1,0,,,,,,,,,,,,
,,66d0a027b8886581c95f2768,66fc979040a8f383c4a55212,2024-10-02_01h45.19.356,mdp,2024.2.1,Win32,142.8571429,66fa4ebf79326e780c390304,,,,,,,,,,,,,,,,,,,,,575.2128,575.2128,575.2134,576.4764,1,1,right,0.7497,,576.477,577.7293,0,1,left,577.7298,577.7301,,1,,0,577.7302,577.7302,577.7303,579.2265,0,30,30,30,1,0.8,0.2,0.2,0.8,,,,,,,,,,,,,,,0.7432,,0.2,0.8,0.6,0.4,0.2,0.8,0.4,0.6,1,0,,,,,,,,,,,,
,,66d0a027b8886581c95f2768,66fc979040a8f383c4a55212,2024-10-02_01h45.19.356,mdp,2024.2.1,Win32,142.8571429,66fa4ebf79326e780c390304,,,,,,,,,,,,,,,,,,,,,579.2266,579.2266,579.2271,580.1708,1,1,right,0.4307,,580.1714,581.4348,0,1,left,581.4356,581.4361,,1,,0,581.4361,581.4361,581.4365,582.9349,0,31,31,31,1,0.8,0.2,0.2,0.8,,,,,,,,,,,,,,,0.7501,,0.4,0.6,0.8,0.2,0.2,0.8,0.4,0.6,1,0,,,,,,,,,,,,
,,66d0a027b8886581c95f2768,66fc979040a8f383c4a55212,2024-10-02_01h45.19.356,mdp,2024.2.1,Win32,142.8571429,66fa4ebf79326e780c390304,,,,,,,,,,,,,,,,,,,,,582.9352,582.9352,582.9359,583.7056,1,1,right,0.2582,,583.7062,584.9557,0,1,left,584.9561,584.9565,,1,,0,584.9565,584.9566,584.9568,586.4556,0,32,32,32,1,0.6,0.4,0.4,0.6,,,,,,,,,,,,,,,0.7445,,0.4,0.6,0.8,0.2,0.2,0.8,0.4,0.6,1,0,,,,,,,,,,,,
,,66d0a027b8886581c95f2768,66fc979040a8f383c4a55212,2024-10-02_01h45.19.356,mdp,2024.2.1,Win32,142.8571429,66fa4ebf79326e780c390304,,,,,,,,,,,,,,,,,,,,,586.4559,586.4559,586.4564,587.2543,1,0,right,0.289,,587.2549,588.6431,1,0,right,588.6437,588.6441,,1,,1,588.6441,588.6441,588.6443,590.1431,0,33,33,33,1,0.6,0.4,0.4,0.6,,,,,,,,,,,,,,,0.8673,,0.4,0.6,0.8,0.2,0.6,0.4,0.2,0.8,1,0,,,,,,,,,,,,
,,66d0a027b8886581c95f2768,66fc979040a8f383c4a55212,2024-10-02_01h45.19.356,mdp,2024.2.1,Win32,142.8571429,66fa4ebf79326e780c390304,,,,,,,,,,,,,,,,,,,,,590.1434,590.1434,590.144,590.9764,1,0,right,0.3233,,590.9769,592.0043,1,0,right,592.0048,592.0052,,0,,1,592.0052,592.0052,592.0054,593.5042,0,34,34,34,1,0.6,0.4,0.4,0.6,,,,,,,,,,,,,,,0.514,,0.4,0.6,0.8,0.2,0.6,0.4,0.2,0.8,1,0,,,,,,,,,,,,
,,66d0a027b8886581c95f2768,66fc979040a8f383c4a55212,2024-10-02_01h45.19.356,mdp,2024.2.1,Win32,142.8571429,66fa4ebf79326e780c390304,,,,,,,,,,,,,,,,,,,,,593.5044,593.5044,593.505,594.2751,1,0,right,0.2571,,594.2756,595.3375,1,0,right,595.338,595.3384,,0,,1,595.3384,595.3384,595.3387,596.8376,0,35,35,35,1,0.6,0.4,0.4,0.6,,,,,,,,,,,,,,,0.5589,,0.4,0.6,0.8,0.2,0.6,0.4,0.2,0.8,1,0,,,,,,,,,,,,
,,66d0a027b8886581c95f2768,66fc979040a8f383c4a55212,2024-10-02_01h45.19.356,mdp,2024.2.1,Win32,142.8571429,66fa4ebf79326e780c390304,,,,,,,,,,,,,,,,,,,,,596.8378,596.8378,596.8383,597.9487,1,1,right,0.5973,,597.9493,599.1639,0,0,left,599.1645,599.1648,,0,,1,599.1648,599.1648,599.1651,600.6641,0,36,36,36,1,0.6,0.4,0.4,0.6,,,,,,,,,,,,,,,0.7016,,0.6,0.4,0.2,0.8,0.6,0.4,0.2,0.8,1,0,,,,,,,,,,,,
,,66d0a027b8886581c95f2768,66fc979040a8f383c4a55212,2024-10-02_01h45.19.356,mdp,2024.2.1,Win32,142.8571429,66fa4ebf79326e780c390304,,,,,,,,,,,,,,,,,,,,,600.6642,600.6642,600.6647,601.4765,1,1,right,0.2983,,601.4771,602.8168,0,1,left,602.8174,602.8177,,0,,0,602.8177,602.8177,602.818,604.3168,0,37,37,37,1,0.6,0.4,0.4,0.6,,,,,,,,,,,,,,,0.8361,,0.6,0.4,0.2,0.8,0.6,0.4,0.2,0.8,1,0,,,,,,,,,,,,
,,66d0a027b8886581c95f2768,66fc979040a8f383c4a55212,2024-10-02_01h45.19.356,mdp,2024.2.1,Win32,142.8571429,66fa4ebf79326e780c390304,,,,,,,,,,,,,,,,,,,,,604.317,604.317,604.3175,605.539,1,1,right,0.7102,,605.5397,606.6502,0,0,left,606.6505,606.6509,,1,,1,606.6509,606.6509,606.6511,608.1502,0,38,38,38,1,0.6,0.4,0.4,0.6,,,,,,,,,,,,,,,0.6004,,0.6,0.4,0.2,0.8,0.6,0.4,0.2,0.8,1,0,,,,,,,,,,,,
,,66d0a027b8886581c95f2768,66fc979040a8f383c4a55212,2024-10-02_01h45.19.356,mdp,2024.2.1,Win32,142.8571429,66fa4ebf79326e780c390304,,,,,,,,,,,,,,,,,,,,,608.1504,608.1504,608.1509,608.928,1,1,right,0.2668,,608.9284,610.0321,0,1,left,610.0327,610.0331,,1,,0,610.0331,610.0331,610.0335,611.5321,0,39,39,39,1,0.6,0.4,0.4,0.6,,,,,,,,,,,,,,,0.5978,,0.6,0.4,0.2,0.8,0.6,0.4,0.2,0.8,1,0,,,,,,,,,,,,
,,66d0a027b8886581c95f2768,66fc979040a8f383c4a55212,2024-10-02_01h45.19.356,mdp,2024.2.1,Win32,142.8571429,66fa4ebf79326e780c390304,,,,,,,,,,,,,,,,,,,,,611.5323,611.5323,611.5331,612.2752,1,1,right,0.2293,,612.2758,613.2891,0,1,left,613.2896,613.29,,0,,0,613.2901,613.2901,613.2903,614.789,0,40,40,40,1,0.6,0.4,0.4,0.6,,,,,,,,,,,,,,,0.5009,,0.6,0.4,0.2,0.8,0.6,0.4,0.2,0.8,1,0,,,,,,,,,,,,
,,66d0a027b8886581c95f2768,66fc979040a8f383c4a55212,2024-10-02_01h45.19.356,mdp,2024.2.1,Win32,142.8571429,66fa4ebf79326e780c390304,,,,,,,,,,,,,,,,,,,,,614.7892,614.7892,614.7896,615.553,1,1,right,0.2534,,615.5534,616.6501,0,0,left,616.6506,616.651,,1,,1,616.651,616.651,616.6512,618.1503,0,41,41,41,1,0.6,0.4,0.4,0.6,,,,,,,,,,,,,,,0.5936,,0.6,0.4,0.2,0.8,0.6,0.4,0.2,0.8,1,0,,,,,,,,,,,,
,,66d0a027b8886581c95f2768,66fc979040a8f383c4a55212,2024-10-02_01h45.19.356,mdp,2024.2.1,Win32,142.8571429,66fa4ebf79326e780c390304,,,,,,,,,,,,,,,,,,,,,618.1505,618.1506,618.1512,618.9906,1,1,right,0.3308,,618.9912,620.1641,0,0,left,620.1647,620.165,,0,,1,620.165,620.165,620.1653,621.6642,0,42,42,42,1,0.6,0.4,0.4,0.6,,,,,,,,,,,,,,,0.6599,,0.6,0.4,0.2,0.8,0.6,0.4,0.2,0.8,1,0,,,,,,,,,,,,
,,66d0a027b8886581c95f2768,66fc979040a8f383c4a55212,2024-10-02_01h45.19.356,mdp,2024.2.1,Win32,142.8571429,66fa4ebf79326e780c390304,,,,,,,,,,,,,,,,,,,,,621.6643,621.6643,621.6648,622.5183,1,1,right,0.3415,,622.5188,623.435,0,1,left,623.4357,623.4363,,0,,0,623.4363,623.4363,623.4366,624.935,0,43,43,43,1,0.6,0.4,0.4,0.6,,,,,,,,,,,,,,,0.4102,,0.6,0.4,0.2,0.8,0.6,0.4,0.2,0.8,1,0,,,,,,,,,,,,
,,66d0a027b8886581c95f2768,66fc979040a8f383c4a55212,2024-10-02_01h45.19.356,mdp,2024.2.1,Win32,142.8571429,66fa4ebf79326e780c390304,,,,,,,,,,,,,,,,,,,,,624.9352,624.9352,624.9358,625.7128,1,0,right,0.2641,,625.7134,626.8586,1,1,right,626.8593,626.8598,,1,,0,626.8599,626.8599,626.8602,628.3586,0,44,44,44,1,0.6,0.4,0.4,0.6,,,,,,,,,,,,,,,0.6243,,0.6,0.4,0.2,0.8,0.6,0.4,0.2,0.8,1,0,,,,,,,,,,,,
,,66d0a027b8886581c95f2768,66fc979040a8f383c4a55212,2024-10-02_01h45.19.356,mdp,2024.2.1,Win32,142.8571429,66fa4ebf79326e780c390304,,,,,,,,,,,,,,,,,,,,,628.3589,628.3589,628.3594,629.0877,1,1,right,0.2188,,629.0883,630.5045,0,1,left,630.5049,630.5053,,0,,0,630.5053,630.5053,630.5056,632.0044,0,45,45,45,1,0.6,0.4,0.4,0.6,,,,,,,,,,,,,,,0.904,,0.6,0.4,0.2,0.8,0.6,0.4,0.2,0.8,1,0,,,,,,,,,,,,
,,66d0a027b8886581c95f2768,66fc979040a8f383c4a55212,2024-10-02_01h45.19.356,mdp,2024.2.1,Win32,142.8571429,66fa4ebf79326e780c390304,,,,,,,,,,,,,,,,,,,,,632.0047,632.0047,632.0052,632.7614,1,1,right,0.2433,,632.7619,634.3447,1,1,right,634.3453,634.3456,,0,,0,634.3456,634.3456,634.346,635.8447,0,46,46,46,1,0.6,0.4,0.4,0.6,,,,,,,,,,,,,,,1.0786,,0.6,0.4,0.2,0.8,0.6,0.4,0.2,0.8,1,0,,,,,,,,,,,,
,,66d0a027b8886581c95f2768,66fc979040a8f383c4a55212,2024-10-02_01h45.19.356,mdp,2024.2.1,Win32,142.8571429,66fa4ebf79326e780c390304,,,,,,,,,,,,,,,,,,,,,635.8449,635.8449,635.8455,636.5948,1,1,right,0.2363,,636.5955,637.5947,0,0,left,637.5952,637.5955,,0,,1,637.5955,637.5955,637.5957,639.0947,0,47,47,47,1,0.6,0.4,0.4,0.6,,,,,,,,,,,,,,,0.4889,,0.6,0.4,0.2,0.8,0.6,0.4,0.2,0.8,1,0,,,,,,,,,,,,
,,66d0a027b8886581c95f2768,66fc979040a8f383c4a55212,2024-10-02_01h45.19.356,mdp,2024.2.1,Win32,142.8571429,66fa4ebf79326e780c390304,,,,,,,,,,,,,,,,,,,,,639.095,639.095,639.0954,639.9211,1,1,right,0.3161,,639.9216,641.0392,0,1,left,641.0397,641.0401,,0,,0,641.0401,641.0401,641.0403,642.5393,0,48,48,48,1,0.6,0.4,0.4,0.6,,,,,,,,,,,,,,,0.6152,,0.6,0.4,0.2,0.8,0.6,0.4,0.2,0.8,1,0,,,,,,,,,,,,
,,66d0a027b8886581c95f2768,66fc979040a8f383c4a55212,2024-10-02_01h45.19.356,mdp,2024.2.1,Win32,142.8571429,66fa4ebf79326e780c390304,,,,,,,,,,,,,,,,,,,,,642.5397,642.5397,642.5402,643.4352,1,0,right,0.3832,,643.4358,644.3033,1,0,right,644.3039,644.3043,,1,,1,644.3043,644.3043,644.3045,645.8032,0,49,49,49,1,0.6,0.4,0.4,0.6,,,,,,,,,,,,,,,0.3466,,0.6,0.4,0.2,0.8,0.8,0.2,0.8,0.2,1,0,,,,,,,,,,,,
,,66d0a027b8886581c95f2768,66fc979040a8f383c4a55212,2024-10-02_01h45.19.356,mdp,2024.2.1,Win32,142.8571429,66fa4ebf79326e780c390304,,,,,,,,,,,,,,,,,,,,,,,,,,,,,,,,,,,,,,,,,,,,,,,,,,,,,,,,645.8033,704.3104,0,1,1,7,1,imgs/pig.png,imgs/bear.png,imgs/dog.png,imgs/kangaroo.png,imgs/elephant.png,,,,,,,,,,,,,,,,,,,,,,,,
,,66d0a027b8886581c95f2768,66fc979040a8f383c4a55212,2024-10-02_01h45.19.356,mdp,2024.2.1,Win32,142.8571429,66fa4ebf79326e780c390304,,,,,,,,,,,,,,3,seqs/st3seq40.csv,704.311,728.1925,space,23.3709,,728.1961,728.1961,728.1965,730.137,1,1,right,1.4264,,730.1374,731.4495,1,0,right,731.4501,732.7135,1,0,right,1,732.7136,732.7136,732.7141,734.2133,0,0,0,0,1,0.2,0.8,0.6,0.4,,,,,,,,,,,,,,,0.791,,0.6,0.4,0.2,0.8,0.2,0.8,0.6,0.4,,,0.7423,,0.2,0.8,0.2,0.8,0.6,0.4,0.2,0.8,1,0
,,66d0a027b8886581c95f2768,66fc979040a8f383c4a55212,2024-10-02_01h45.19.356,mdp,2024.2.1,Win32,142.8571429,66fa4ebf79326e780c390304,,,,,,,,,,,,,,,,,,,,,734.2136,734.2136,734.214,735.1717,1,0,right,0.4457,,735.1723,736.4355,0,0,left,736.4361,737.5052,0,0,left,1,737.5053,737.5053,737.5059,739.005,0,1,1,1,1,0.2,0.8,0.6,0.4,,,,,,,,,,,,,,,0.7517,,0.6,0.4,0.2,0.8,0.2,0.8,0.6,0.4,,,0.5648,,0.2,0.8,0.2,0.8,0.6,0.4,0.2,0.8,1,0
,,66d0a027b8886581c95f2768,66fc979040a8f383c4a55212,2024-10-02_01h45.19.356,mdp,2024.2.1,Win32,142.8571429,66fa4ebf79326e780c390304,,,,,,,,,,,,,,,,,,,,,739.0052,739.0052,739.0057,739.8315,1,1,right,0.3128,,739.8322,740.9217,1,1,right,740.9222,742.5398,0,1,left,0,742.5399,742.5399,742.5404,744.0398,0,2,2,2,1,0.2,0.8,0.6,0.4,,,,,,,,,,,,,,,0.5696,,0.6,0.4,0.2,0.8,0.2,0.8,0.6,0.4,,,1.0965,,0.2,0.8,0.2,0.8,0.6,0.4,0.2,0.8,1,0
,,66d0a027b8886581c95f2768,66fc979040a8f383c4a55212,2024-10-02_01h45.19.356,mdp,2024.2.1,Win32,142.8571429,66fa4ebf79326e780c390304,,,,,,,,,,,,,,,,,,,,,744.0401,744.0401,744.0406,744.8523,1,0,right,0.2987,,744.8528,746.1996,0,0,left,746.2002,747.276,0,1,left,0,747.2761,747.2761,747.2767,748.7759,0,3,3,3,1,0.2,0.8,0.6,0.4,,,,,,,,,,,,,,,0.8287,,0.6,0.4,0.2,0.8,0.2,0.8,0.6,0.4,,,0.5554,,0.2,0.8,0.2,0.8,0.2,0.8,0.8,0.2,1,0
,,66d0a027b8886581c95f2768,66fc979040a8f383c4a55212,2024-10-02_01h45.19.356,mdp,2024.2.1,Win32,142.8571429,66fa4ebf79326e780c390304,,,,,,,,,,,,,,,,,,,,,748.7763,748.7763,748.7767,749.762,1,0,right,0.4755,,749.7625,751.2342,1,1,right,751.2348,752.4774,1,0,right,1,752.4774,752.4774,752.4779,753.9773,0,4,4,4,1,0.2,0.8,0.6,0.4,,,,,,,,,,,,,,,0.9654,,0.6,0.4,0.2,0.8,0.2,0.8,0.6,0.4,,,0.7215,,0.2,0.8,0.2,0.8,0.2,0.8,0.8,0.2,1,0
,,66d0a027b8886581c95f2768,66fc979040a8f383c4a55212,2024-10-02_01h45.19.356,mdp,2024.2.1,Win32,142.8571429,66fa4ebf79326e780c390304,,,,,,,,,,,,,,,,,,,,,753.9775,753.9775,753.978,754.9912,1,1,right,0.5001,,754.9917,756.5259,0,1,left,756.5267,757.769,1,0,right,1,757.7691,757.7691,757.7695,759.269,0,5,5,5,1,0.2,0.8,0.6,0.4,,,,,,,,,,,,,,,1.0201,,0.6,0.4,0.2,0.8,0.2,0.8,0.6,0.4,,,0.7333,,0.2,0.8,0.2,0.8,0.2,0.8,0.8,0.2,1,0
,,66d0a027b8886581c95f2768,66fc979040a8f383c4a55212,2024-10-02_01h45.19.356,mdp,2024.2.1,Win32,142.8571429,66fa4ebf79326e780c390304,,,,,,,,,,,,,,,,,,,,,759.2693,759.2693,759.2697,760.0746,1,0,right,0.2936,,760.0751,761.4009,0,0,left,761.4014,762.6095,0,1,left,0,762.6095,762.6095,762.6101,764.1093,0,6,6,6,1,0.2,0.8,0.6,0.4,,,,,,,,,,,,,,,0.8083,,0.6,0.4,0.2,0.8,0.2,0.8,0.6,0.4,,,0.6868,,0.2,0.8,0.2,0.8,0.8,0.2,0.6,0.4,1,0
,,66d0a027b8886581c95f2768,66fc979040a8f383c4a55212,2024-10-02_01h45.19.356,mdp,2024.2.1,Win32,142.8571429,66fa4ebf79326e780c390304,,,,,,,,,,,,,,,,,,,,,764.1095,764.1096,764.1104,764.9705,1,1,right,0.3489,,764.9713,765.9843,1,0,right,765.9848,767.0745,1,1,right,0,767.0746,767.0746,767.075,768.5746,0,7,7,7,1,0.6,0.4,0.8,0.2,,,,,,,,,,,,,,,0.4952,,0.6,0.4,0.2,0.8,0.2,0.8,0.6,0.4,,,0.5863,,0.2,0.8,0.2,0.8,0.8,0.2,0.6,0.4,1,0
,,66d0a027b8886581c95f2768,66fc979040a8f383c4a55212,2024-10-02_01h45.19.356,mdp,2024.2.1,Win32,142.8571429,66fa4ebf79326e780c390304,,,,,,,,,,,,,,,,,,,,,768.5749,768.5749,768.5753,769.3316,1,0,right,0.2452,,769.3321,770.4914,0,1,left,770.492,771.3524,1,0,right,1,771.3524,771.3524,771.353,772.8523,0,8,8,8,1,0.6,0.4,0.8,0.2,,,,,,,,,,,,,,,0.6383,,0.6,0.4,0.2,0.8,0.2,0.8,0.6,0.4,,,0.3421,,0.2,0.8,0.2,0.8,0.8,0.2,0.6,0.4,1,0
,,66d0a027b8886581c95f2768,66fc979040a8f383c4a55212,2024-10-02_01h45.19.356,mdp,2024.2.1,Win32,142.8571429,66fa4ebf79326e780c390304,,,,,,,,,,,,,,,,,,,,,772.8526,772.8526,772.853,773.9359,1,0,right,0.5711,,773.9366,775.415,0,0,left,775.4156,776.3941,1,1,right,0,776.3942,776.3942,776.3947,777.894,0,9,9,9,1,0.6,0.4,0.8,0.2,,,,,,,,,,,,,,,0.9655,,0.6,0.4,0.2,0.8,0.2,0.8,0.6,0.4,,,0.4591,,0.2,0.8,0.2,0.8,0.8,0.2,0.6,0.4,1,0
,,66d0a027b8886581c95f2768,66fc979040a8f383c4a55212,2024-10-02_01h45.19.356,mdp,2024.2.1,Win32,142.8571429,66fa4ebf79326e780c390304,,,,,,,,,,,,,,,,,,,,,777.8944,777.8944,777.8949,778.6511,0,1,left,0.245,,778.6516,779.7414,0,0,left,779.7421,780.533,1,0,right,1,780.5331,780.5331,780.5337,782.033,0,10,10,10,1,0.6,0.4,0.8,0.2,,,,,,,,,,,,,,,0.5688,,0.6,0.4,0.2,0.8,0.2,0.8,0.6,0.4,,,0.2791,,0.2,0.8,0.2,0.8,0.8,0.2,0.6,0.4,1,0
,,66d0a027b8886581c95f2768,66fc979040a8f383c4a55212,2024-10-02_01h45.19.356,mdp,2024.2.1,Win32,142.8571429,66fa4ebf79326e780c390304,,,,,,,,,,,,,,,,,,,,,782.0332,782.0332,782.0337,782.7969,1,0,right,0.2501,,782.7974,783.9775,0,0,left,783.978,785.0886,1,0,right,1,785.0886,785.0886,785.0893,786.5885,0,11,11,11,1,0.6,0.4,0.8,0.2,,,,,,,,,,,,,,,0.6611,,0.6,0.4,0.2,0.8,0.2,0.8,0.6,0.4,,,0.5976,,0.2,0.8,0.2,0.8,0.8,0.2,0.6,0.4,1,0
,,66d0a027b8886581c95f2768,66fc979040a8f383c4a55212,2024-10-02_01h45.19.356,mdp,2024.2.1,Win32,142.8571429,66fa4ebf79326e780c390304,,,,,,,,,,,,,,,,,,,,,786.5889,786.5889,786.5895,843.3737,1,1,right,56.2738,,843.3743,844.3321,1,1,right,844.3326,845.3667,1,0,right,1,845.3668,845.3668,845.3673,846.8666,0,12,12,12,1,0.6,0.4,0.8,0.2,,,,,,,,,,,,,,,0.4367,,0.6,0.4,0.2,0.8,0.8,0.2,0.4,0.6,,,0.5131,,0.2,0.8,0.2,0.8,0.8,0.2,0.6,0.4,1,0
,,66d0a027b8886581c95f2768,66fc979040a8f383c4a55212,2024-10-02_01h45.19.356,mdp,2024.2.1,Win32,142.8571429,66fa4ebf79326e780c390304,,,,,,,,,,,,,,,,,,,,,846.8669,846.8669,846.8674,847.6167,1,0,right,0.2402,,847.6172,848.9083,0,0,left,848.9088,849.8181,1,1,right,0,849.8181,849.8181,849.8186,851.3181,0,13,13,13,1,0.6,0.4,0.8,0.2,,,,,,,,,,,,,,,0.7724,,0.6,0.4,0.2,0.8,0.8,0.2,0.4,0.6,,,0.3881,,0.2,0.8,0.2,0.8,0.8,0.2,0.6,0.4,1,0
,,66d0a027b8886581c95f2768,66fc979040a8f383c4a55212,2024-10-02_01h45.19.356,mdp,2024.2.1,Win32,142.8571429,66fa4ebf79326e780c390304,,,,,,,,,,,,,,,,,,,,,851.3184,851.3184,851.3189,852.0611,1,0,right,0.2324,,852.0616,852.9917,0,0,left,852.9925,853.9431,0,0,left,1,853.9432,853.9432,853.9437,855.4432,0,14,14,14,1,0.6,0.4,0.8,0.2,,,,,,,,,,,,,,,0.4169,,0.6,0.4,0.2,0.8,0.8,0.2,0.4,0.6,,,0.4376,,0.2,0.8,0.2,0.8,0.8,0.2,0.6,0.4,1,0
,,66d0a027b8886581c95f2768,66fc979040a8f383c4a55212,2024-10-02_01h45.19.356,mdp,2024.2.1,Win32,142.8571429,66fa4ebf79326e780c390304,,,,,,,,,,,,,,,,,,,,,855.4435,855.4435,855.4439,856.2,1,0,right,0.2431,,856.2006,857.5126,0,0,left,857.5131,858.5126,0,1,left,0,858.5127,858.5127,858.5131,860.0126,0,15,15,15,1,0.6,0.4,0.8,0.2,,,,,,,,,,,,,,,0.8026,,0.6,0.4,0.2,0.8,0.8,0.2,0.4,0.6,,,0.4862,,0.2,0.8,0.2,0.8,0.8,0.2,0.6,0.4,1,0
,,66d0a027b8886581c95f2768,66fc979040a8f383c4a55212,2024-10-02_01h45.19.356,mdp,2024.2.1,Win32,142.8571429,66fa4ebf79326e780c390304,,,,,,,,,,,,,,,,,,,,,860.0128,860.0128,860.0133,860.7418,1,0,right,0.2155,,860.7426,862.082,0,1,left,862.0826,863.2417,1,0,right,1,863.2417,863.2417,863.2421,864.7418,0,16,16,16,1,0.6,0.4,0.8,0.2,,,,,,,,,,,,,,,0.8266,,0.6,0.4,0.2,0.8,0.8,0.2,0.4,0.6,,,0.6482,,0.2,0.8,0.2,0.8,0.8,0.2,0.6,0.4,1,0
,,66d0a027b8886581c95f2768,66fc979040a8f383c4a55212,2024-10-02_01h45.19.356,mdp,2024.2.1,Win32,142.8571429,66fa4ebf79326e780c390304,,,,,,,,,,,,,,,,,,,,,864.742,864.742,864.7425,865.4709,1,0,right,0.2175,,865.4715,866.7279,0,0,left,866.7284,868.2835,1,1,right,0,868.2836,868.2836,868.2841,869.7834,0,17,17,17,1,0.6,0.4,0.8,0.2,,,,,,,,,,,,,,,0.7466,,0.6,0.4,0.2,0.8,0.8,0.2,0.4,0.6,,,1.0348,,0.2,0.8,0.2,0.8,0.8,0.2,0.6,0.4,1,0
,,66d0a027b8886581c95f2768,66fc979040a8f383c4a55212,2024-10-02_01h45.19.356,mdp,2024.2.1,Win32,142.8571429,66fa4ebf79326e780c390304,,,,,,,,,,,,,,,,,,,,,869.7836,869.7836,869.7841,870.6514,1,0,right,0.3565,,870.652,871.7696,0,0,left,871.77,873.4154,1,1,right,0,873.4154,873.4155,873.416,874.9154,0,18,18,18,1,0.6,0.4,0.8,0.2,,,,,,,,,,,,,,,0.6076,,0.6,0.4,0.2,0.8,0.8,0.2,0.4,0.6,,,1.1321,,0.2,0.8,0.2,0.8,0.8,0.2,0.6,0.4,1,0
,,66d0a027b8886581c95f2768,66fc979040a8f383c4a55212,2024-10-02_01h45.19.356,mdp,2024.2.1,Win32,142.8571429,66fa4ebf79326e780c390304,,,,,,,,,,,,,,,,,,,,,874.9157,874.9157,874.9161,875.6446,1,0,right,0.2164,,875.6452,876.6863,0,1,left,876.6868,877.9432,1,0,right,1,877.9433,877.9433,877.9439,879.4432,0,19,19,19,1,0.6,0.4,0.8,0.2,,,,,,,,,,,,,,,0.5292,,0.6,0.4,0.2,0.8,0.8,0.2,0.4,0.6,,,0.736,,0.2,0.8,0.2,0.8,0.8,0.2,0.6,0.4,1,0
,,66d0a027b8886581c95f2768,66fc979040a8f383c4a55212,2024-10-02_01h45.19.356,mdp,2024.2.1,Win32,142.8571429,66fa4ebf79326e780c390304,,,,,,,,,,,,,,,,,,,,,879.4434,879.4434,879.4439,880.1655,1,0,right,0.21,,880.166,881.3877,0,1,left,881.3883,882.6308,1,1,right,0,882.6308,882.6308,882.6313,884.1308,0,20,20,20,1,0.6,0.4,0.8,0.2,,,,,,,,,,,,,,,0.709,,0.6,0.4,0.2,0.8,0.8,0.2,0.4,0.6,,,0.7378,,0.2,0.8,0.2,0.8,0.8,0.2,0.6,0.4,1,0
,,66d0a027b8886581c95f2768,66fc979040a8f383c4a55212,2024-10-02_01h45.19.356,mdp,2024.2.1,Win32,142.8571429,66fa4ebf79326e780c390304,,,,,,,,,,,,,,,,,,,,,884.1311,884.1311,884.1317,884.6933,1,0,right,0.0501,,884.6939,885.9016,0,0,left,885.9022,886.9225,0,1,left,0,886.9225,886.9225,886.9229,888.4225,0,21,21,21,1,0.6,0.4,0.8,0.2,,,,,,,,,,,,,,,0.6946,,0.6,0.4,0.2,0.8,0.6,0.4,0.2,0.8,,,0.5068,,0.2,0.8,0.2,0.8,0.8,0.2,0.6,0.4,1,0
,,66d0a027b8886581c95f2768,66fc979040a8f383c4a55212,2024-10-02_01h45.19.356,mdp,2024.2.1,Win32,142.8571429,66fa4ebf79326e780c390304,,,,,,,,,,,,,,,,,,,,,888.4228,888.4228,888.4233,889.3391,0,0,left,0.404,,889.3396,890.3808,1,1,right,890.3812,891.3184,1,0,right,1,891.3185,891.3185,891.3192,892.8183,0,22,22,22,1,0.6,0.4,0.8,0.2,,,,,,,,,,,,,,,0.5307,,0.6,0.4,0.2,0.8,0.6,0.4,0.2,0.8,,,0.4228,,0.2,0.8,0.2,0.8,0.8,0.2,0.6,0.4,1,0
,,66d0a027b8886581c95f2768,66fc979040a8f383c4a55212,2024-10-02_01h45.19.356,mdp,2024.2.1,Win32,142.8571429,66fa4ebf79326e780c390304,,,,,,,,,,,,,,,,,,,,,892.8186,892.8186,892.8193,893.6239,0,0,left,0.2932,,893.6244,895.0475,0,0,left,895.048,896.2489,1,0,right,1,896.249,896.249,896.2495,897.7489,0,23,23,23,1,0.6,0.4,0.8,0.2,,,,,,,,,,,,,,,0.9114,,0.6,0.4,0.2,0.8,0.6,0.4,0.2,0.8,,,0.6799,,0.2,0.8,0.2,0.8,0.8,0.2,0.6,0.4,1,0
,,66d0a027b8886581c95f2768,66fc979040a8f383c4a55212,2024-10-02_01h45.19.356,mdp,2024.2.1,Win32,142.8571429,66fa4ebf79326e780c390304,,,,,,,,,,,,,,,,,,,,,897.7491,897.7491,897.7496,898.5127,0,0,left,0.2519,,898.5134,899.2697,1,1,right,899.2702,900.3392,0,0,left,1,900.3393,900.3393,900.34,901.8392,0,24,24,24,1,0.6,0.4,0.8,0.2,,,,,,,,,,,,,,,0.2472,,0.6,0.4,0.2,0.8,0.6,0.4,0.2,0.8,,,0.5485,,0.2,0.8,0.2,0.8,0.6,0.4,0.4,0.6,1,0
,,66d0a027b8886581c95f2768,66fc979040a8f383c4a55212,2024-10-02_01h45.19.356,mdp,2024.2.1,Win32,142.8571429,66fa4ebf79326e780c390304,,,,,,,,,,,,,,,,,,,,,901.8396,901.8396,901.8402,902.3947,0,0,left,0.0423,,902.3953,903.1309,1,1,right,903.1315,903.8044,0,0,left,1,903.8045,903.8045,903.8051,905.3045,0,25,25,25,1,0.6,0.4,0.8,0.2,,,,,,,,,,,,,,,0.2282,,0.6,0.4,0.2,0.8,0.6,0.4,0.2,0.8,,,0.1616,,0.2,0.8,0.2,0.8,0.6,0.4,0.4,0.6,1,0
,,66d0a027b8886581c95f2768,66fc979040a8f383c4a55212,2024-10-02_01h45.19.356,mdp,2024.2.1,Win32,142.8571429,66fa4ebf79326e780c390304,,,,,,,,,,,,,,,,,,,,,905.3046,905.3046,905.3051,905.8601,1,0,right,0.0424,,905.8606,906.5823,0,0,left,906.5828,907.4503,0,0,left,1,907.4503,907.4503,907.451,908.9503,0,26,26,26,1,0.6,0.4,0.8,0.2,,,,,,,,,,,,,,,0.2091,,0.6,0.4,0.2,0.8,0.4,0.6,0.6,0.4,,,0.3465,,0.2,0.8,0.2,0.8,0.6,0.4,0.4,0.6,1,0
,,66d0a027b8886581c95f2768,66fc979040a8f383c4a55212,2024-10-02_01h45.19.356,mdp,2024.2.1,Win32,142.8571429,66fa4ebf79326e780c390304,,,,,,,,,,,,,,,,,,,,,908.9505,908.9505,908.951,909.6587,1,0,right,0.1947,,909.6592,910.4921,0,1,left,910.4926,911.5268,1,1,right,0,911.5268,911.5268,911.5274,913.0267,0,27,27,27,1,0.6,0.4,0.8,0.2,,,,,,,,,,,,,,,0.3199,,0.6,0.4,0.2,0.8,0.4,0.6,0.6,0.4,,,0.5148,,0.2,0.8,0.2,0.8,0.6,0.4,0.4,0.6,1,0
,,66d0a027b8886581c95f2768,66fc979040a8f383c4a55212,2024-10-02_01h45.19.356,mdp,2024.2.1,Win32,142.8571429,66fa4ebf79326e780c390304,,,,,,,,,,,,,,,,,,,,,913.0269,913.0269,913.0274,913.6725,1,0,right,0.1344,,913.673,914.4712,1,1,right,914.4717,915.2142,0,1,left,0,915.2142,915.2142,915.2148,916.7143,0,28,28,28,1,0.6,0.4,0.8,0.2,,,,,,,,,,,,,,,0.2922,,0.6,0.4,0.2,0.8,0.4,0.6,0.6,0.4,,,0.2293,,0.2,0.8,0.2,0.8,0.6,0.4,0.4,0.6,1,0
,,66d0a027b8886581c95f2768,66fc979040a8f383c4a55212,2024-10-02_01h45.19.356,mdp,2024.2.1,Win32,142.8571429,66fa4ebf79326e780c390304,,,,,,,,,,,,,,,,,,,,,916.7145,916.7145,916.7151,917.61,1,0,right,0.382,,917.6106,918.3671,0,0,left,918.3677,919.5547,0,1,left,0,919.5547,919.5547,919.5554,921.0546,0,29,29,29,1,0.6,0.4,0.8,0.2,,,,,,,,,,,,,,,0.2455,,0.6,0.4,0.2,0.8,0.4,0.6,0.6,0.4,,,0.6659,,0.2,0.8,0.2,0.8,0.6,0.4,0.4,0.6,1,0
,,66d0a027b8886581c95f2768,66fc979040a8f383c4a55212,2024-10-02_01h45.19.356,mdp,2024.2.1,Win32,142.8571429,66fa4ebf79326e780c390304,,,,,,,,,,,,,,,,,,,,,921.055,921.055,921.0555,921.9296,0,0,left,0.3613,,921.9301,922.6379,1,1,right,922.6385,923.3394,0,1,left,0,923.3394,923.3394,923.34,924.8393,0,30,30,30,1,0.6,0.4,0.8,0.2,,,,,,,,,,,,,,,0.1956,,0.6,0.4,0.2,0.8,0.4,0.6,0.6,0.4,,,0.1799,,0.2,0.8,0.2,0.8,0.6,0.4,0.4,0.6,1,0
,,66d0a027b8886581c95f2768,66fc979040a8f383c4a55212,2024-10-02_01h45.19.356,mdp,2024.2.1,Win32,142.8571429,66fa4ebf79326e780c390304,,,,,,,,,,,,,,,,,,,,,924.8395,924.8395,924.8399,925.5964,0,0,left,0.2525,,925.5969,926.27,1,1,right,926.2708,926.9852,0,1,left,0,926.9853,926.9853,926.9858,928.4852,0,31,31,31,1,0.6,0.4,0.8,0.2,,,,,,,,,,,,,,,0.1599,,0.6,0.4,0.2,0.8,0.4,0.6,0.6,0.4,,,0.2028,,0.2,0.8,0.2,0.8,0.6,0.4,0.4,0.6,1,0
,,66d0a027b8886581c95f2768,66fc979040a8f383c4a55212,2024-10-02_01h45.19.356,mdp,2024.2.1,Win32,142.8571429,66fa4ebf79326e780c390304,,,,,,,,,,,,,,,,,,,,,928.4854,928.4854,928.4859,929.4365,0,1,left,0.4413,,929.437,930.0893,1,0,right,930.0899,931.1103,1,1,right,0,931.1103,931.1103,931.1111,932.6102,0,32,32,32,1,0.6,0.4,0.8,0.2,,,,,,,,,,,,,,,0.1382,,0.6,0.4,0.2,0.8,0.4,0.6,0.6,0.4,,,0.5001,,0.2,0.8,0.2,0.8,0.6,0.4,0.4,0.6,1,0
,,66d0a027b8886581c95f2768,66fc979040a8f383c4a55212,2024-10-02_01h45.19.356,mdp,2024.2.1,Win32,142.8571429,66fa4ebf79326e780c390304,,,,,,,,,,,,,,,,,,,,,932.6104,932.6104,932.6109,933.3532,1,1,right,0.2318,,933.3536,934.4018,1,1,right,934.4024,935.2908,1,0,right,1,935.2909,935.2909,935.2915,936.7907,0,33,33,33,1,0.6,0.4,0.8,0.2,,,,,,,,,,,,,,,0.5355,,0.6,0.4,0.2,0.8,0.6,0.4,0.4,0.6,,,0.3742,,0.2,0.8,0.2,0.8,0.6,0.4,0.4,0.6,1,0
,,66d0a027b8886581c95f2768,66fc979040a8f383c4a55212,2024-10-02_01h45.19.356,mdp,2024.2.1,Win32,142.8571429,66fa4ebf79326e780c390304,,,,,,,,,,,,,,,,,,,,,936.7911,936.7911,936.7916,937.4506,1,0,right,0.1475,,937.4513,938.2004,1,0,right,938.201,939.4018,0,0,left,1,939.4019,939.4019,939.4024,940.9019,0,34,34,34,1,0.6,0.4,0.8,0.2,,,,,,,,,,,,,,,0.2284,,0.6,0.4,0.2,0.8,0.6,0.4,0.4,0.6,,,0.6803,,0.2,0.8,0.2,0.8,0.6,0.4,0.4,0.6,1,0
,,66d0a027b8886581c95f2768,66fc979040a8f383c4a55212,2024-10-02_01h45.19.356,mdp,2024.2.1,Win32,142.8571429,66fa4ebf79326e780c390304,,,,,,,,,,,,,,,,,,,,,940.9021,940.9021,940.9025,941.4574,1,0,right,0.0424,,941.4579,942.4644,1,1,right,942.465,943.9574,1,1,right,0,943.9575,943.9575,943.958,945.4574,0,35,35,35,1,0.2,0.8,0.6,0.4,,,,,,,,,,,,,,,0.4955,,0.6,0.4,0.2,0.8,0.6,0.4,0.4,0.6,,,0.9715,,0.2,0.8,0.2,0.8,0.6,0.4,0.4,0.6,1,0
,,66d0a027b8886581c95f2768,66fc979040a8f383c4a55212,2024-10-02_01h45.19.356,mdp,2024.2.1,Win32,142.8571429,66fa4ebf79326e780c390304,,,,,,,,,,,,,,,,,,,,,945.4577,945.4577,945.458,946.1658,1,0,right,0.195,,946.1663,947.0755,1,0,right,947.0759,947.8256,0,1,left,0,947.8257,947.8257,947.8264,949.3255,0,36,36,36,1,0.2,0.8,0.6,0.4,,,,,,,,,,,,,,,0.3968,,0.6,0.4,0.2,0.8,0.6,0.4,0.4,0.6,,,0.2353,,0.2,0.8,0.2,0.8,0.6,0.4,0.4,0.6,1,0
,,66d0a027b8886581c95f2768,66fc979040a8f383c4a55212,2024-10-02_01h45.19.356,mdp,2024.2.1,Win32,142.8571429,66fa4ebf79326e780c390304,,,,,,,,,,,,,,,,,,,,,949.3259,949.3259,949.3266,950.2006,1,1,right,0.3615,,950.2011,951.0339,1,0,right,951.0344,951.7561,0,0,left,1,951.7561,951.7561,951.7568,953.256,0,37,37,37,1,0.2,0.8,0.6,0.4,,,,,,,,,,,,,,,0.3116,,0.6,0.4,0.2,0.8,0.6,0.4,0.4,0.6,,,0.2086,,0.2,0.8,0.2,0.8,0.6,0.4,0.4,0.6,1,0
,,66d0a027b8886581c95f2768,66fc979040a8f383c4a55212,2024-10-02_01h45.19.356,mdp,2024.2.1,Win32,142.8571429,66fa4ebf79326e780c390304,,,,,,,,,,,,,,,,,,,,,953.2563,953.2563,953.2568,953.9922,1,1,right,0.2243,,953.9927,954.6658,0,1,left,954.6664,955.3325,1,1,right,0,955.3325,955.3325,955.333,956.8326,0,38,38,38,1,0.2,0.8,0.6,0.4,,,,,,,,,,,,,,,0.1668,,0.6,0.4,0.2,0.8,0.6,0.4,0.4,0.6,,,0.154,,0.2,0.8,0.2,0.8,0.6,0.4,0.4,0.6,1,0
,,66d0a027b8886581c95f2768,66fc979040a8f383c4a55212,2024-10-02_01h45.19.356,mdp,2024.2.1,Win32,142.8571429,66fa4ebf79326e780c390304,,,,,,,,,,,,,,,,,,,,,956.8328,956.8328,956.8334,957.4228,0,1,left,0.0765,,957.4234,958.1172,1,0,right,958.1178,958.895,1,1,right,0,958.895,958.895,958.8955,960.395,0,39,39,39,1,0.2,0.8,0.6,0.4,,,,,,,,,,,,,,,0.1814,,0.6,0.4,0.2,0.8,0.6,0.4,0.4,0.6,,,0.2592,,0.2,0.8,0.2,0.8,0.6,0.4,0.4,0.6,1,0
,,66d0a027b8886581c95f2768,66fc979040a8f383c4a55212,2024-10-02_01h45.19.356,mdp,2024.2.1,Win32,142.8571429,66fa4ebf79326e780c390304,,,,,,,,,,,,,,,,,,,,,960.3952,960.3952,960.3959,961.1172,1,0,right,0.2119,,961.1176,961.9994,0,0,left,962,962.8536,1,1,right,0,962.8537,962.8538,962.8547,964.3534,0,40,40,40,1,0.2,0.8,0.6,0.4,,,,,,,,,,,,,,,0.3674,,0.6,0.4,0.2,0.8,0.6,0.4,0.4,0.6,,,0.3406,,0.2,0.8,0.2,0.8,0.6,0.4,0.4,0.6,1,0
,,66d0a027b8886581c95f2768,66fc979040a8f383c4a55212,2024-10-02_01h45.19.356,mdp,2024.2.1,Win32,142.8571429,66fa4ebf79326e780c390304,,,,,,,,,,,,,,,,,,,,,964.3536,964.3536,964.354,965.0479,1,0,right,0.1808,,965.0485,965.8812,0,0,left,965.8817,966.7422,0,1,left,0,966.7423,966.7423,966.7428,968.2423,0,41,41,41,1,0.2,0.8,0.6,0.4,,,,,,,,,,,,,,,0.3213,,0.6,0.4,0.2,0.8,0.6,0.4,0.4,0.6,,,0.3474,,0.2,0.8,0.2,0.8,0.6,0.4,0.4,0.6,1,0
,,66d0a027b8886581c95f2768,66fc979040a8f383c4a55212,2024-10-02_01h45.19.356,mdp,2024.2.1,Win32,142.8571429,66fa4ebf79326e780c390304,,,,,,,,,,,,,,,,,,,,,968.2426,968.2426,968.2431,968.9923,1,1,right,0.2357,,968.9928,969.5964,0,1,left,969.5968,970.1728,1,1,right,0,970.1728,970.1728,970.1734,971.6728,0,42,42,42,1,0.2,0.8,0.6,0.4,,,,,,,,,,,,,,,0.0856,,0.6,0.4,0.2,0.8,0.6,0.4,0.4,0.6,,,0.0617,,0.4,0.6,0.8,0.2,0.6,0.4,0.4,0.6,1,0
,,66d0a027b8886581c95f2768,66fc979040a8f383c4a55212,2024-10-02_01h45.19.356,mdp,2024.2.1,Win32,142.8571429,66fa4ebf79326e780c390304,,,,,,,,,,,,,,,,,,,,,971.6731,971.6731,971.6735,972.2632,1,1,right,0.0766,,972.2637,972.909,0,0,left,972.9095,973.6381,0,1,left,0,973.6382,973.6382,973.6386,975.1382,0,43,43,43,1,0.2,0.8,0.6,0.4,,,,,,,,,,,,,,,0.1321,,0.6,0.4,0.2,0.8,0.6,0.4,0.4,0.6,,,0.2106,,0.4,0.6,0.8,0.2,0.6,0.4,0.4,0.6,1,0
,,66d0a027b8886581c95f2768,66fc979040a8f383c4a55212,2024-10-02_01h45.19.356,mdp,2024.2.1,Win32,142.8571429,66fa4ebf79326e780c390304,,,,,,,,,,,,,,,,,,,,,975.1385,975.1385,975.1391,975.8534,0,1,left,0.2024,,975.8539,976.534,1,1,right,976.5345,977.2076,0,0,left,1,977.2077,977.2077,977.2082,978.7076,0,44,44,44,1,0.2,0.8,0.6,0.4,,,,,,,,,,,,,,,0.1738,,0.6,0.4,0.2,0.8,0.6,0.4,0.4,0.6,,,0.1528,,0.4,0.6,0.8,0.2,0.6,0.4,0.4,0.6,1,0
,,66d0a027b8886581c95f2768,66fc979040a8f383c4a55212,2024-10-02_01h45.19.356,mdp,2024.2.1,Win32,142.8571429,66fa4ebf79326e780c390304,,,,,,,,,,,,,,,,,,,,,978.7078,978.7078,978.7083,979.3604,1,0,right,0.1391,,979.3609,979.8781,0,0,left,979.8786,980.4506,1,0,right,1,980.4507,980.4507,980.4511,981.9507,0,45,45,45,1,0.2,0.8,0.6,0.4,,,,,,,,,,,,,,,0.0002,,0.6,0.4,0.2,0.8,0.6,0.4,0.4,0.6,,,0.0548,,0.4,0.6,0.8,0.2,0.4,0.6,0.8,0.2,1,0
,,66d0a027b8886581c95f2768,66fc979040a8f383c4a55212,2024-10-02_01h45.19.356,mdp,2024.2.1,Win32,142.8571429,66fa4ebf79326e780c390304,,,,,,,,,,,,,,,,,,,,,981.951,981.951,981.9514,982.6729,0,1,left,0.2085,,982.6734,983.3813,1,0,right,983.3818,984.0549,0,1,left,0,984.0549,984.0549,984.0554,985.5549,0,46,46,46,1,0.2,0.8,0.6,0.4,,,,,,,,,,,,,,,0.1868,,0.6,0.4,0.2,0.8,0.4,0.6,0.8,0.2,,,0.1614,,0.4,0.6,0.8,0.2,0.4,0.6,0.8,0.2,1,0
,,66d0a027b8886581c95f2768,66fc979040a8f383c4a55212,2024-10-02_01h45.19.356,mdp,2024.2.1,Win32,142.8571429,66fa4ebf79326e780c390304,,,,,,,,,,,,,,,,,,,,,985.555,985.555,985.5556,986.416,1,0,right,0.3473,,986.4165,987.1453,0,0,left,987.1459,987.7632,0,0,left,1,987.7633,987.7634,987.7639,989.2631,0,47,47,47,1,0.2,0.8,0.6,0.4,,,,,,,,,,,,,,,0.2075,,0.6,0.4,0.2,0.8,0.8,0.2,0.4,0.6,,,0.1051,,0.4,0.6,0.8,0.2,0.4,0.6,0.8,0.2,1,0
,,66d0a027b8886581c95f2768,66fc979040a8f383c4a55212,2024-10-02_01h45.19.356,mdp,2024.2.1,Win32,142.8571429,66fa4ebf79326e780c390304,,,,,,,,,,,,,,,,,,,,,989.2633,989.2633,989.2638,989.9854,1,0,right,0.2093,,989.9861,990.5758,0,1,left,990.5763,991.1313,1,0,right,1,991.1314,991.1314,991.1318,992.6316,0,48,48,48,1,0.2,0.8,0.6,0.4,,,,,,,,,,,,,,,0.0772,,0.6,0.4,0.2,0.8,0.8,0.2,0.4,0.6,,,0.034,,0.4,0.6,0.8,0.2,0.4,0.6,0.8,0.2,1,0
,,66d0a027b8886581c95f2768,66fc979040a8f383c4a55212,2024-10-02_01h45.19.356,mdp,2024.2.1,Win32,142.8571429,66fa4ebf79326e780c390304,,,,,,,,,,,,,,,,,,,,,992.632,992.632,992.6329,993.3189,0,1,left,0.1739,,993.3195,994.0341,1,1,right,994.0345,994.6104,1,0,right,1,994.6105,994.6105,994.6109,996.1104,0,49,49,49,1,0.2,0.8,0.6,0.4,,,,,,,,,,,,,,,0.1938,,0.6,0.4,0.2,0.8,0.8,0.2,0.4,0.6,,,0.0729,,0.4,0.6,0.8,0.2,0.4,0.6,0.8,0.2,1,0
,,66d0a027b8886581c95f2768,66fc979040a8f383c4a55212,2024-10-02_01h45.19.356,mdp,2024.2.1,Win32,142.8571429,66fa4ebf79326e780c390304,,,,,,,,,,,,,,,,,,,,,,,,,,,,,,,,,,,,,,,,,,,,,,,,,,,,,,,,996.1105,1054.6107,0,2,2,8,1,imgs/rabbit.png,imgs/squirrel.png,imgs/dog.png,imgs/elephant.png,imgs/giraffe.png,,,,,,,,,,,,,,,,,,,,,,,,
,,66d0a027b8886581c95f2768,66fc979040a8f383c4a55212,2024-10-02_01h45.19.356,mdp,2024.2.1,Win32,142.8571429,66fa4ebf79326e780c390304,,,,,,,,,,,,,,3,seqs/st3seq35.csv,1054.6111,1084.361,space,29.238,,1084.3639,1084.3639,1084.3644,1087.1457,1,0,right,2.2632,,1087.1465,1091.1248,0,0,left,1091.1254,1091.6665,1,0,right,1,1091.6665,1091.6665,1091.6671,1093.1665,0,0,0,0,1,0.2,0.8,0.6,0.4,,,,,,,,,,,,,,,3.4601,,0.8,0.2,0.4,0.6,0.8,0.2,0.8,0.2,,,0.021,,0.4,0.6,0.8,0.2,0.4,0.6,0.4,0.6,1,0
,,66d0a027b8886581c95f2768,66fc979040a8f383c4a55212,2024-10-02_01h45.19.356,mdp,2024.2.1,Win32,142.8571429,66fa4ebf79326e780c390304,,,,,,,,,,,,,,,,,,,,,1093.1667,1093.1667,1093.1672,1094.0832,0,1,left,0.4044,,1094.0839,1094.7779,1,0,right,1094.7785,1095.4235,0,0,left,1,1095.4235,1095.4235,1095.424,1096.9234,0,1,1,1,1,0.2,0.8,0.6,0.4,,,,,,,,,,,,,,,0.1802,,0.8,0.2,0.4,0.6,0.8,0.2,0.8,0.2,,,0.1321,,0.4,0.6,0.8,0.2,0.4,0.6,0.4,0.6,1,0
,,66d0a027b8886581c95f2768,66fc979040a8f383c4a55212,2024-10-02_01h45.19.356,mdp,2024.2.1,Win32,142.8571429,66fa4ebf79326e780c390304,,,,,,,,,,,,,,,,,,,,,1096.9237,1096.9237,1096.9241,1097.5277,0,1,left,0.0905,,1097.5282,1098.2499,1,0,right,1098.2504,1098.875,0,1,left,0,1098.875,1098.875,1098.8755,1100.3749,0,2,2,2,1,0.2,0.8,0.6,0.4,,,,,,,,,,,,,,,0.2085,,0.8,0.2,0.4,0.6,0.8,0.2,0.8,0.2,,,0.1128,,0.4,0.6,0.8,0.2,0.4,0.6,0.4,0.6,1,0
,,66d0a027b8886581c95f2768,66fc979040a8f383c4a55212,2024-10-02_01h45.19.356,mdp,2024.2.1,Win32,142.8571429,66fa4ebf79326e780c390304,,,,,,,,,,,,,,,,,,,,,1100.3752,1100.3752,1100.3758,1100.8959,0,0,left,0.007,,1100.8966,1101.5902,1,0,right,1101.5907,1102.1875,0,0,left,1,1102.1875,1102.1875,1102.188,1103.6874,0,3,3,3,1,0.2,0.8,0.6,0.4,,,,,,,,,,,,,,,0.1734,,0.8,0.2,0.4,0.6,0.8,0.2,0.8,0.2,,,0.0834,,0.4,0.6,0.8,0.2,0.4,0.6,0.4,0.6,1,0
,,66d0a027b8886581c95f2768,66fc979040a8f383c4a55212,2024-10-02_01h45.19.356,mdp,2024.2.1,Win32,142.8571429,66fa4ebf79326e780c390304,,,,,,,,,,,,,,,,,,,,,1103.6876,1103.6876,1103.688,1104.361,0,1,left,0.1609,,1104.3616,1105.0491,1,0,right,1105.05,1105.6458,0,0,left,1,1105.6458,1105.6458,1105.6465,1107.1415,0,4,4,4,1,0.2,0.8,0.6,0.4,,,,,,,,,,,,,,,0.1739,,0.8,0.2,0.4,0.6,0.8,0.2,0.8,0.2,,,0.0851,,0.4,0.6,0.8,0.2,0.4,0.6,0.4,0.6,1,0
,,66d0a027b8886581c95f2768,66fc979040a8f383c4a55212,2024-10-02_01h45.19.356,mdp,2024.2.1,Win32,142.8571429,66fa4ebf79326e780c390304,,,,,,,,,,,,,,,,,,,,,1107.1417,1107.1417,1107.1422,1107.8749,0,1,left,0.2251,,1107.8755,1108.5416,1,1,right,1108.5422,1109.0695,1,0,right,1,1109.0695,1109.0695,1109.0703,1110.5695,0,5,5,5,1,0.2,0.8,0.6,0.4,,,,,,,,,,,,,,,0.1599,,0.8,0.2,0.4,0.6,0.8,0.2,0.8,0.2,,,0.0145,,0.4,0.6,0.8,0.2,0.4,0.6,0.4,0.6,1,0
,,66d0a027b8886581c95f2768,66fc979040a8f383c4a55212,2024-10-02_01h45.19.356,mdp,2024.2.1,Win32,142.8571429,66fa4ebf79326e780c390304,,,,,,,,,,,,,,,,,,,,,1110.5698,1110.5698,1110.5703,1111.5902,0,1,left,0.5101,,1111.5906,1112.3125,1,0,right,1112.3131,1112.8541,0,0,left,1,1112.8541,1112.8541,1112.8546,1114.3544,0,6,6,6,1,0.2,0.8,0.6,0.4,,,,,,,,,,,,,,,0.2084,,0.8,0.2,0.4,0.6,0.8,0.2,0.8,0.2,,,0.0225,,0.6,0.4,0.4,0.6,0.4,0.6,0.4,0.6,1,0
,,66d0a027b8886581c95f2768,66fc979040a8f383c4a55212,2024-10-02_01h45.19.356,mdp,2024.2.1,Win32,142.8571429,66fa4ebf79326e780c390304,,,,,,,,,,,,,,,,,,,,,1114.3549,1114.3549,1114.3556,1115.3194,0,1,left,0.4542,,1115.3199,1116.0208,1,0,right,1116.0214,1116.6736,0,0,left,1,1116.6736,1116.6736,1116.6743,1118.1735,0,7,7,7,1,0.2,0.8,0.6,0.4,,,,,,,,,,,,,,,0.1972,,0.6,0.4,0.2,0.8,0.8,0.2,0.8,0.2,,,0.139,,0.6,0.4,0.4,0.6,0.4,0.6,0.4,0.6,1,0
,,66d0a027b8886581c95f2768,66fc979040a8f383c4a55212,2024-10-02_01h45.19.356,mdp,2024.2.1,Win32,142.8571429,66fa4ebf79326e780c390304,,,,,,,,,,,,,,,,,,,,,1118.1738,1118.1738,1118.1746,1118.9723,0,1,left,0.2869,,1118.9731,1119.6598,1,0,right,1119.6606,1120.3682,1,1,right,0,1120.3682,1120.3682,1120.369,1121.8681,0,8,8,8,1,0.2,0.8,0.6,0.4,,,,,,,,,,,,,,,0.1738,,0.6,0.4,0.2,0.8,0.8,0.2,0.8,0.2,,,0.1959,,0.6,0.4,0.4,0.6,0.4,0.6,0.4,0.6,1,0
,,66d0a027b8886581c95f2768,66fc979040a8f383c4a55212,2024-10-02_01h45.19.356,mdp,2024.2.1,Win32,142.8571429,66fa4ebf79326e780c390304,,,,,,,,,,,,,,,,,,,,,1121.8683,1121.8683,1121.8687,1122.6458,0,0,left,0.267,,1122.6462,1123.3543,1,1,right,1123.355,1124.0487,0,0,left,1,1124.0488,1124.0488,1124.0494,1125.5486,0,9,9,9,1,0.2,0.8,0.6,0.4,,,,,,,,,,,,,,,0.1868,,0.6,0.4,0.2,0.8,0.8,0.2,0.8,0.2,,,0.1729,,0.6,0.4,0.4,0.6,0.4,0.6,0.4,0.6,1,0
,,66d0a027b8886581c95f2768,66fc979040a8f383c4a55212,2024-10-02_01h45.19.356,mdp,2024.2.1,Win32,142.8571429,66fa4ebf79326e780c390304,,,,,,,,,,,,,,,,,,,,,1125.5488,1125.5488,1125.5491,1126.2987,0,1,left,0.237,,1126.2994,1127.014,1,0,right,1127.0145,1127.7292,0,0,left,1,1127.7292,1127.7292,1127.7298,1129.2291,0,10,10,10,1,0.2,0.8,0.6,0.4,,,,,,,,,,,,,,,0.1947,,0.6,0.4,0.2,0.8,0.8,0.2,0.8,0.2,,,0.1937,,0.6,0.4,0.4,0.6,0.4,0.6,0.4,0.6,1,0
,,66d0a027b8886581c95f2768,66fc979040a8f383c4a55212,2024-10-02_01h45.19.356,mdp,2024.2.1,Win32,142.8571429,66fa4ebf79326e780c390304,,,,,,,,,,,,,,,,,,,,,1129.2294,1129.2294,1129.2299,1129.8195,0,1,left,0.0765,,1129.82,1130.4654,1,0,right,1130.4658,1131.132,1,0,right,1,1131.1321,1131.1321,1131.1326,1132.6319,0,11,11,11,1,0.2,0.8,0.6,0.4,,,,,,,,,,,,,,,0.1326,,0.6,0.4,0.2,0.8,0.8,0.2,0.8,0.2,,,0.1529,,0.6,0.4,0.4,0.6,0.4,0.6,0.4,0.6,1,0
,,66d0a027b8886581c95f2768,66fc979040a8f383c4a55212,2024-10-02_01h45.19.356,mdp,2024.2.1,Win32,142.8571429,66fa4ebf79326e780c390304,,,,,,,,,,,,,,,,,,,,,1132.6322,1132.6322,1132.6328,1133.4167,0,1,left,0.2746,,1133.4171,1134.1738,1,0,right,1134.1745,1134.8612,0,0,left,1,1134.8612,1134.8612,1134.8617,1136.3612,0,12,12,12,1,0.2,0.8,0.6,0.4,,,,,,,,,,,,,,,0.2432,,0.6,0.4,0.2,0.8,0.8,0.2,0.8,0.2,,,0.1749,,0.6,0.4,0.4,0.6,0.4,0.6,0.4,0.6,1,0
,,66d0a027b8886581c95f2768,66fc979040a8f383c4a55212,2024-10-02_01h45.19.356,mdp,2024.2.1,Win32,142.8571429,66fa4ebf79326e780c390304,,,,,,,,,,,,,,,,,,,,,1136.3614,1136.3614,1136.362,1137.1252,0,1,left,0.2502,,1137.1259,1137.8265,1,0,right,1137.8269,1138.4654,0,0,left,1,1138.4654,1138.4654,1138.4659,1139.9653,0,13,13,13,1,0.2,0.8,0.6,0.4,,,,,,,,,,,,,,,0.1913,,0.6,0.4,0.2,0.8,0.8,0.2,0.8,0.2,,,0.1257,,0.6,0.4,0.4,0.6,0.4,0.6,0.4,0.6,1,0
,,66d0a027b8886581c95f2768,66fc979040a8f383c4a55212,2024-10-02_01h45.19.356,mdp,2024.2.1,Win32,142.8571429,66fa4ebf79326e780c390304,,,,,,,,,,,,,,,,,,,,,1139.9656,1139.9656,1139.9661,1140.7431,0,1,left,0.2641,,1140.7436,1141.5001,1,0,right,1141.5006,1142.132,1,0,right,1,1142.1321,1142.1321,1142.1325,1143.632,0,14,14,14,1,0.2,0.8,0.6,0.4,,,,,,,,,,,,,,,0.2444,,0.6,0.4,0.2,0.8,0.8,0.2,0.8,0.2,,,0.122,,0.6,0.4,0.4,0.6,0.4,0.6,0.4,0.6,1,0
,,66d0a027b8886581c95f2768,66fc979040a8f383c4a55212,2024-10-02_01h45.19.356,mdp,2024.2.1,Win32,142.8571429,66fa4ebf79326e780c390304,,,,,,,,,,,,,,,,,,,,,1143.6322,1143.6322,1143.6327,1144.6043,0,0,left,0.4585,,1144.6048,1145.3682,1,1,right,1145.3687,1146.0348,0,1,left,0,1146.0349,1146.0349,1146.0353,1147.5348,0,15,15,15,1,0.2,0.8,0.6,0.4,,,,,,,,,,,,,,,0.2424,,0.6,0.4,0.2,0.8,0.8,0.2,0.8,0.2,,,0.1482,,0.6,0.4,0.4,0.6,0.4,0.6,0.4,0.6,1,0
,,66d0a027b8886581c95f2768,66fc979040a8f383c4a55212,2024-10-02_01h45.19.356,mdp,2024.2.1,Win32,142.8571429,66fa4ebf79326e780c390304,,,,,,,,,,,,,,,,,,,,,1147.5351,1147.5351,1147.5355,1148.264,0,1,left,0.2179,,1148.2645,1149.0001,1,0,right,1149.0006,1149.6599,0,0,left,1,1149.6599,1149.6599,1149.6604,1151.1599,0,16,16,16,1,0.2,0.8,0.6,0.4,,,,,,,,,,,,,,,0.2145,,0.6,0.4,0.2,0.8,0.8,0.2,0.8,0.2,,,0.1451,,0.6,0.4,0.4,0.6,0.8,0.2,0.8,0.2,1,0
,,66d0a027b8886581c95f2768,66fc979040a8f383c4a55212,2024-10-02_01h45.19.356,mdp,2024.2.1,Win32,142.8571429,66fa4ebf79326e780c390304,,,,,,,,,,,,,,,,,,,,,1151.1601,1151.1601,1151.1605,1151.8821,0,1,left,0.2101,,1151.883,1152.6114,1,0,right,1152.6119,1153.278,1,0,right,1,1153.278,1153.278,1153.2784,1154.778,0,17,17,17,1,0.2,0.8,0.6,0.4,,,,,,,,,,,,,,,0.2195,,0.6,0.4,0.2,0.8,0.8,0.2,0.8,0.2,,,0.1529,,0.4,0.6,0.8,0.2,0.8,0.2,0.8,0.2,1,0
,,66d0a027b8886581c95f2768,66fc979040a8f383c4a55212,2024-10-02_01h45.19.356,mdp,2024.2.1,Win32,142.8571429,66fa4ebf79326e780c390304,,,,,,,,,,,,,,,,,,,,,1154.7781,1154.7782,1154.7786,1155.3266,0,1,left,0.0349,,1155.3273,1156.0071,1,0,right,1156.0077,1156.5697,0,1,left,0,1156.5697,1156.5697,1156.5702,1158.0695,0,18,18,18,1,0.2,0.8,0.6,0.4,,,,,,,,,,,,,,,0.1668,,0.6,0.4,0.2,0.8,0.8,0.2,0.8,0.2,,,0.0487,,0.4,0.6,0.8,0.2,0.8,0.2,0.8,0.2,1,0
,,66d0a027b8886581c95f2768,66fc979040a8f383c4a55212,2024-10-02_01h45.19.356,mdp,2024.2.1,Win32,142.8571429,66fa4ebf79326e780c390304,,,,,,,,,,,,,,,,,,,,,1158.0698,1158.0698,1158.0703,1158.7155,0,1,left,0.1356,,1158.716,1159.403,1,0,right,1159.4035,1160.0142,0,1,left,0,1160.0143,1160.0143,1160.015,1161.514,0,19,19,19,1,0.2,0.8,0.6,0.4,,,,,,,,,,,,,,,0.1748,,0.6,0.4,0.2,0.8,0.8,0.2,0.8,0.2,,,0.0974,,0.4,0.6,0.8,0.2,0.8,0.2,0.8,0.2,1,0
,,66d0a027b8886581c95f2768,66fc979040a8f383c4a55212,2024-10-02_01h45.19.356,mdp,2024.2.1,Win32,142.8571429,66fa4ebf79326e780c390304,,,,,,,,,,,,,,,,,,,,,1161.5143,1161.5143,1161.5149,1162.1252,0,1,left,0.0975,,1162.1257,1162.8128,1,0,right,1162.8132,1163.4587,1,1,right,0,1163.4587,1163.4587,1163.4594,1164.9587,0,20,20,20,1,0.2,0.8,0.6,0.4,,,,,,,,,,,,,,,0.1753,,0.6,0.4,0.2,0.8,0.8,0.2,0.8,0.2,,,0.1321,,0.4,0.6,0.8,0.2,0.8,0.2,0.8,0.2,1,0
,,66d0a027b8886581c95f2768,66fc979040a8f383c4a55212,2024-10-02_01h45.19.356,mdp,2024.2.1,Win32,142.8571429,66fa4ebf79326e780c390304,,,,,,,,,,,,,,,,,,,,,1164.959,1164.959,1164.9597,1165.7294,0,1,left,0.2584,,1165.7299,1166.3822,1,1,right,1166.3827,1166.9933,0,1,left,0,1166.9934,1166.9934,1166.9938,1168.4933,0,21,21,21,1,0.2,0.8,0.6,0.4,,,,,,,,,,,,,,,0.1391,,0.6,0.4,0.2,0.8,0.8,0.2,0.8,0.2,,,0.0895,,0.4,0.6,0.8,0.2,0.8,0.2,0.8,0.2,1,0
,,66d0a027b8886581c95f2768,66fc979040a8f383c4a55212,2024-10-02_01h45.19.356,mdp,2024.2.1,Win32,142.8571429,66fa4ebf79326e780c390304,,,,,,,,,,,,,,,,,,,,,1168.4935,1168.4935,1168.4939,1169.2572,0,1,left,0.2502,,1169.2577,1170.1599,1,0,right,1170.1604,1170.7225,1,1,right,0,1170.7225,1170.7225,1170.723,1172.2224,0,22,22,22,1,0.2,0.8,0.6,0.4,,,,,,,,,,,,,,,0.3926,,0.6,0.4,0.2,0.8,0.8,0.2,0.8,0.2,,,0.0497,,0.6,0.4,0.4,0.6,0.8,0.2,0.8,0.2,1,0
,,66d0a027b8886581c95f2768,66fc979040a8f383c4a55212,2024-10-02_01h45.19.356,mdp,2024.2.1,Win32,142.8571429,66fa4ebf79326e780c390304,,,,,,,,,,,,,,,,,,,,,1172.2227,1172.2227,1172.2232,1172.8197,0,0,left,0.0867,,1172.8201,1173.5141,1,1,right,1173.5146,1174.1738,0,0,left,1,1174.174,1174.174,1174.1744,1175.6739,0,23,23,23,1,0.2,0.8,0.6,0.4,,,,,,,,,,,,,,,0.1826,,0.6,0.4,0.2,0.8,0.8,0.2,0.8,0.2,,,0.145,,0.6,0.4,0.4,0.6,0.8,0.2,0.8,0.2,1,0
,,66d0a027b8886581c95f2768,66fc979040a8f383c4a55212,2024-10-02_01h45.19.356,mdp,2024.2.1,Win32,142.8571429,66fa4ebf79326e780c390304,,,,,,,,,,,,,,,,,,,,,1175.6743,1175.6743,1175.675,1176.3058,0,0,left,0.1186,,1176.3063,1176.9586,1,0,right,1176.9593,1177.6115,1,0,right,1,1177.6115,1177.6115,1177.612,1179.1114,0,24,24,24,1,0.2,0.8,0.6,0.4,,,,,,,,,,,,,,,0.1501,,0.6,0.4,0.2,0.8,0.8,0.2,0.8,0.2,,,0.1312,,0.6,0.4,0.4,0.6,0.8,0.2,0.8,0.2,1,0
,,66d0a027b8886581c95f2768,66fc979040a8f383c4a55212,2024-10-02_01h45.19.356,mdp,2024.2.1,Win32,142.8571429,66fa4ebf79326e780c390304,,,,,,,,,,,,,,,,,,,,,1179.1118,1179.1118,1179.1125,1179.7434,0,1,left,0.1183,,1179.744,1180.4239,1,0,right,1180.4244,1181.0697,0,0,left,1,1181.0698,1181.0698,1181.0702,1182.5697,0,25,25,25,1,0.2,0.8,0.6,0.4,,,,,,,,,,,,,,,0.1619,,0.6,0.4,0.2,0.8,0.8,0.2,0.8,0.2,,,0.1354,,0.6,0.4,0.4,0.6,0.8,0.2,0.8,0.2,1,0
,,66d0a027b8886581c95f2768,66fc979040a8f383c4a55212,2024-10-02_01h45.19.356,mdp,2024.2.1,Win32,142.8571429,66fa4ebf79326e780c390304,,,,,,,,,,,,,,,,,,,,,1182.57,1182.57,1182.5704,1183.2712,0,1,left,0.1876,,1183.2717,1183.9448,1,0,right,1183.9456,1184.5004,0,1,left,0,1184.5004,1184.5004,1184.5009,1186.0003,0,26,26,26,1,0.2,0.8,0.6,0.4,,,,,,,,,,,,,,,0.1598,,0.6,0.4,0.2,0.8,0.8,0.2,0.8,0.2,,,0.046,,0.6,0.4,0.4,0.6,0.8,0.2,0.8,0.2,1,0
,,66d0a027b8886581c95f2768,66fc979040a8f383c4a55212,2024-10-02_01h45.19.356,mdp,2024.2.1,Win32,142.8571429,66fa4ebf79326e780c390304,,,,,,,,,,,,,,,,,,,,,1186.0005,1186.0005,1186.001,1186.6184,0,1,left,0.1055,,1186.6188,1187.1601,1,1,right,1187.1606,1187.8405,0,0,left,1,1187.8406,1187.8406,1187.8411,1189.3406,0,27,27,27,1,0.2,0.8,0.6,0.4,,,,,,,,,,,,,,,0.0296,,0.6,0.4,0.2,0.8,0.8,0.2,0.8,0.2,,,0.1614,,0.6,0.4,0.4,0.6,0.8,0.2,0.8,0.2,1,0
,,66d0a027b8886581c95f2768,66fc979040a8f383c4a55212,2024-10-02_01h45.19.356,mdp,2024.2.1,Win32,142.8571429,66fa4ebf79326e780c390304,,,,,,,,,,,,,,,,,,,,,1189.3408,1189.3408,1189.3413,1190.2087,0,0,left,0.3569,,1190.2094,1191.0699,1,0,right,1191.0706,1191.688,1,0,right,1,1191.688,1191.688,1191.6888,1193.1878,0,28,28,28,1,0.2,0.8,0.6,0.4,,,,,,,,,,,,,,,0.3409,,0.6,0.4,0.2,0.8,0.8,0.2,0.8,0.2,,,0.0965,,0.6,0.4,0.4,0.6,0.8,0.2,0.8,0.2,1,0
,,66d0a027b8886581c95f2768,66fc979040a8f383c4a55212,2024-10-02_01h45.19.356,mdp,2024.2.1,Win32,142.8571429,66fa4ebf79326e780c390304,,,,,,,,,,,,,,,,,,,,,1193.188,1193.188,1193.1885,1193.8198,0,1,left,0.119,,1193.8203,1194.4934,1,0,right,1194.4939,1195.0212,1,1,right,0,1195.0212,1195.0212,1195.0217,1196.5212,0,29,29,29,1,0.2,0.8,0.6,0.4,,,,,,,,,,,,,,,0.1614,,0.6,0.4,0.2,0.8,0.8,0.2,0.8,0.2,,,0.0142,,0.6,0.4,0.4,0.6,0.8,0.2,0.8,0.2,1,0
,,66d0a027b8886581c95f2768,66fc979040a8f383c4a55212,2024-10-02_01h45.19.356,mdp,2024.2.1,Win32,142.8571429,66fa4ebf79326e780c390304,,,,,,,,,,,,,,,,,,,,,1196.5214,1196.5214,1196.522,1197.0628,0,1,left,0.029,,1197.0635,1197.9866,1,0,right,1197.9871,1198.6532,0,1,left,0,1198.6532,1198.6532,1198.6537,1200.153,0,30,30,30,1,0.2,0.8,0.6,0.4,,,,,,,,,,,,,,,0.4167,,0.2,0.8,0.8,0.2,0.8,0.2,0.8,0.2,,,0.153,,0.6,0.4,0.4,0.6,0.8,0.2,0.8,0.2,1,0
,,66d0a027b8886581c95f2768,66fc979040a8f383c4a55212,2024-10-02_01h45.19.356,mdp,2024.2.1,Win32,142.8571429,66fa4ebf79326e780c390304,,,,,,,,,,,,,,,,,,,,,1200.1532,1200.1532,1200.1537,1200.8337,0,0,left,0.1668,,1200.8344,1201.563,1,0,right,1201.5636,1202.0837,0,1,left,0,1202.0837,1202.0837,1202.0842,1203.5837,0,31,31,31,1,0.2,0.8,0.6,0.4,,,,,,,,,,,,,,,0.2145,,0.2,0.8,0.8,0.2,0.8,0.2,0.8,0.2,,,0.0104,,0.6,0.4,0.4,0.6,0.8,0.2,0.8,0.2,1,0
,,66d0a027b8886581c95f2768,66fc979040a8f383c4a55212,2024-10-02_01h45.19.356,mdp,2024.2.1,Win32,142.8571429,66fa4ebf79326e780c390304,,,,,,,,,,,,,,,,,,,,,1203.5838,1203.5838,1203.5843,1204.1463,0,1,left,0.0487,,1204.1468,1204.7365,1,1,right,1204.7371,1205.5421,0,0,left,1,1205.5421,1205.5421,1205.5426,1207.0421,0,32,32,32,1,0.2,0.8,0.6,0.4,,,,,,,,,,,,,,,0.0687,,0.2,0.8,0.8,0.2,0.8,0.2,0.8,0.2,,,0.2839,,0.6,0.4,0.4,0.6,0.6,0.4,0.6,0.4,1,0
,,66d0a027b8886581c95f2768,66fc979040a8f383c4a55212,2024-10-02_01h45.19.356,mdp,2024.2.1,Win32,142.8571429,66fa4ebf79326e780c390304,,,,,,,,,,,,,,,,,,,,,1207.0423,1207.0423,1207.0427,1207.9449,0,1,left,0.3897,,1207.9456,1208.563,1,0,right,1208.5635,1209.0805,0,0,left,1,1209.0806,1209.0807,1209.081,1210.5768,0,33,33,33,1,0.2,0.8,0.6,0.4,,,,,,,,,,,,,,,0.105,,0.2,0.8,0.8,0.2,0.8,0.2,0.8,0.2,,,0.0003,,0.6,0.4,0.4,0.6,0.6,0.4,0.6,0.4,1,0
,,66d0a027b8886581c95f2768,66fc979040a8f383c4a55212,2024-10-02_01h45.19.356,mdp,2024.2.1,Win32,142.8571429,66fa4ebf79326e780c390304,,,,,,,,,,,,,,,,,,,,,1210.577,1210.577,1210.5775,1211.3129,0,1,left,0.2234,,1211.3137,1211.9727,1,0,right,1211.9732,1212.5074,1,0,right,1,1212.5075,1212.5075,1212.5079,1214.0074,0,34,34,34,1,0.2,0.8,0.6,0.4,,,,,,,,,,,,,,,0.1465,,0.2,0.8,0.8,0.2,0.8,0.2,0.8,0.2,,,0.021,,0.6,0.4,0.4,0.6,0.6,0.4,0.6,0.4,1,0
,,66d0a027b8886581c95f2768,66fc979040a8f383c4a55212,2024-10-02_01h45.19.356,mdp,2024.2.1,Win32,142.8571429,66fa4ebf79326e780c390304,,,,,,,,,,,,,,,,,,,,,1214.0076,1214.0076,1214.0081,1214.5839,0,1,left,0.0627,,1214.5843,1215.2782,1,0,right,1215.2787,1215.9171,0,1,left,0,1215.9172,1215.9172,1215.9176,1217.4171,0,35,35,35,1,0.2,0.8,0.6,0.4,,,,,,,,,,,,,,,0.19,,0.2,0.8,0.8,0.2,0.8,0.2,0.8,0.2,,,0.1251,,0.6,0.4,0.4,0.6,0.6,0.4,0.6,0.4,1,0
,,66d0a027b8886581c95f2768,66fc979040a8f383c4a55212,2024-10-02_01h45.19.356,mdp,2024.2.1,Win32,142.8571429,66fa4ebf79326e780c390304,,,,,,,,,,,,,,,,,,,,,1217.4174,1217.4174,1217.4178,1218.1046,0,1,left,0.1737,,1218.1051,1218.7366,1,0,right,1218.7372,1219.2539,0,0,left,1,1219.254,1219.254,1219.2545,1220.7505,0,36,36,36,1,0.2,0.8,0.6,0.4,,,,,,,,,,,,,,,0.1182,,0.2,0.8,0.8,0.2,0.8,0.2,0.8,0.2,,,0.0147,,0.6,0.4,0.4,0.6,0.6,0.4,0.6,0.4,1,0
,,66d0a027b8886581c95f2768,66fc979040a8f383c4a55212,2024-10-02_01h45.19.356,mdp,2024.2.1,Win32,142.8571429,66fa4ebf79326e780c390304,,,,,,,,,,,,,,,,,,,,,1220.7507,1220.7507,1220.7511,1221.3199,0,1,left,0.0584,,1221.3204,1221.9171,1,0,right,1221.9177,1222.4867,0,0,left,1,1222.4867,1222.4867,1222.4871,1223.9866,0,37,37,37,1,0.2,0.8,0.6,0.4,,,,,,,,,,,,,,,0.0904,,0.2,0.8,0.8,0.2,0.8,0.2,0.8,0.2,,,0.0598,,0.6,0.4,0.4,0.6,0.6,0.4,0.6,0.4,1,0
,,66d0a027b8886581c95f2768,66fc979040a8f383c4a55212,2024-10-02_01h45.19.356,mdp,2024.2.1,Win32,142.8571429,66fa4ebf79326e780c390304,,,,,,,,,,,,,,,,,,,,,1223.9869,1223.9869,1223.9872,1224.8688,0,1,left,0.3689,,1224.8697,1225.4589,1,0,right,1225.4594,1226.0561,0,1,left,0,1226.0561,1226.0562,1226.0567,1227.5563,0,38,38,38,1,0.2,0.8,0.6,0.4,,,,,,,,,,,,,,,0.0777,,0.2,0.8,0.8,0.2,0.8,0.2,0.8,0.2,,,0.0836,,0.6,0.4,0.4,0.6,0.6,0.4,0.6,0.4,1,0
,,66d0a027b8886581c95f2768,66fc979040a8f383c4a55212,2024-10-02_01h45.19.356,mdp,2024.2.1,Win32,142.8571429,66fa4ebf79326e780c390304,,,,,,,,,,,,,,,,,,,,,1227.5565,1227.5565,1227.557,1228.2367,0,0,left,0.1669,,1228.2372,1228.7575,1,0,right,1228.7579,1229.3687,0,0,left,1,1229.3687,1229.3687,1229.3692,1230.8686,0,39,39,39,1,0.2,0.8,0.6,0.4,,,,,,,,,,,,,,,0.0022,,0.2,0.8,0.8,0.2,0.8,0.2,0.8,0.2,,,0.0974,,0.6,0.4,0.4,0.6,0.6,0.4,0.6,0.4,1,0
,,66d0a027b8886581c95f2768,66fc979040a8f383c4a55212,2024-10-02_01h45.19.356,mdp,2024.2.1,Win32,142.8571429,66fa4ebf79326e780c390304,,,,,,,,,,,,,,,,,,,,,1230.8688,1230.8688,1230.8693,1231.5839,0,1,left,0.2047,,1231.5845,1232.4451,1,1,right,1232.4456,1233.5144,0,1,left,0,1233.5145,1233.5145,1233.5149,1235.0144,0,40,40,40,1,0.2,0.8,0.6,0.4,,,,,,,,,,,,,,,0.3405,,0.2,0.8,0.8,0.2,0.8,0.2,0.8,0.2,,,0.5516,,0.6,0.4,0.4,0.6,0.6,0.4,0.6,0.4,1,0
,,66d0a027b8886581c95f2768,66fc979040a8f383c4a55212,2024-10-02_01h45.19.356,mdp,2024.2.1,Win32,142.8571429,66fa4ebf79326e780c390304,,,,,,,,,,,,,,,,,,,,,1235.0146,1235.0146,1235.0151,1235.6743,0,0,left,0.146,,1235.6749,1237.0076,1,0,right,1237.0084,1237.6119,0,0,left,1,1237.6119,1237.6119,1237.6126,1239.1117,0,41,41,41,1,0.2,0.8,0.6,0.4,,,,,,,,,,,,,,,0.8118,,0.4,0.6,0.6,0.4,0.8,0.2,0.8,0.2,,,0.0836,,0.6,0.4,0.4,0.6,0.6,0.4,0.6,0.4,1,0
,,66d0a027b8886581c95f2768,66fc979040a8f383c4a55212,2024-10-02_01h45.19.356,mdp,2024.2.1,Win32,142.8571429,66fa4ebf79326e780c390304,,,,,,,,,,,,,,,,,,,,,1239.1118,1239.1118,1239.1123,1239.6673,0,1,left,0.0426,,1239.6677,1240.5839,1,0,right,1240.5844,1241.1952,1,1,right,0,1241.1952,1241.1952,1241.1957,1242.695,0,42,42,42,1,0.2,0.8,0.6,0.4,,,,,,,,,,,,,,,0.3973,,0.4,0.6,0.6,0.4,0.8,0.2,0.8,0.2,,,0.0973,,0.6,0.4,0.4,0.6,0.6,0.4,0.6,0.4,1,0
,,66d0a027b8886581c95f2768,66fc979040a8f383c4a55212,2024-10-02_01h45.19.356,mdp,2024.2.1,Win32,142.8571429,66fa4ebf79326e780c390304,,,,,,,,,,,,,,,,,,,,,1242.6953,1242.6953,1242.6958,1243.4729,0,1,left,0.2657,,1243.4734,1244.4103,1,1,right,1244.4108,1245.0701,1,1,right,0,1245.0701,1245.0701,1245.0706,1246.5701,0,43,43,43,1,0.2,0.8,0.6,0.4,,,,,,,,,,,,,,,0.4238,,0.4,0.6,0.6,0.4,0.8,0.2,0.8,0.2,,,0.1382,,0.6,0.4,0.4,0.6,0.6,0.4,0.6,0.4,1,0
,,66d0a027b8886581c95f2768,66fc979040a8f383c4a55212,2024-10-02_01h45.19.356,mdp,2024.2.1,Win32,142.8571429,66fa4ebf79326e780c390304,,,,,,,,,,,,,,,,,,,,,1246.5702,1246.5702,1246.5707,1247.4381,0,0,left,0.347,,1247.4389,1248.0562,1,0,right,1248.0568,1248.6188,0,1,left,0,1248.6189,1248.6189,1248.6196,1250.1187,0,44,44,44,1,0.2,0.8,0.6,0.4,,,,,,,,,,,,,,,0.0986,,0.4,0.6,0.6,0.4,0.8,0.2,0.8,0.2,,,0.041,,0.6,0.4,0.4,0.6,0.6,0.4,0.6,0.4,1,0
,,66d0a027b8886581c95f2768,66fc979040a8f383c4a55212,2024-10-02_01h45.19.356,mdp,2024.2.1,Win32,142.8571429,66fa4ebf79326e780c390304,,,,,,,,,,,,,,,,,,,,,1250.1191,1250.1191,1250.1197,1250.7437,0,0,left,0.1121,,1250.7442,1251.7785,1,0,right,1251.779,1252.3062,0,0,left,1,1252.3062,1252.3062,1252.3068,1253.8063,0,45,45,45,1,0.2,0.8,0.6,0.4,,,,,,,,,,,,,,,0.521,,0.4,0.6,0.6,0.4,0.8,0.2,0.8,0.2,,,0.0156,,0.6,0.4,0.4,0.6,0.6,0.4,0.6,0.4,1,0
,,66d0a027b8886581c95f2768,66fc979040a8f383c4a55212,2024-10-02_01h45.19.356,mdp,2024.2.1,Win32,142.8571429,66fa4ebf79326e780c390304,,,,,,,,,,,,,,,,,,,,,1253.8066,1253.8066,1253.807,1254.4104,0,1,left,0.0942,,1254.4109,1255.0076,1,0,right,1255.0083,1255.5286,0,0,left,1,1255.5286,1255.5286,1255.5291,1257.0284,0,46,46,46,1,0.2,0.8,0.6,0.4,,,,,,,,,,,,,,,0.0757,,0.4,0.6,0.6,0.4,0.8,0.2,0.8,0.2,,,0.0139,,0.6,0.4,0.4,0.6,0.6,0.4,0.6,0.4,1,0
,,66d0a027b8886581c95f2768,66fc979040a8f383c4a55212,2024-10-02_01h45.19.356,mdp,2024.2.1,Win32,142.8571429,66fa4ebf79326e780c390304,,,,,,,,,,,,,,,,,,,,,1257.0287,1257.0287,1257.0291,1257.6882,0,1,left,0.1483,,1257.6887,1258.4453,1,0,right,1258.4458,1259.1257,0,0,left,1,1259.1257,1259.1257,1259.1262,1260.6256,0,47,47,47,1,0.2,0.8,0.6,0.4,,,,,,,,,,,,,,,0.2432,,0.4,0.6,0.6,0.4,0.8,0.2,0.8,0.2,,,0.1669,,0.8,0.2,0.2,0.8,0.6,0.4,0.6,0.4,1,0
,,66d0a027b8886581c95f2768,66fc979040a8f383c4a55212,2024-10-02_01h45.19.356,mdp,2024.2.1,Win32,142.8571429,66fa4ebf79326e780c390304,,,,,,,,,,,,,,,,,,,,,1260.6259,1260.6259,1260.6265,1261.23,0,1,left,0.0925,,1261.2308,1261.7576,1,0,right,1261.7587,1262.3133,1,1,right,0,1262.3133,1262.3133,1262.3138,1263.8132,0,48,48,48,1,0.2,0.8,0.6,0.4,,,,,,,,,,,,,,,0.014,,0.4,0.6,0.6,0.4,0.8,0.2,0.8,0.2,,,0.0427,,0.8,0.2,0.2,0.8,0.6,0.4,0.6,0.4,1,0
,,66d0a027b8886581c95f2768,66fc979040a8f383c4a55212,2024-10-02_01h45.19.356,mdp,2024.2.1,Win32,142.8571429,66fa4ebf79326e780c390304,,,,,,,,,,,,,,,,,,,,,1263.8134,1263.8135,1263.8139,1264.5841,0,1,left,0.2606,,1264.5847,1265.2368,1,0,right,1265.2372,1265.8965,0,0,left,1,1265.8966,1265.8966,1265.897,1267.3965,0,49,49,49,1,0.2,0.8,0.6,0.4,,,,,,,,,,,,,,,0.1418,,0.4,0.6,0.6,0.4,0.8,0.2,0.8,0.2,,,0.1549,,0.8,0.2,0.2,0.8,0.6,0.4,0.6,0.4,1,0
,,66d0a027b8886581c95f2768,66fc979040a8f383c4a55212,2024-10-02_01h45.19.356,mdp,2024.2.1,Win32,142.8571429,66fa4ebf79326e780c390304,,,,,,,,,,,,,,,,,,,,,,,,,,,,,,,,,,,,,,,,,,,,,,,,,,,,,,,,1267.3966,1325.8969,0,3,3,3,1,imgs/rabbit.png,imgs/dog.png,imgs/goat.png,imgs/pig.png,imgs/kangaroo.png,,,,,,,,,,,,,,,,,,,,,,,,
,,66d0a027b8886581c95f2768,66fc979040a8f383c4a55212,2024-10-02_01h45.19.356,mdp,2024.2.1,Win32,142.8571429,66fa4ebf79326e780c390304,,,,,,,,,,,,,,1,seqs/st1seq47.csv,1325.8975,1340.015,space,13.6043,,1340.0167,1340.0167,1340.0174,1341.8622,1,1,right,1.3258,,1341.8628,1341.8631,1,0,,1341.8633,1341.8635,0,1,,0,1341.8636,1341.8636,1341.8637,1343.3622,0,0,0,0,1,0.8,0.2,0.4,0.6,1,0,,,,,,,,,,,,,,,,,,,,,,,,,,,,,,,,,,,,
,,66d0a027b8886581c95f2768,66fc979040a8f383c4a55212,2024-10-02_01h45.19.356,mdp,2024.2.1,Win32,142.8571429,66fa4ebf79326e780c390304,,,,,,,,,,,,,,,,,,,,,1343.3623,1343.3624,1343.3629,1344.4178,0,0,left,0.5435,,1344.4185,1344.4191,1,0,,1344.4194,1344.4196,0,0,,1,1344.4196,1344.4196,1344.4198,1345.9178,0,1,1,1,1,0.8,0.2,0.4,0.6,1,0,,,,,,,,,,,,,,,,,,,,,,,,,,,,,,,,,,,,
,,66d0a027b8886581c95f2768,66fc979040a8f383c4a55212,2024-10-02_01h45.19.356,mdp,2024.2.1,Win32,142.8571429,66fa4ebf79326e780c390304,,,,,,,,,,,,,,,,,,,,,1345.9179,1345.9179,1345.9183,1347.1192,0,1,left,0.6884,,1347.1197,1347.12,1,0,,1347.1203,1347.1205,0,0,,0,1347.1205,1347.1205,1347.1207,1348.6192,0,2,2,2,1,0.8,0.2,0.4,0.6,1,0,,,,,,,,,,,,,,,,,,,,,,,,,,,,,,,,,,,,
,,66d0a027b8886581c95f2768,66fc979040a8f383c4a55212,2024-10-02_01h45.19.356,mdp,2024.2.1,Win32,142.8571429,66fa4ebf79326e780c390304,,,,,,,,,,,,,,,,,,,,,1348.6194,1348.6194,1348.6198,1349.4664,0,0,left,0.3374,,1349.4669,1349.4672,1,1,,1349.4675,1349.4677,0,0,,1,1349.4677,1349.4677,1349.4678,1350.9664,0,3,3,3,1,0.8,0.2,0.4,0.6,1,0,,,,,,,,,,,,,,,,,,,,,,,,,,,,,,,,,,,,
,,66d0a027b8886581c95f2768,66fc979040a8f383c4a55212,2024-10-02_01h45.19.356,mdp,2024.2.1,Win32,142.8571429,66fa4ebf79326e780c390304,,,,,,,,,,,,,,,,,,,,,1350.9665,1350.9665,1350.967,1351.6887,1,1,right,0.2095,,1351.6892,1351.6895,1,1,,1351.6897,1351.6899,0,1,,0,1351.6899,1351.6899,1351.6901,1353.1887,0,4,4,4,1,0.8,0.2,0.4,0.6,1,0,,,,,,,,,,,,,,,,,,,,,,,,,,,,,,,,,,,,
,,66d0a027b8886581c95f2768,66fc979040a8f383c4a55212,2024-10-02_01h45.19.356,mdp,2024.2.1,Win32,142.8571429,66fa4ebf79326e780c390304,,,,,,,,,,,,,,,,,,,,,1353.1888,1353.1888,1353.1893,1353.911,0,1,left,0.2085,,1353.9118,1353.9124,1,0,,1353.9126,1353.9128,0,0,,0,1353.9128,1353.9128,1353.913,1355.4109,0,5,5,5,1,0.8,0.2,0.4,0.6,1,0,,,,,,,,,,,,,,,,,,,,,,,,,,,,,,,,,,,,
,,66d0a027b8886581c95f2768,66fc979040a8f383c4a55212,2024-10-02_01h45.19.356,mdp,2024.2.1,Win32,142.8571429,66fa4ebf79326e780c390304,,,,,,,,,,,,,,,,,,,,,1355.4112,1355.4112,1355.4119,1356.2998,1,0,right,0.3788,,1356.3003,1356.3006,1,1,,1356.3008,1356.3011,0,0,,1,1356.3011,1356.3011,1356.3012,1357.7998,0,6,6,6,1,0.8,0.2,0.4,0.6,1,0,,,,,,,,,,,,,,,,,,,,,,,,,,,,,,,,,,,,
,,66d0a027b8886581c95f2768,66fc979040a8f383c4a55212,2024-10-02_01h45.19.356,mdp,2024.2.1,Win32,142.8571429,66fa4ebf79326e780c390304,,,,,,,,,,,,,,,,,,,,,1357.8001,1357.8001,1357.8008,1358.5081,0,0,left,0.1946,,1358.5086,1358.5091,1,1,,1358.5094,1358.5096,0,0,,1,1358.5096,1358.5096,1358.5098,1360.0081,0,7,7,7,1,0.8,0.2,0.4,0.6,1,0,,,,,,,,,,,,,,,,,,,,,,,,,,,,,,,,,,,,
,,66d0a027b8886581c95f2768,66fc979040a8f383c4a55212,2024-10-02_01h45.19.356,mdp,2024.2.1,Win32,142.8571429,66fa4ebf79326e780c390304,,,,,,,,,,,,,,,,,,,,,1360.0083,1360.0083,1360.0087,1360.897,1,1,right,0.3791,,1360.8975,1360.8977,1,0,,1360.8979,1360.8981,0,0,,0,1360.8981,1360.8981,1360.8983,1362.397,0,8,8,8,1,0.6,0.4,0.8,0.2,1,0,,,,,,,,,,,,,,,,,,,,,,,,,,,,,,,,,,,,
,,66d0a027b8886581c95f2768,66fc979040a8f383c4a55212,2024-10-02_01h45.19.356,mdp,2024.2.1,Win32,142.8571429,66fa4ebf79326e780c390304,,,,,,,,,,,,,,,,,,,,,1362.3972,1362.3972,1362.3976,1363.1402,1,0,right,0.2307,,1363.1407,1363.1411,1,1,,1363.1413,1363.1416,0,0,,1,1363.1416,1363.1416,1363.1419,1364.6401,0,9,9,9,1,0.6,0.4,0.8,0.2,1,0,,,,,,,,,,,,,,,,,,,,,,,,,,,,,,,,,,,,
,,66d0a027b8886581c95f2768,66fc979040a8f383c4a55212,2024-10-02_01h45.19.356,mdp,2024.2.1,Win32,142.8571429,66fa4ebf79326e780c390304,,,,,,,,,,,,,,,,,,,,,1364.6402,1364.6402,1364.6407,1365.3971,0,0,left,0.2432,,1365.3975,1365.3979,1,1,,1365.3982,1365.3984,0,1,,1,1365.3984,1365.3984,1365.3986,1366.8971,0,10,10,10,1,0.8,0.2,0.4,0.6,1,0,,,,,,,,,,,,,,,,,,,,,,,,,,,,,,,,,,,,
,,66d0a027b8886581c95f2768,66fc979040a8f383c4a55212,2024-10-02_01h45.19.356,mdp,2024.2.1,Win32,142.8571429,66fa4ebf79326e780c390304,,,,,,,,,,,,,,,,,,,,,1366.8972,1366.8972,1366.8977,1367.5777,0,0,left,0.1668,,1367.5784,1367.5787,1,0,,1367.5789,1367.5792,0,0,,1,1367.5792,1367.5792,1367.5794,1369.0776,0,11,11,11,1,0.8,0.2,0.4,0.6,1,0,,,,,,,,,,,,,,,,,,,,,,,,,,,,,,,,,,,,
,,66d0a027b8886581c95f2768,66fc979040a8f383c4a55212,2024-10-02_01h45.19.356,mdp,2024.2.1,Win32,142.8571429,66fa4ebf79326e780c390304,,,,,,,,,,,,,,,,,,,,,1369.0778,1369.0778,1369.0782,1370.0845,0,0,left,0.4968,,1370.085,1370.0853,1,0,,1370.0856,1370.0857,0,0,,1,1370.0858,1370.0858,1370.0859,1371.5845,0,12,12,12,1,0.8,0.2,0.4,0.6,1,0,,,,,,,,,,,,,,,,,,,,,,,,,,,,,,,,,,,,
,,66d0a027b8886581c95f2768,66fc979040a8f383c4a55212,2024-10-02_01h45.19.356,mdp,2024.2.1,Win32,142.8571429,66fa4ebf79326e780c390304,,,,,,,,,,,,,,,,,,,,,1371.5847,1371.5847,1371.5853,1372.3208,0,0,left,0.2223,,1372.3212,1372.3216,1,0,,1372.3217,1372.3219,0,1,,1,1372.3219,1372.3219,1372.3221,1373.8207,0,13,13,13,1,0.8,0.2,0.4,0.6,1,0,,,,,,,,,,,,,,,,,,,,,,,,,,,,,,,,,,,,
,,66d0a027b8886581c95f2768,66fc979040a8f383c4a55212,2024-10-02_01h45.19.356,mdp,2024.2.1,Win32,142.8571429,66fa4ebf79326e780c390304,,,,,,,,,,,,,,,,,,,,,1373.8209,1373.8209,1373.8213,1374.5429,0,0,left,0.2085,,1374.5435,1374.5438,1,0,,1374.5442,1374.5444,0,0,,1,1374.5444,1374.5444,1374.5447,1376.0429,0,14,14,14,1,0.8,0.2,0.4,0.6,1,0,,,,,,,,,,,,,,,,,,,,,,,,,,,,,,,,,,,,
,,66d0a027b8886581c95f2768,66fc979040a8f383c4a55212,2024-10-02_01h45.19.356,mdp,2024.2.1,Win32,142.8571429,66fa4ebf79326e780c390304,,,,,,,,,,,,,,,,,,,,,1376.0431,1376.0431,1376.0435,1376.7095,0,0,left,0.1553,,1376.7101,1376.7105,1,1,,1376.7108,1376.711,0,0,,1,1376.711,1376.711,1376.7111,1378.2096,0,15,15,15,1,0.8,0.2,0.4,0.6,1,0,,,,,,,,,,,,,,,,,,,,,,,,,,,,,,,,,,,,
,,66d0a027b8886581c95f2768,66fc979040a8f383c4a55212,2024-10-02_01h45.19.356,mdp,2024.2.1,Win32,142.8571429,66fa4ebf79326e780c390304,,,,,,,,,,,,,,,,,,,,,1378.2098,1378.2098,1378.2102,1379.05,0,0,left,0.3272,,1379.0505,1379.0509,1,0,,1379.0512,1379.0516,0,0,,1,1379.0516,1379.0516,1379.0518,1380.5499,0,16,16,16,1,0.8,0.2,0.4,0.6,1,0,,,,,,,,,,,,,,,,,,,,,,,,,,,,,,,,,,,,
,,66d0a027b8886581c95f2768,66fc979040a8f383c4a55212,2024-10-02_01h45.19.356,mdp,2024.2.1,Win32,142.8571429,66fa4ebf79326e780c390304,,,,,,,,,,,,,,,,,,,,,1380.5503,1380.5503,1380.5509,1381.2652,0,1,left,0.2015,,1381.2657,1381.266,1,0,,1381.2663,1381.2666,0,0,,0,1381.2666,1381.2666,1381.2668,1382.7652,0,17,17,17,1,0.8,0.2,0.4,0.6,1,0,,,,,,,,,,,,,,,,,,,,,,,,,,,,,,,,,,,,
,,66d0a027b8886581c95f2768,66fc979040a8f383c4a55212,2024-10-02_01h45.19.356,mdp,2024.2.1,Win32,142.8571429,66fa4ebf79326e780c390304,,,,,,,,,,,,,,,,,,,,,1382.7654,1382.7654,1382.7659,1383.5985,1,0,right,0.321,,1383.599,1383.5993,1,1,,1383.5996,1383.5997,0,1,,1,1383.5997,1383.5997,1383.5999,1385.0986,0,18,18,18,1,0.8,0.2,0.4,0.6,1,0,,,,,,,,,,,,,,,,,,,,,,,,,,,,,,,,,,,,
,,66d0a027b8886581c95f2768,66fc979040a8f383c4a55212,2024-10-02_01h45.19.356,mdp,2024.2.1,Win32,142.8571429,66fa4ebf79326e780c390304,,,,,,,,,,,,,,,,,,,,,1385.0988,1385.0988,1385.0993,1385.7374,0,1,left,0.1261,,1385.738,1385.7383,1,1,,1385.7386,1385.7387,0,1,,0,1385.7387,1385.7387,1385.739,1387.2375,0,19,19,19,1,0.6,0.4,0.6,0.4,1,0,,,,,,,,,,,,,,,,,,,,,,,,,,,,,,,,,,,,
,,66d0a027b8886581c95f2768,66fc979040a8f383c4a55212,2024-10-02_01h45.19.356,mdp,2024.2.1,Win32,142.8571429,66fa4ebf79326e780c390304,,,,,,,,,,,,,,,,,,,,,1387.2377,1387.2377,1387.238,1387.9319,1,0,right,0.1814,,1387.9323,1387.9326,1,0,,1387.9329,1387.9331,0,0,,1,1387.9331,1387.9331,1387.9333,1389.4319,0,20,20,20,1,0.6,0.4,0.6,0.4,1,0,,,,,,,,,,,,,,,,,,,,,,,,,,,,,,,,,,,,
,,66d0a027b8886581c95f2768,66fc979040a8f383c4a55212,2024-10-02_01h45.19.356,mdp,2024.2.1,Win32,142.8571429,66fa4ebf79326e780c390304,,,,,,,,,,,,,,,,,,,,,1389.4322,1389.4322,1389.4327,1390.0361,1,0,right,0.0904,,1390.0366,1390.0369,1,1,,1390.0373,1390.0375,0,0,,1,1390.0375,1390.0375,1390.0377,1391.536,0,21,21,21,1,0.6,0.4,0.6,0.4,1,0,,,,,,,,,,,,,,,,,,,,,,,,,,,,,,,,,,,,
,,66d0a027b8886581c95f2768,66fc979040a8f383c4a55212,2024-10-02_01h45.19.356,mdp,2024.2.1,Win32,142.8571429,66fa4ebf79326e780c390304,,,,,,,,,,,,,,,,,,,,,1391.5362,1391.5362,1391.5367,1392.1542,1,1,right,0.1043,,1392.1546,1392.155,1,0,,1392.1553,1392.1555,0,0,,0,1392.1555,1392.1555,1392.1558,1393.6541,0,22,22,22,1,0.8,0.2,0.8,0.2,1,0,,,,,,,,,,,,,,,,,,,,,,,,,,,,,,,,,,,,
,,66d0a027b8886581c95f2768,66fc979040a8f383c4a55212,2024-10-02_01h45.19.356,mdp,2024.2.1,Win32,142.8571429,66fa4ebf79326e780c390304,,,,,,,,,,,,,,,,,,,,,1393.6544,1393.6544,1393.6549,1394.307,1,1,right,0.1405,,1394.3075,1394.3078,1,1,,1394.308,1394.3082,0,1,,0,1394.3082,1394.3082,1394.3083,1395.8069,0,23,23,23,1,0.8,0.2,0.8,0.2,1,0,,,,,,,,,,,,,,,,,,,,,,,,,,,,,,,,,,,,
,,66d0a027b8886581c95f2768,66fc979040a8f383c4a55212,2024-10-02_01h45.19.356,mdp,2024.2.1,Win32,142.8571429,66fa4ebf79326e780c390304,,,,,,,,,,,,,,,,,,,,,1395.8071,1395.8071,1395.8076,1396.4458,0,1,left,0.1253,,1396.4463,1396.4467,1,1,,1396.4469,1396.4472,0,0,,0,1396.4472,1396.4472,1396.4473,1397.9459,0,24,24,24,1,0.8,0.2,0.8,0.2,1,0,,,,,,,,,,,,,,,,,,,,,,,,,,,,,,,,,,,,
,,66d0a027b8886581c95f2768,66fc979040a8f383c4a55212,2024-10-02_01h45.19.356,mdp,2024.2.1,Win32,142.8571429,66fa4ebf79326e780c390304,,,,,,,,,,,,,,,,,,,,,1397.9461,1397.9461,1397.9467,1398.5292,1,0,right,0.0736,,1398.5297,1398.53,1,0,,1398.5302,1398.5304,0,0,,1,1398.5304,1398.5304,1398.5306,1400.0291,0,25,25,25,1,0.8,0.2,0.8,0.2,1,0,,,,,,,,,,,,,,,,,,,,,,,,,,,,,,,,,,,,
,,66d0a027b8886581c95f2768,66fc979040a8f383c4a55212,2024-10-02_01h45.19.356,mdp,2024.2.1,Win32,142.8571429,66fa4ebf79326e780c390304,,,,,,,,,,,,,,,,,,,,,1400.0293,1400.0293,1400.0298,1400.6403,0,0,left,0.0995,,1400.6407,1400.6411,1,0,,1400.6414,1400.6417,0,0,,1,1400.6417,1400.6417,1400.6418,1402.1403,0,26,26,26,1,0.8,0.2,0.8,0.2,1,0,,,,,,,,,,,,,,,,,,,,,,,,,,,,,,,,,,,,
,,66d0a027b8886581c95f2768,66fc979040a8f383c4a55212,2024-10-02_01h45.19.356,mdp,2024.2.1,Win32,142.8571429,66fa4ebf79326e780c390304,,,,,,,,,,,,,,,,,,,,,1402.1406,1402.1406,1402.141,1402.6958,0,0,left,0.0447,,1402.6963,1402.6965,1,0,,1402.6967,1402.6969,0,0,,1,1402.6969,1402.6969,1402.6972,1404.1958,0,27,27,27,1,0.6,0.4,0.2,0.8,1,0,,,,,,,,,,,,,,,,,,,,,,,,,,,,,,,,,,,,
,,66d0a027b8886581c95f2768,66fc979040a8f383c4a55212,2024-10-02_01h45.19.356,mdp,2024.2.1,Win32,142.8571429,66fa4ebf79326e780c390304,,,,,,,,,,,,,,,,,,,,,1404.196,1404.196,1404.1964,1404.8142,0,0,left,0.1074,,1404.815,1404.8157,1,1,,1404.8163,1404.8168,0,0,,1,1404.8169,1404.8169,1404.8174,1406.3142,0,28,28,28,1,0.6,0.4,0.2,0.8,1,0,,,,,,,,,,,,,,,,,,,,,,,,,,,,,,,,,,,,
,,66d0a027b8886581c95f2768,66fc979040a8f383c4a55212,2024-10-02_01h45.19.356,mdp,2024.2.1,Win32,142.8571429,66fa4ebf79326e780c390304,,,,,,,,,,,,,,,,,,,,,1406.3146,1406.3146,1406.3154,1407.0154,0,0,left,0.1878,,1407.0162,1407.0167,1,1,,1407.0171,1407.0174,0,1,,1,1407.0174,1407.0174,1407.0177,1408.5153,0,29,29,29,1,0.6,0.4,0.2,0.8,1,0,,,,,,,,,,,,,,,,,,,,,,,,,,,,,,,,,,,,
,,66d0a027b8886581c95f2768,66fc979040a8f383c4a55212,2024-10-02_01h45.19.356,mdp,2024.2.1,Win32,142.8571429,66fa4ebf79326e780c390304,,,,,,,,,,,,,,,,,,,,,1408.5155,1408.5155,1408.516,1409.3765,0,1,left,0.3485,,1409.377,1409.3774,1,0,,1409.3776,1409.3778,0,1,,0,1409.3778,1409.3778,1409.378,1410.8764,0,30,30,30,1,0.2,0.8,0.6,0.4,1,0,,,,,,,,,,,,,,,,,,,,,,,,,,,,,,,,,,,,
,,66d0a027b8886581c95f2768,66fc979040a8f383c4a55212,2024-10-02_01h45.19.356,mdp,2024.2.1,Win32,142.8571429,66fa4ebf79326e780c390304,,,,,,,,,,,,,,,,,,,,,1410.8766,1410.8766,1410.877,1411.5918,1,0,right,0.2026,,1411.5924,1411.5926,1,0,,1411.5929,1411.5931,0,1,,1,1411.5931,1411.5931,1411.5933,1413.0917,0,31,31,31,1,0.4,0.6,0.8,0.2,1,0,,,,,,,,,,,,,,,,,,,,,,,,,,,,,,,,,,,,
,,66d0a027b8886581c95f2768,66fc979040a8f383c4a55212,2024-10-02_01h45.19.356,mdp,2024.2.1,Win32,142.8571429,66fa4ebf79326e780c390304,,,,,,,,,,,,,,,,,,,,,1413.0919,1413.0919,1413.0923,1413.6682,0,0,left,0.0647,,1413.6686,1413.669,1,1,,1413.6692,1413.6693,0,0,,1,1413.6693,1413.6693,1413.6695,1415.1686,0,32,32,32,1,0.6,0.4,0.4,0.6,1,0,,,,,,,,,,,,,,,,,,,,,,,,,,,,,,,,,,,,
,,66d0a027b8886581c95f2768,66fc979040a8f383c4a55212,2024-10-02_01h45.19.356,mdp,2024.2.1,Win32,142.8571429,66fa4ebf79326e780c390304,,,,,,,,,,,,,,,,,,,,,1415.1689,1415.1689,1415.1699,1415.8696,0,0,left,0.1877,,1415.8702,1415.8709,1,0,,1415.8714,1415.8718,0,1,,1,1415.8719,1415.8719,1415.8722,1417.3695,0,33,33,33,1,0.6,0.4,0.4,0.6,1,0,,,,,,,,,,,,,,,,,,,,,,,,,,,,,,,,,,,,
,,66d0a027b8886581c95f2768,66fc979040a8f383c4a55212,2024-10-02_01h45.19.356,mdp,2024.2.1,Win32,142.8571429,66fa4ebf79326e780c390304,,,,,,,,,,,,,,,,,,,,,1417.3698,1417.3698,1417.3703,1418.0848,0,0,left,0.2025,,1418.0853,1418.0856,1,0,,1418.0858,1418.0861,0,1,,1,1418.0861,1418.0861,1418.0862,1419.5848,0,34,34,34,1,0.6,0.4,0.4,0.6,1,0,,,,,,,,,,,,,,,,,,,,,,,,,,,,,,,,,,,,
,,66d0a027b8886581c95f2768,66fc979040a8f383c4a55212,2024-10-02_01h45.19.356,mdp,2024.2.1,Win32,142.8571429,66fa4ebf79326e780c390304,,,,,,,,,,,,,,,,,,,,,1419.5851,1419.5851,1419.5857,1420.1264,1,0,right,0.0305,,1420.1268,1420.1271,1,0,,1420.1273,1420.1275,0,1,,1,1420.1275,1420.1275,1420.1277,1421.6265,0,35,35,35,1,0.6,0.4,0.4,0.6,1,0,,,,,,,,,,,,,,,,,,,,,,,,,,,,,,,,,,,,
,,66d0a027b8886581c95f2768,66fc979040a8f383c4a55212,2024-10-02_01h45.19.356,mdp,2024.2.1,Win32,142.8571429,66fa4ebf79326e780c390304,,,,,,,,,,,,,,,,,,,,,1421.6266,1421.6266,1421.6271,1422.196,0,0,left,0.0556,,1422.1964,1422.1969,1,1,,1422.1971,1422.1973,0,0,,1,1422.1973,1422.1973,1422.1974,1423.6959,0,36,36,36,1,0.6,0.4,0.4,0.6,1,0,,,,,,,,,,,,,,,,,,,,,,,,,,,,,,,,,,,,
,,66d0a027b8886581c95f2768,66fc979040a8f383c4a55212,2024-10-02_01h45.19.356,mdp,2024.2.1,Win32,142.8571429,66fa4ebf79326e780c390304,,,,,,,,,,,,,,,,,,,,,1423.6961,1423.6961,1423.6965,1424.3071,0,1,left,0.099,,1424.3076,1424.3079,1,1,,1424.3082,1424.3084,0,0,,0,1424.3084,1424.3084,1424.3086,1425.8071,0,37,37,37,1,0.6,0.4,0.4,0.6,1,0,,,,,,,,,,,,,,,,,,,,,,,,,,,,,,,,,,,,
,,66d0a027b8886581c95f2768,66fc979040a8f383c4a55212,2024-10-02_01h45.19.356,mdp,2024.2.1,Win32,142.8571429,66fa4ebf79326e780c390304,,,,,,,,,,,,,,,,,,,,,1425.8074,1425.8074,1425.808,1426.4251,1,1,right,0.106,,1426.4257,1426.4261,1,0,,1426.4264,1426.4266,0,0,,0,1426.4266,1426.4266,1426.4267,1427.9251,0,38,38,38,1,0.6,0.4,0.4,0.6,1,0,,,,,,,,,,,,,,,,,,,,,,,,,,,,,,,,,,,,
,,66d0a027b8886581c95f2768,66fc979040a8f383c4a55212,2024-10-02_01h45.19.356,mdp,2024.2.1,Win32,142.8571429,66fa4ebf79326e780c390304,,,,,,,,,,,,,,,,,,,,,1427.9253,1427.9253,1427.9258,1428.6613,1,1,right,0.2224,,1428.6618,1428.6621,1,1,,1428.6624,1428.6626,0,0,,0,1428.6626,1428.6626,1428.6628,1430.1612,0,39,39,39,1,0.6,0.4,0.4,0.6,1,0,,,,,,,,,,,,,,,,,,,,,,,,,,,,,,,,,,,,
,,66d0a027b8886581c95f2768,66fc979040a8f383c4a55212,2024-10-02_01h45.19.356,mdp,2024.2.1,Win32,142.8571429,66fa4ebf79326e780c390304,,,,,,,,,,,,,,,,,,,,,1430.1615,1430.1615,1430.162,1430.7724,0,1,left,0.1006,,1430.7728,1430.7731,1,1,,1430.7733,1430.7736,0,0,,0,1430.7736,1430.7736,1430.7738,1432.2723,0,40,40,40,1,0.6,0.4,0.4,0.6,1,0,,,,,,,,,,,,,,,,,,,,,,,,,,,,,,,,,,,,
