init_exp.started,init_exp.stopped,participant,session,date,expName,psychopyVersion,OS,frameRate,study_id,disp_instruction.started,disp_instruction.stopped,instruction.thisRepN,instruction.thisTrialN,instruction.thisN,instruction.thisIndex,instruction.ran,instimg_path,consent.started,consent.stopped,key_resp_3.keys,key_resp_3.rt,key_resp_3.duration,n_steps,sequence_path,init_block.started,init_block.stopped,key_resp.keys,key_resp.rt,key_resp.duration,init_trials.started,init_trials.stopped,step0.started,step0.stopped,act0,s1,res0.keys,res0.rt,res0.duration,step1.started,step1.stopped,act1,s2,res1.keys,step2.started,step2.stopped,act2,s3,res2.keys,rew,reward_comp.started,reward_comp.stopped,reward_disp.started,reward_disp.stopped,trials.thisRepN,trials.thisTrialN,trials.thisN,trials.thisIndex,trials.ran,s00a0s10,s00a0s11,s00a1s10,s00a1s11,rew10,rew11,break_block.started,break_block.stopped,block.thisRepN,block.thisTrialN,block.thisN,block.thisIndex,block.ran,s00path,s10path,s11path,s20path,s21path,res1.rt,res1.duration,s10a0s20,s10a0s21,s10a1s20,s10a1s21,s11a0s20,s11a0s21,s11a1s20,s11a1s21,rew20,rew21,res2.rt,res2.duration,s20a0s30,s20a0s31,s20a1s30,s20a1s31,s21a0s30,s21a0s31,s21a1s30,s21a1s31,rew30,rew31
0.0003,0.0025,66d5b85d1841cb833e814b36,66daf5a5e7a8ff02353aa2ab,2024-09-06_13h31.23.521,mdp,2024.2.1,MacIntel,30.03003003,66d7945b1baad48e845df3ce,,,,,,,,,,,,,,,,,,,,,,,,,,,,,,,,,,,,,,,,,,,,,,,,,,,,,,,,,,,,,,,,,,,,,,,,,,,,,,,,,,,,,,,,,,,
,,66d5b85d1841cb833e814b36,66daf5a5e7a8ff02353aa2ab,2024-09-06_13h31.23.521,mdp,2024.2.1,MacIntel,30.03003003,66d7945b1baad48e845df3ce,0.0108,29.0916,0,0,0,0,1,rlnn_exp/rlnn_exp.001.png,,,,,,,,,,,,,,,,,,,,,,,,,,,,,,,,,,,,,,,,,,,,,,,,,,,,,,,,,,,,,,,,,,,,,,,,,,,,,,,,,,,
,,66d5b85d1841cb833e814b36,66daf5a5e7a8ff02353aa2ab,2024-09-06_13h31.23.521,mdp,2024.2.1,MacIntel,30.03003003,66d7945b1baad48e845df3ce,29.0931,55.3983,0,1,1,1,1,rlnn_exp/rlnn_exp.002.png,,,,,,,,,,,,,,,,,,,,,,,,,,,,,,,,,,,,,,,,,,,,,,,,,,,,,,,,,,,,,,,,,,,,,,,,,,,,,,,,,,,
,,66d5b85d1841cb833e814b36,66daf5a5e7a8ff02353aa2ab,2024-09-06_13h31.23.521,mdp,2024.2.1,MacIntel,30.03003003,66d7945b1baad48e845df3ce,55.4012,72.1839,0,2,2,2,1,rlnn_exp/rlnn_exp.003.png,,,,,,,,,,,,,,,,,,,,,,,,,,,,,,,,,,,,,,,,,,,,,,,,,,,,,,,,,,,,,,,,,,,,,,,,,,,,,,,,,,,
,,66d5b85d1841cb833e814b36,66daf5a5e7a8ff02353aa2ab,2024-09-06_13h31.23.521,mdp,2024.2.1,MacIntel,30.03003003,66d7945b1baad48e845df3ce,72.1854,91.1225,0,3,3,3,1,rlnn_exp/rlnn_exp.004.png,,,,,,,,,,,,,,,,,,,,,,,,,,,,,,,,,,,,,,,,,,,,,,,,,,,,,,,,,,,,,,,,,,,,,,,,,,,,,,,,,,,
,,66d5b85d1841cb833e814b36,66daf5a5e7a8ff02353aa2ab,2024-09-06_13h31.23.521,mdp,2024.2.1,MacIntel,30.03003003,66d7945b1baad48e845df3ce,,,,,,,,,91.1251,101.2013,y,0.0015,,,,,,,,,,,,,,,,,,,,,,,,,,,,,,,,,,,,,,,,,,,,,,,,,,,,,,,,,,,,,,,,,,,,,,,,,,,,,,,
,,66d5b85d1841cb833e814b36,66daf5a5e7a8ff02353aa2ab,2024-09-06_13h31.23.521,mdp,2024.2.1,MacIntel,30.03003003,66d7945b1baad48e845df3ce,,,,,,,,,,,,,,1,seqs/st1seq38.csv,101.2102,103.6926,space,1.9468,,103.7006,103.7008,103.7023,111.7586,1,0,right,7.4655,,111.7595,111.7633,,0,,111.7643,111.7714,,0,,1,111.7718,111.7721,111.7757,113.2826,0,0,0,0,1,0.6,0.4,0.8,0.2,1,0,,,,,,,,,,,,,,,,,,,,,,,,,,,,,,,,,,,,
,,66d5b85d1841cb833e814b36,66daf5a5e7a8ff02353aa2ab,2024-09-06_13h31.23.521,mdp,2024.2.1,MacIntel,30.03003003,66d7945b1baad48e845df3ce,,,,,,,,,,,,,,,,,,,,,113.2835,113.2837,113.2857,118.4717,1,0,right,4.6402,,118.5511,118.5528,,0,,118.5804,118.582,,0,,1,118.5821,118.5821,118.5849,120.0814,0,1,1,1,1,0.4,0.6,0.6,0.4,1,0,,,,,,,,,,,,,,,,,,,,,,,,,,,,,,,,,,,,
,,66d5b85d1841cb833e814b36,66daf5a5e7a8ff02353aa2ab,2024-09-06_13h31.23.521,mdp,2024.2.1,MacIntel,30.03003003,66d7945b1baad48e845df3ce,,,,,,,,,,,,,,,,,,,,,120.0822,120.0823,120.0848,128.3628,1,0,right,7.7392,,128.3936,128.3951,,0,,128.3973,128.4057,,0,,1,128.4057,128.4058,128.4185,129.8944,0,2,2,2,1,0.4,0.6,0.6,0.4,1,0,,,,,,,,,,,,,,,,,,,,,,,,,,,,,,,,,,,,
,,66d5b85d1841cb833e814b36,66daf5a5e7a8ff02353aa2ab,2024-09-06_13h31.23.521,mdp,2024.2.1,MacIntel,30.03003003,66d7945b1baad48e845df3ce,,,,,,,,,,,,,,,,,,,,,129.8954,129.8954,129.8977,131.9203,1,1,right,1.4694,,131.9226,131.9261,,0,,131.9284,131.9302,,0,,0,131.9302,131.9303,131.9316,133.4247,0,3,3,3,1,0.4,0.6,0.6,0.4,1,0,,,,,,,,,,,,,,,,,,,,,,,,,,,,,,,,,,,,
,,66d5b85d1841cb833e814b36,66daf5a5e7a8ff02353aa2ab,2024-09-06_13h31.23.521,mdp,2024.2.1,MacIntel,30.03003003,66d7945b1baad48e845df3ce,,,,,,,,,,,,,,,,,,,,,133.4256,133.4256,133.4277,134.1448,1,1,right,0.1809,,134.1463,134.1474,,0,,134.1486,134.1499,,1,,0,134.1501,134.1501,134.1513,135.6586,0,4,4,4,1,0.6,0.4,0.4,0.6,1,0,,,,,,,,,,,,,,,,,,,,,,,,,,,,,,,,,,,,
,,66d5b85d1841cb833e814b36,66daf5a5e7a8ff02353aa2ab,2024-09-06_13h31.23.521,mdp,2024.2.1,MacIntel,30.03003003,66d7945b1baad48e845df3ce,,,,,,,,,,,,,,,,,,,,,135.6591,135.6591,135.6607,140.8647,1,0,right,4.6574,,140.8956,140.8978,,0,,140.8994,140.9013,,0,,1,140.9013,140.9014,140.9027,142.3933,0,5,5,5,1,0.4,0.6,0.8,0.2,1,0,,,,,,,,,,,,,,,,,,,,,,,,,,,,,,,,,,,,
,,66d5b85d1841cb833e814b36,66daf5a5e7a8ff02353aa2ab,2024-09-06_13h31.23.521,mdp,2024.2.1,MacIntel,30.03003003,66d7945b1baad48e845df3ce,,,,,,,,,,,,,,,,,,,,,142.3939,142.3939,142.3955,144.963,1,0,right,2.0242,,144.9961,144.9977,,0,,145.0002,145.0017,,0,,1,145.0017,145.0017,145.0032,146.4909,0,6,6,6,1,0.4,0.6,0.8,0.2,1,0,,,,,,,,,,,,,,,,,,,,,,,,,,,,,,,,,,,,
,,66d5b85d1841cb833e814b36,66daf5a5e7a8ff02353aa2ab,2024-09-06_13h31.23.521,mdp,2024.2.1,MacIntel,30.03003003,66d7945b1baad48e845df3ce,,,,,,,,,,,,,,,,,,,,,146.4914,146.4914,146.493,147.9226,1,0,right,0.8999,,147.9244,147.9259,,0,,147.928,147.9303,,0,,1,147.9304,147.9304,147.9317,149.419,0,7,7,7,1,0.4,0.6,0.8,0.2,1,0,,,,,,,,,,,,,,,,,,,,,,,,,,,,,,,,,,,,
,,66d5b85d1841cb833e814b36,66daf5a5e7a8ff02353aa2ab,2024-09-06_13h31.23.521,mdp,2024.2.1,MacIntel,30.03003003,66d7945b1baad48e845df3ce,,,,,,,,,,,,,,,,,,,,,149.4196,149.4198,149.4213,151.0521,1,1,right,1.1,,151.0542,151.0553,,1,,151.0567,151.0584,,0,,0,151.0586,151.0586,151.061,152.5261,0,8,8,8,1,0.4,0.6,0.8,0.2,1,0,,,,,,,,,,,,,,,,,,,,,,,,,,,,,,,,,,,,
,,66d5b85d1841cb833e814b36,66daf5a5e7a8ff02353aa2ab,2024-09-06_13h31.23.521,mdp,2024.2.1,MacIntel,30.03003003,66d7945b1baad48e845df3ce,,,,,,,,,,,,,,,,,,,,,152.5272,152.5273,152.5295,155.3715,1,0,right,2.317,,155.4016,155.4027,,0,,155.4043,155.4053,,0,,1,155.4053,155.4055,155.4068,156.915,0,9,9,9,1,0.4,0.6,0.8,0.2,1,0,,,,,,,,,,,,,,,,,,,,,,,,,,,,,,,,,,,,
,,66d5b85d1841cb833e814b36,66daf5a5e7a8ff02353aa2ab,2024-09-06_13h31.23.521,mdp,2024.2.1,MacIntel,30.03003003,66d7945b1baad48e845df3ce,,,,,,,,,,,,,,,,,,,,,156.9157,156.9157,156.9172,158.0615,1,0,right,0.5944,,158.0631,158.0642,,0,,158.0655,158.0667,,0,,1,158.0667,158.0667,158.0678,159.5452,0,10,10,10,1,0.4,0.6,0.8,0.2,1,0,,,,,,,,,,,,,,,,,,,,,,,,,,,,,,,,,,,,
,,66d5b85d1841cb833e814b36,66daf5a5e7a8ff02353aa2ab,2024-09-06_13h31.23.521,mdp,2024.2.1,MacIntel,30.03003003,66d7945b1baad48e845df3ce,,,,,,,,,,,,,,,,,,,,,159.546,159.546,159.5475,160.4763,1,0,right,0.3878,,160.4779,160.4805,,1,,160.4821,160.4835,,1,,1,160.4836,160.4836,160.4854,161.9866,0,11,11,11,1,0.4,0.6,0.8,0.2,1,0,,,,,,,,,,,,,,,,,,,,,,,,,,,,,,,,,,,,
,,66d5b85d1841cb833e814b36,66daf5a5e7a8ff02353aa2ab,2024-09-06_13h31.23.521,mdp,2024.2.1,MacIntel,30.03003003,66d7945b1baad48e845df3ce,,,,,,,,,,,,,,,,,,,,,161.9874,161.9874,161.9898,163.2966,1,0,right,0.7659,,163.2983,163.3,,0,,163.3013,163.3023,,0,,1,163.3025,163.3026,163.3041,164.813,0,12,12,12,1,0.4,0.6,0.8,0.2,1,0,,,,,,,,,,,,,,,,,,,,,,,,,,,,,,,,,,,,
,,66d5b85d1841cb833e814b36,66daf5a5e7a8ff02353aa2ab,2024-09-06_13h31.23.521,mdp,2024.2.1,MacIntel,30.03003003,66d7945b1baad48e845df3ce,,,,,,,,,,,,,,,,,,,,,164.8136,164.8138,164.8154,168.0066,1,0,right,2.661,,168.0352,168.0376,,1,,168.0391,168.0399,,0,,1,168.04,168.04,168.0417,169.5304,0,13,13,13,1,0.8,0.2,0.6,0.4,1,0,,,,,,,,,,,,,,,,,,,,,,,,,,,,,,,,,,,,
,,66d5b85d1841cb833e814b36,66daf5a5e7a8ff02353aa2ab,2024-09-06_13h31.23.521,mdp,2024.2.1,MacIntel,30.03003003,66d7945b1baad48e845df3ce,,,,,,,,,,,,,,,,,,,,,169.5316,169.5316,169.5344,172.8456,1,1,right,2.7821,,172.8472,172.8482,,0,,172.8499,172.8509,,0,,0,172.8509,172.8509,172.8521,174.3419,0,14,14,14,1,0.8,0.2,0.6,0.4,1,0,,,,,,,,,,,,,,,,,,,,,,,,,,,,,,,,,,,,
,,66d5b85d1841cb833e814b36,66daf5a5e7a8ff02353aa2ab,2024-09-06_13h31.23.521,mdp,2024.2.1,MacIntel,30.03003003,66d7945b1baad48e845df3ce,,,,,,,,,,,,,,,,,,,,,174.343,174.343,174.3453,175.7853,1,0,right,0.9008,,175.7875,175.7889,,1,,175.7903,175.7915,,0,,1,175.7916,175.7916,175.793,177.282,0,15,15,15,1,0.8,0.2,0.6,0.4,1,0,,,,,,,,,,,,,,,,,,,,,,,,,,,,,,,,,,,,
,,66d5b85d1841cb833e814b36,66daf5a5e7a8ff02353aa2ab,2024-09-06_13h31.23.521,mdp,2024.2.1,MacIntel,30.03003003,66d7945b1baad48e845df3ce,,,,,,,,,,,,,,,,,,,,,177.2828,177.2828,177.285,179.2918,1,0,right,1.4834,,179.2933,179.2948,,1,,179.2959,179.2976,,1,,1,179.2976,179.2976,179.2988,180.803,0,16,16,16,1,0.8,0.2,0.6,0.4,1,0,,,,,,,,,,,,,,,,,,,,,,,,,,,,,,,,,,,,
,,66d5b85d1841cb833e814b36,66daf5a5e7a8ff02353aa2ab,2024-09-06_13h31.23.521,mdp,2024.2.1,MacIntel,30.03003003,66d7945b1baad48e845df3ce,,,,,,,,,,,,,,,,,,,,,180.804,180.804,180.8059,182.566,1,0,right,1.2243,,182.5674,182.5685,,1,,182.5701,182.5709,,1,,1,182.571,182.571,182.5725,184.0469,0,17,17,17,1,0.4,0.6,0.8,0.2,1,0,,,,,,,,,,,,,,,,,,,,,,,,,,,,,,,,,,,,
,,66d5b85d1841cb833e814b36,66daf5a5e7a8ff02353aa2ab,2024-09-06_13h31.23.521,mdp,2024.2.1,MacIntel,30.03003003,66d7945b1baad48e845df3ce,,,,,,,,,,,,,,,,,,,,,184.0476,184.0476,184.0495,185.1427,1,0,right,0.5603,,185.1454,185.1467,,1,,185.1484,185.1494,,1,,1,185.1495,185.1495,185.151,186.6551,0,18,18,18,1,0.4,0.6,0.8,0.2,1,0,,,,,,,,,,,,,,,,,,,,,,,,,,,,,,,,,,,,
,,66d5b85d1841cb833e814b36,66daf5a5e7a8ff02353aa2ab,2024-09-06_13h31.23.521,mdp,2024.2.1,MacIntel,30.03003003,66d7945b1baad48e845df3ce,,,,,,,,,,,,,,,,,,,,,186.6559,186.6559,186.6574,187.9051,1,1,right,0.7331,,187.9068,187.9083,,0,,187.9095,187.9104,,1,,0,187.9105,187.9105,187.9115,189.3941,0,19,19,19,1,0.2,0.8,0.6,0.4,1,0,,,,,,,,,,,,,,,,,,,,,,,,,,,,,,,,,,,,
,,66d5b85d1841cb833e814b36,66daf5a5e7a8ff02353aa2ab,2024-09-06_13h31.23.521,mdp,2024.2.1,MacIntel,30.03003003,66d7945b1baad48e845df3ce,,,,,,,,,,,,,,,,,,,,,189.3949,189.3949,189.3967,191.9779,1,0,right,2.0444,,192.0187,192.0201,,0,,192.0213,192.024,,0,,1,192.0241,192.0241,192.0256,193.515,0,20,20,20,1,0.2,0.8,0.6,0.4,1,0,,,,,,,,,,,,,,,,,,,,,,,,,,,,,,,,,,,,
,,66d5b85d1841cb833e814b36,66daf5a5e7a8ff02353aa2ab,2024-09-06_13h31.23.521,mdp,2024.2.1,MacIntel,30.03003003,66d7945b1baad48e845df3ce,,,,,,,,,,,,,,,,,,,,,193.5157,193.5158,193.517,195.1696,1,0,right,1.1351,,195.1711,195.1728,,0,,195.1739,195.1749,,0,,1,195.175,195.175,195.176,196.6649,0,21,21,21,1,0.2,0.8,0.6,0.4,1,0,,,,,,,,,,,,,,,,,,,,,,,,,,,,,,,,,,,,
,,66d5b85d1841cb833e814b36,66daf5a5e7a8ff02353aa2ab,2024-09-06_13h31.23.521,mdp,2024.2.1,MacIntel,30.03003003,66d7945b1baad48e845df3ce,,,,,,,,,,,,,,,,,,,,,196.6656,196.6657,196.6674,198.1574,1,0,right,0.9665,,198.1592,198.1612,,0,,198.1633,198.1644,,0,,1,198.1644,198.1644,198.1656,199.6559,0,22,22,22,1,0.2,0.8,0.6,0.4,1,0,,,,,,,,,,,,,,,,,,,,,,,,,,,,,,,,,,,,
,,66d5b85d1841cb833e814b36,66daf5a5e7a8ff02353aa2ab,2024-09-06_13h31.23.521,mdp,2024.2.1,MacIntel,30.03003003,66d7945b1baad48e845df3ce,,,,,,,,,,,,,,,,,,,,,199.6566,199.6567,199.6581,201.4836,1,0,right,1.2843,,201.4852,201.4862,,1,,201.4874,201.4882,,1,,1,201.4883,201.4883,201.4893,202.9959,0,23,23,23,1,0.6,0.4,0.2,0.8,1,0,,,,,,,,,,,,,,,,,,,,,,,,,,,,,,,,,,,,
,,66d5b85d1841cb833e814b36,66daf5a5e7a8ff02353aa2ab,2024-09-06_13h31.23.521,mdp,2024.2.1,MacIntel,30.03003003,66d7945b1baad48e845df3ce,,,,,,,,,,,,,,,,,,,,,202.9965,202.9966,202.9985,204.3976,1,0,right,0.8519,,204.3989,204.3999,,0,,204.4012,204.402,,0,,1,204.4021,204.4021,204.4031,205.9113,0,24,24,24,1,0.8,0.2,0.6,0.4,1,0,,,,,,,,,,,,,,,,,,,,,,,,,,,,,,,,,,,,
,,66d5b85d1841cb833e814b36,66daf5a5e7a8ff02353aa2ab,2024-09-06_13h31.23.521,mdp,2024.2.1,MacIntel,30.03003003,66d7945b1baad48e845df3ce,,,,,,,,,,,,,,,,,,,,,205.912,205.912,205.9159,207.3139,1,1,right,0.8412,,207.3154,207.3166,,0,,207.3178,207.3187,,1,,0,207.3187,207.3188,207.3201,208.8176,0,25,25,25,1,0.8,0.2,0.6,0.4,1,0,,,,,,,,,,,,,,,,,,,,,,,,,,,,,,,,,,,,
,,66d5b85d1841cb833e814b36,66daf5a5e7a8ff02353aa2ab,2024-09-06_13h31.23.521,mdp,2024.2.1,MacIntel,30.03003003,66d7945b1baad48e845df3ce,,,,,,,,,,,,,,,,,,,,,208.8183,208.8183,208.8202,210.0981,1,0,right,0.7518,,210.1,210.1009,,0,,210.1018,210.1029,,0,,1,210.1029,210.1029,210.1038,211.5925,0,26,26,26,1,0.6,0.4,0.8,0.2,1,0,,,,,,,,,,,,,,,,,,,,,,,,,,,,,,,,,,,,
,,66d5b85d1841cb833e814b36,66daf5a5e7a8ff02353aa2ab,2024-09-06_13h31.23.521,mdp,2024.2.1,MacIntel,30.03003003,66d7945b1baad48e845df3ce,,,,,,,,,,,,,,,,,,,,,211.5929,211.5929,211.5942,212.5888,1,0,right,0.4637,,212.59,212.5916,,0,,212.5927,212.5935,,0,,1,212.5936,212.5936,212.5944,214.0916,0,27,27,27,1,0.6,0.4,0.8,0.2,1,0,,,,,,,,,,,,,,,,,,,,,,,,,,,,,,,,,,,,
,,66d5b85d1841cb833e814b36,66daf5a5e7a8ff02353aa2ab,2024-09-06_13h31.23.521,mdp,2024.2.1,MacIntel,30.03003003,66d7945b1baad48e845df3ce,,,,,,,,,,,,,,,,,,,,,214.092,214.092,214.0932,215.2137,1,0,right,0.6013,,215.2163,215.2176,,0,,215.2197,215.2207,,0,,1,215.2208,215.2208,215.2218,216.7118,0,28,28,28,1,0.6,0.4,0.8,0.2,1,0,,,,,,,,,,,,,,,,,,,,,,,,,,,,,,,,,,,,
,,66d5b85d1841cb833e814b36,66daf5a5e7a8ff02353aa2ab,2024-09-06_13h31.23.521,mdp,2024.2.1,MacIntel,30.03003003,66d7945b1baad48e845df3ce,,,,,,,,,,,,,,,,,,,,,216.7123,216.7123,216.7138,218.3958,1,1,right,1.1449,,218.3971,218.398,,1,,218.3993,218.4004,,1,,0,218.4005,218.4005,218.4016,219.9083,0,29,29,29,1,0.8,0.2,0.4,0.6,1,0,,,,,,,,,,,,,,,,,,,,,,,,,,,,,,,,,,,,
,,66d5b85d1841cb833e814b36,66daf5a5e7a8ff02353aa2ab,2024-09-06_13h31.23.521,mdp,2024.2.1,MacIntel,30.03003003,66d7945b1baad48e845df3ce,,,,,,,,,,,,,,,,,,,,,219.9095,219.9095,219.9111,221.2076,1,0,right,0.7304,,221.2231,221.2255,,1,,221.2287,221.2305,,1,,1,221.2305,221.2305,221.2317,222.7292,0,30,30,30,1,0.8,0.2,0.4,0.6,1,0,,,,,,,,,,,,,,,,,,,,,,,,,,,,,,,,,,,,
,,66d5b85d1841cb833e814b36,66daf5a5e7a8ff02353aa2ab,2024-09-06_13h31.23.521,mdp,2024.2.1,MacIntel,30.03003003,66d7945b1baad48e845df3ce,,,,,,,,,,,,,,,,,,,,,222.73,222.73,222.7312,224.2779,1,1,right,1.0042,,224.2807,224.2822,,1,,224.2836,224.2846,,1,,0,224.2847,224.2847,224.2858,225.8046,0,31,31,31,1,0.8,0.2,0.4,0.6,1,0,,,,,,,,,,,,,,,,,,,,,,,,,,,,,,,,,,,,
,,66d5b85d1841cb833e814b36,66daf5a5e7a8ff02353aa2ab,2024-09-06_13h31.23.521,mdp,2024.2.1,MacIntel,30.03003003,66d7945b1baad48e845df3ce,,,,,,,,,,,,,,,,,,,,,225.8055,225.8055,225.807,227.6858,1,0,right,1.3463,,227.6869,227.6881,,1,,227.6889,227.6896,,0,,1,227.6897,227.6897,227.6905,229.1807,0,32,32,32,1,0.6,0.4,0.6,0.4,1,0,,,,,,,,,,,,,,,,,,,,,,,,,,,,,,,,,,,,
,,66d5b85d1841cb833e814b36,66daf5a5e7a8ff02353aa2ab,2024-09-06_13h31.23.521,mdp,2024.2.1,MacIntel,30.03003003,66d7945b1baad48e845df3ce,,,,,,,,,,,,,,,,,,,,,229.1811,229.1811,229.1822,231.1948,1,0,right,1.4994,,231.1958,231.1969,,0,,231.1978,231.1986,,1,,1,231.1986,231.1986,231.1994,232.7039,0,33,33,33,1,0.2,0.8,0.8,0.2,1,0,,,,,,,,,,,,,,,,,,,,,,,,,,,,,,,,,,,,
,,66d5b85d1841cb833e814b36,66daf5a5e7a8ff02353aa2ab,2024-09-06_13h31.23.521,mdp,2024.2.1,MacIntel,30.03003003,66d7945b1baad48e845df3ce,,,,,,,,,,,,,,,,,,,,,232.7046,232.7046,232.706,233.8887,1,0,right,0.6519,,233.8899,233.891,,0,,233.8919,233.8927,,0,,1,233.8927,233.8927,233.8934,235.3819,0,34,34,34,1,0.2,0.8,0.8,0.2,1,0,,,,,,,,,,,,,,,,,,,,,,,,,,,,,,,,,,,,
,,66d5b85d1841cb833e814b36,66daf5a5e7a8ff02353aa2ab,2024-09-06_13h31.23.521,mdp,2024.2.1,MacIntel,30.03003003,66d7945b1baad48e845df3ce,,,,,,,,,,,,,,,,,,,,,235.3825,235.3825,235.3836,235.9459,1,0,right,0.0328,,235.9469,235.9481,,0,,235.949,235.9497,,0,,1,235.9498,235.9498,235.9506,237.4406,0,35,35,35,1,0.2,0.8,0.8,0.2,1,0,,,,,,,,,,,,,,,,,,,,,,,,,,,,,,,,,,,,
,,66d5b85d1841cb833e814b36,66daf5a5e7a8ff02353aa2ab,2024-09-06_13h31.23.521,mdp,2024.2.1,MacIntel,30.03003003,66d7945b1baad48e845df3ce,,,,,,,,,,,,,,,,,,,,,237.441,237.441,237.4426,238.4894,1,0,right,0.5205,,238.4906,238.4914,,0,,238.4927,238.4935,,1,,1,238.4935,238.4935,238.4943,239.9844,0,36,36,36,1,0.2,0.8,0.8,0.2,1,0,,,,,,,,,,,,,,,,,,,,,,,,,,,,,,,,,,,,
,,66d5b85d1841cb833e814b36,66daf5a5e7a8ff02353aa2ab,2024-09-06_13h31.23.521,mdp,2024.2.1,MacIntel,30.03003003,66d7945b1baad48e845df3ce,,,,,,,,,,,,,,,,,,,,,239.9853,239.9854,239.9865,241.2296,1,0,right,0.7001,,241.2307,241.2323,,1,,241.2332,241.2341,,0,,1,241.2342,241.2342,241.2358,242.7266,0,37,37,37,1,0.2,0.8,0.8,0.2,1,0,,,,,,,,,,,,,,,,,,,,,,,,,,,,,,,,,,,,
,,66d5b85d1841cb833e814b36,66daf5a5e7a8ff02353aa2ab,2024-09-06_13h31.23.521,mdp,2024.2.1,MacIntel,30.03003003,66d7945b1baad48e845df3ce,,,,,,,,,,,,,,,,,,,,,242.727,242.727,242.7286,244.0247,1,0,right,0.7756,,244.0259,244.0272,,1,,244.0283,244.0291,,0,,1,244.0292,244.0292,244.0301,245.5243,0,38,38,38,1,0.2,0.8,0.8,0.2,1,0,,,,,,,,,,,,,,,,,,,,,,,,,,,,,,,,,,,,
,,66d5b85d1841cb833e814b36,66daf5a5e7a8ff02353aa2ab,2024-09-06_13h31.23.521,mdp,2024.2.1,MacIntel,30.03003003,66d7945b1baad48e845df3ce,,,,,,,,,,,,,,,,,,,,,245.5248,245.5248,245.5259,247.0851,1,0,right,1.0165,,247.0863,247.0877,,0,,247.0893,247.0901,,0,,1,247.0901,247.0901,247.0909,248.5972,0,39,39,39,1,0.2,0.8,0.8,0.2,1,0,,,,,,,,,,,,,,,,,,,,,,,,,,,,,,,,,,,,
,,66d5b85d1841cb833e814b36,66daf5a5e7a8ff02353aa2ab,2024-09-06_13h31.23.521,mdp,2024.2.1,MacIntel,30.03003003,66d7945b1baad48e845df3ce,,,,,,,,,,,,,,,,,,,,,248.5981,248.5981,248.6003,249.9838,1,0,right,0.859,,249.9854,249.9863,,1,,249.9878,249.9887,,0,,1,249.9887,249.9887,249.9895,251.4767,0,40,40,40,1,0.2,0.8,0.8,0.2,1,0,,,,,,,,,,,,,,,,,,,,,,,,,,,,,,,,,,,,
,,66d5b85d1841cb833e814b36,66daf5a5e7a8ff02353aa2ab,2024-09-06_13h31.23.521,mdp,2024.2.1,MacIntel,30.03003003,66d7945b1baad48e845df3ce,,,,,,,,,,,,,,,,,,,,,251.4771,251.4771,251.4782,253.1136,1,0,right,1.1112,,253.1155,253.1166,,0,,253.1177,253.1191,,0,,1,253.1192,253.1192,253.1205,254.6078,0,41,41,41,1,0.2,0.8,0.8,0.2,1,0,,,,,,,,,,,,,,,,,,,,,,,,,,,,,,,,,,,,
,,66d5b85d1841cb833e814b36,66daf5a5e7a8ff02353aa2ab,2024-09-06_13h31.23.521,mdp,2024.2.1,MacIntel,30.03003003,66d7945b1baad48e845df3ce,,,,,,,,,,,,,,,,,,,,,254.6085,254.6086,254.6103,256.1237,1,0,right,0.9751,,256.1249,256.1257,,0,,256.1266,256.1274,,0,,1,256.1275,256.1275,256.1288,257.6209,0,42,42,42,1,0.2,0.8,0.8,0.2,1,0,,,,,,,,,,,,,,,,,,,,,,,,,,,,,,,,,,,,
,,66d5b85d1841cb833e814b36,66daf5a5e7a8ff02353aa2ab,2024-09-06_13h31.23.521,mdp,2024.2.1,MacIntel,30.03003003,66d7945b1baad48e845df3ce,,,,,,,,,,,,,,,,,,,,,257.6215,257.6215,257.6228,260.1512,1,0,right,2.0129,,260.1523,260.1552,,0,,260.156,260.1569,,0,,1,260.1571,260.1571,260.1579,261.6488,0,43,43,43,1,0.2,0.8,0.8,0.2,1,0,,,,,,,,,,,,,,,,,,,,,,,,,,,,,,,,,,,,
,,66d5b85d1841cb833e814b36,66daf5a5e7a8ff02353aa2ab,2024-09-06_13h31.23.521,mdp,2024.2.1,MacIntel,30.03003003,66d7945b1baad48e845df3ce,,,,,,,,,,,,,,,,,,,,,261.6494,261.6494,261.6504,284.1248,1,0,right,21.9577,,284.1516,284.1526,,0,,284.1553,284.157,,0,,1,284.157,284.157,284.1604,285.6595,0,44,44,44,1,0.2,0.8,0.8,0.2,1,0,,,,,,,,,,,,,,,,,,,,,,,,,,,,,,,,,,,,
,,66d5b85d1841cb833e814b36,66daf5a5e7a8ff02353aa2ab,2024-09-06_13h31.23.521,mdp,2024.2.1,MacIntel,30.03003003,66d7945b1baad48e845df3ce,,,,,,,,,,,,,,,,,,,,,285.6602,285.6602,285.6617,287.4993,1,1,right,1.176,,287.5007,287.5016,,1,,287.5027,287.5034,,1,,0,287.5034,287.5034,287.5042,288.9945,0,45,45,45,1,0.6,0.4,0.2,0.8,1,0,,,,,,,,,,,,,,,,,,,,,,,,,,,,,,,,,,,,
,,66d5b85d1841cb833e814b36,66daf5a5e7a8ff02353aa2ab,2024-09-06_13h31.23.521,mdp,2024.2.1,MacIntel,30.03003003,66d7945b1baad48e845df3ce,,,,,,,,,,,,,,,,,,,,,288.9956,288.9956,288.9974,290.7739,1,1,right,1.2481,,290.7754,290.7765,,0,,290.7778,290.7786,,1,,0,290.7786,290.7786,290.7795,292.274,0,46,46,46,1,0.6,0.4,0.2,0.8,1,0,,,,,,,,,,,,,,,,,,,,,,,,,,,,,,,,,,,,
,,66d5b85d1841cb833e814b36,66daf5a5e7a8ff02353aa2ab,2024-09-06_13h31.23.521,mdp,2024.2.1,MacIntel,30.03003003,66d7945b1baad48e845df3ce,,,,,,,,,,,,,,,,,,,,,292.2745,292.2745,292.2761,293.7019,1,0,right,0.9008,,293.703,293.7038,,1,,293.7047,293.7054,,1,,1,293.7055,293.7055,293.7062,295.2003,0,47,47,47,1,0.6,0.4,0.2,0.8,1,0,,,,,,,,,,,,,,,,,,,,,,,,,,,,,,,,,,,,
,,66d5b85d1841cb833e814b36,66daf5a5e7a8ff02353aa2ab,2024-09-06_13h31.23.521,mdp,2024.2.1,MacIntel,30.03003003,66d7945b1baad48e845df3ce,,,,,,,,,,,,,,,,,,,,,295.201,295.201,295.202,296.7167,1,0,right,0.981,,296.7178,296.7195,,0,,296.7204,296.7211,,0,,1,296.7211,296.7211,296.7218,298.2245,0,48,48,48,1,0.2,0.8,0.8,0.2,1,0,,,,,,,,,,,,,,,,,,,,,,,,,,,,,,,,,,,,
,,66d5b85d1841cb833e814b36,66daf5a5e7a8ff02353aa2ab,2024-09-06_13h31.23.521,mdp,2024.2.1,MacIntel,30.03003003,66d7945b1baad48e845df3ce,,,,,,,,,,,,,,,,,,,,,298.225,298.225,298.2262,299.3557,1,0,right,0.6031,,299.3568,299.3576,,0,,299.3584,299.3591,,0,,1,299.3592,299.3592,299.3599,300.8516,0,49,49,49,1,0.2,0.8,0.8,0.2,1,0,,,,,,,,,,,,,,,,,,,,,,,,,,,,,,,,,,,,
,,66d5b85d1841cb833e814b36,66daf5a5e7a8ff02353aa2ab,2024-09-06_13h31.23.521,mdp,2024.2.1,MacIntel,30.03003003,66d7945b1baad48e845df3ce,,,,,,,,,,,,,,,,,,,,,,,,,,,,,,,,,,,,,,,,,,,,,,,,,,,,,,,,300.8537,359.3829,0,0,0,8,1,imgs/lion.png,imgs/elephant.png,imgs/goat.png,imgs/giraffe.png,imgs/squirrel.png,,,,,,,,,,,,,,,,,,,,,,,,
,,66d5b85d1841cb833e814b36,66daf5a5e7a8ff02353aa2ab,2024-09-06_13h31.23.521,mdp,2024.2.1,MacIntel,30.03003003,66d7945b1baad48e845df3ce,,,,,,,,,,,,,,2,seqs/st2seq25.csv,359.4306,366.1547,space,6.2098,,366.1896,366.1896,366.1924,370.9379,1,1,right,4.2126,,370.9672,377.0374,1,0,right,377.0606,377.0615,,0,,1,377.0616,377.0616,377.0625,378.5704,0,0,0,0,1,0.6,0.4,0.4,0.6,,,,,,,,,,,,,,,5.5611,,0.2,0.8,0.8,0.2,0.4,0.6,0.8,0.2,1,0,,,,,,,,,,,,
,,66d5b85d1841cb833e814b36,66daf5a5e7a8ff02353aa2ab,2024-09-06_13h31.23.521,mdp,2024.2.1,MacIntel,30.03003003,66d7945b1baad48e845df3ce,,,,,,,,,,,,,,,,,,,,,378.5712,378.5712,378.5725,382.7969,1,0,right,3.7142,,382.8198,387.6475,1,0,right,387.672,387.6729,,0,,1,387.673,387.673,387.6741,389.173,0,1,1,1,1,0.6,0.4,0.4,0.6,,,,,,,,,,,,,,,4.2926,,0.2,0.8,0.8,0.2,0.4,0.6,0.8,0.2,1,0,,,,,,,,,,,,
,,66d5b85d1841cb833e814b36,66daf5a5e7a8ff02353aa2ab,2024-09-06_13h31.23.521,mdp,2024.2.1,MacIntel,30.03003003,66d7945b1baad48e845df3ce,,,,,,,,,,,,,,,,,,,,,389.1739,389.1739,389.1754,394.2778,1,0,right,4.5703,,394.3014,395.9186,1,0,right,395.9202,395.9211,,0,,1,395.9212,395.9212,395.9225,397.4147,0,2,2,2,1,0.8,0.2,0.8,0.2,,,,,,,,,,,,,,,1.1141,,0.2,0.8,0.8,0.2,0.4,0.6,0.8,0.2,1,0,,,,,,,,,,,,
,,66d5b85d1841cb833e814b36,66daf5a5e7a8ff02353aa2ab,2024-09-06_13h31.23.521,mdp,2024.2.1,MacIntel,30.03003003,66d7945b1baad48e845df3ce,,,,,,,,,,,,,,,,,,,,,397.4152,397.4152,397.4167,399.7474,1,0,right,1.8137,,399.7697,401.4245,1,0,right,401.4257,401.4265,,0,,1,401.4266,401.4266,401.428,402.9228,0,3,3,3,1,0.8,0.2,0.8,0.2,,,,,,,,,,,,,,,1.1429,,0.2,0.8,0.8,0.2,0.4,0.6,0.8,0.2,1,0,,,,,,,,,,,,
,,66d5b85d1841cb833e814b36,66daf5a5e7a8ff02353aa2ab,2024-09-06_13h31.23.521,mdp,2024.2.1,MacIntel,30.03003003,66d7945b1baad48e845df3ce,,,,,,,,,,,,,,,,,,,,,402.9234,402.9234,402.9249,405.086,1,1,right,1.6307,,405.0873,407.077,1,0,right,407.0783,407.0802,,1,,1,407.0803,407.0803,407.0827,408.5744,0,4,4,4,1,0.8,0.2,0.8,0.2,,,,,,,,,,,,,,,1.4438,,0.2,0.8,0.8,0.2,0.4,0.6,0.8,0.2,1,0,,,,,,,,,,,,
,,66d5b85d1841cb833e814b36,66daf5a5e7a8ff02353aa2ab,2024-09-06_13h31.23.521,mdp,2024.2.1,MacIntel,30.03003003,66d7945b1baad48e845df3ce,,,,,,,,,,,,,,,,,,,,,408.5752,408.5752,408.5775,411.4862,1,0,right,2.393,,411.4884,413.0968,1,0,right,413.0981,413.0994,,1,,1,413.0994,413.0994,413.1002,414.5968,0,5,5,5,1,0.8,0.2,0.8,0.2,,,,,,,,,,,,,,,1.0761,,0.2,0.8,0.8,0.2,0.4,0.6,0.8,0.2,1,0,,,,,,,,,,,,
,,66d5b85d1841cb833e814b36,66daf5a5e7a8ff02353aa2ab,2024-09-06_13h31.23.521,mdp,2024.2.1,MacIntel,30.03003003,66d7945b1baad48e845df3ce,,,,,,,,,,,,,,,,,,,,,414.5973,414.5973,414.5983,417.57,1,0,right,2.4473,,417.5713,419.5111,1,0,right,419.5133,419.5145,,0,,1,419.5146,419.5146,419.5161,421.0131,0,6,6,6,1,0.8,0.2,0.8,0.2,,,,,,,,,,,,,,,1.4292,,0.2,0.8,0.8,0.2,0.4,0.6,0.8,0.2,1,0,,,,,,,,,,,,
,,66d5b85d1841cb833e814b36,66daf5a5e7a8ff02353aa2ab,2024-09-06_13h31.23.521,mdp,2024.2.1,MacIntel,30.03003003,66d7945b1baad48e845df3ce,,,,,,,,,,,,,,,,,,,,,421.0137,421.0138,421.0148,423.4992,1,0,right,1.9557,,423.5006,425.3809,1,0,right,425.382,425.3832,,0,,1,425.3838,425.3839,425.3848,426.8783,0,7,7,7,1,0.8,0.2,0.8,0.2,,,,,,,,,,,,,,,1.3669,,0.2,0.8,0.8,0.2,0.4,0.6,0.8,0.2,1,0,,,,,,,,,,,,
,,66d5b85d1841cb833e814b36,66daf5a5e7a8ff02353aa2ab,2024-09-06_13h31.23.521,mdp,2024.2.1,MacIntel,30.03003003,66d7945b1baad48e845df3ce,,,,,,,,,,,,,,,,,,,,,426.8788,426.8789,426.8803,429.1373,1,0,right,1.7246,,429.1399,431.8026,1,0,right,431.8042,431.8059,,0,,1,431.8059,431.8059,431.8067,433.2967,0,8,8,8,1,0.8,0.2,0.8,0.2,,,,,,,,,,,,,,,2.1508,,0.2,0.8,0.8,0.2,0.4,0.6,0.8,0.2,1,0,,,,,,,,,,,,
,,66d5b85d1841cb833e814b36,66daf5a5e7a8ff02353aa2ab,2024-09-06_13h31.23.521,mdp,2024.2.1,MacIntel,30.03003003,66d7945b1baad48e845df3ce,,,,,,,,,,,,,,,,,,,,,433.2971,433.2971,433.2983,435.893,1,0,right,2.0755,,435.8941,437.7317,1,1,right,437.7328,437.7337,,0,,0,437.7337,437.7337,437.7345,439.2296,0,9,9,9,1,0.8,0.2,0.8,0.2,,,,,,,,,,,,,,,1.3145,,0.2,0.8,0.8,0.2,0.4,0.6,0.8,0.2,1,0,,,,,,,,,,,,
,,66d5b85d1841cb833e814b36,66daf5a5e7a8ff02353aa2ab,2024-09-06_13h31.23.521,mdp,2024.2.1,MacIntel,30.03003003,66d7945b1baad48e845df3ce,,,,,,,,,,,,,,,,,,,,,439.231,439.231,439.2339,441.1381,1,0,right,1.3817,,441.1401,442.5654,1,0,right,442.5665,442.5679,,1,,1,442.5679,442.5679,442.5689,444.0687,0,10,10,10,1,0.8,0.2,0.8,0.2,,,,,,,,,,,,,,,0.8862,,0.2,0.8,0.8,0.2,0.4,0.6,0.8,0.2,1,0,,,,,,,,,,,,
,,66d5b85d1841cb833e814b36,66daf5a5e7a8ff02353aa2ab,2024-09-06_13h31.23.521,mdp,2024.2.1,MacIntel,30.03003003,66d7945b1baad48e845df3ce,,,,,,,,,,,,,,,,,,,,,444.0695,444.0695,444.0712,446.4106,1,0,right,1.8109,,446.4359,447.8784,1,1,right,447.8797,447.881,,0,,0,447.8811,447.8811,447.882,449.3788,0,11,11,11,1,0.8,0.2,0.8,0.2,,,,,,,,,,,,,,,0.9122,,0.2,0.8,0.8,0.2,0.4,0.6,0.8,0.2,1,0,,,,,,,,,,,,
,,66d5b85d1841cb833e814b36,66daf5a5e7a8ff02353aa2ab,2024-09-06_13h31.23.521,mdp,2024.2.1,MacIntel,30.03003003,66d7945b1baad48e845df3ce,,,,,,,,,,,,,,,,,,,,,449.3797,449.3797,449.3818,451.483,1,0,right,1.5825,,451.4852,453.4501,1,0,right,453.4517,453.4529,,0,,1,453.4529,453.453,453.4542,454.9374,0,12,12,12,1,0.2,0.8,0.6,0.4,,,,,,,,,,,,,,,1.4348,,0.2,0.8,0.8,0.2,0.4,0.6,0.8,0.2,1,0,,,,,,,,,,,,
,,66d5b85d1841cb833e814b36,66daf5a5e7a8ff02353aa2ab,2024-09-06_13h31.23.521,mdp,2024.2.1,MacIntel,30.03003003,66d7945b1baad48e845df3ce,,,,,,,,,,,,,,,,,,,,,454.9385,454.9385,454.9402,459.7934,1,0,right,4.3337,,459.8279,460.9274,1,0,right,460.9287,460.93,,0,,1,460.9301,460.9301,460.931,462.4175,0,13,13,13,1,0.2,0.8,0.6,0.4,,,,,,,,,,,,,,,0.6028,,0.2,0.8,0.8,0.2,0.4,0.6,0.8,0.2,1,0,,,,,,,,,,,,
,,66d5b85d1841cb833e814b36,66daf5a5e7a8ff02353aa2ab,2024-09-06_13h31.23.521,mdp,2024.2.1,MacIntel,30.03003003,66d7945b1baad48e845df3ce,,,,,,,,,,,,,,,,,,,,,462.4179,462.418,462.4191,464.7383,1,1,right,1.8027,,464.7395,469.5072,1,0,right,469.5301,469.5309,,1,,1,469.531,469.531,469.5319,471.0366,0,14,14,14,1,0.2,0.8,0.6,0.4,,,,,,,,,,,,,,,4.2243,,0.2,0.8,0.8,0.2,0.4,0.6,0.8,0.2,1,0,,,,,,,,,,,,
,,66d5b85d1841cb833e814b36,66daf5a5e7a8ff02353aa2ab,2024-09-06_13h31.23.521,mdp,2024.2.1,MacIntel,30.03003003,66d7945b1baad48e845df3ce,,,,,,,,,,,,,,,,,,,,,471.037,471.037,471.0383,475.8554,1,1,right,4.2899,,475.8781,477.5211,1,0,right,477.5222,477.5235,,0,,1,477.5236,477.5236,477.5244,479.0171,0,15,15,15,1,0.2,0.8,0.6,0.4,,,,,,,,,,,,,,,1.1459,,0.2,0.8,0.8,0.2,0.4,0.6,0.8,0.2,1,0,,,,,,,,,,,,
,,66d5b85d1841cb833e814b36,66daf5a5e7a8ff02353aa2ab,2024-09-06_13h31.23.521,mdp,2024.2.1,MacIntel,30.03003003,66d7945b1baad48e845df3ce,,,,,,,,,,,,,,,,,,,,,479.0179,479.0179,479.0189,481.1418,1,0,right,1.6125,,481.1436,484.2674,1,0,right,484.2689,484.2699,,0,,1,484.27,484.27,484.2711,485.7651,0,16,16,16,1,0.2,0.8,0.6,0.4,,,,,,,,,,,,,,,2.5887,,0.2,0.8,0.8,0.2,0.4,0.6,0.8,0.2,1,0,,,,,,,,,,,,
,,66d5b85d1841cb833e814b36,66daf5a5e7a8ff02353aa2ab,2024-09-06_13h31.23.521,mdp,2024.2.1,MacIntel,30.03003003,66d7945b1baad48e845df3ce,,,,,,,,,,,,,,,,,,,,,485.7657,485.7658,485.7673,487.4592,1,0,right,1.1595,,487.4607,489.3939,1,0,right,489.3951,489.3959,,1,,1,489.3959,489.396,489.3968,490.8879,0,17,17,17,1,0.2,0.8,0.6,0.4,,,,,,,,,,,,,,,1.4024,,0.2,0.8,0.8,0.2,0.4,0.6,0.8,0.2,1,0,,,,,,,,,,,,
,,66d5b85d1841cb833e814b36,66daf5a5e7a8ff02353aa2ab,2024-09-06_13h31.23.521,mdp,2024.2.1,MacIntel,30.03003003,66d7945b1baad48e845df3ce,,,,,,,,,,,,,,,,,,,,,490.8885,490.8885,490.8898,492.6652,1,1,right,1.2591,,492.6664,495.3383,1,0,right,495.3599,495.3609,,0,,1,495.361,495.361,495.362,496.8681,0,18,18,18,1,0.2,0.8,0.6,0.4,,,,,,,,,,,,,,,2.1411,,0.2,0.8,0.8,0.2,0.4,0.6,0.8,0.2,1,0,,,,,,,,,,,,
,,66d5b85d1841cb833e814b36,66daf5a5e7a8ff02353aa2ab,2024-09-06_13h31.23.521,mdp,2024.2.1,MacIntel,30.03003003,66d7945b1baad48e845df3ce,,,,,,,,,,,,,,,,,,,,,496.8689,496.8689,496.8708,499.0256,1,1,right,1.644,,499.0278,501.824,1,0,right,501.8254,501.8271,,0,,1,501.8272,501.8272,501.8282,503.3169,0,19,19,19,1,0.2,0.8,0.6,0.4,,,,,,,,,,,,,,,2.2755,,0.2,0.8,0.8,0.2,0.4,0.6,0.8,0.2,1,0,,,,,,,,,,,,
,,66d5b85d1841cb833e814b36,66daf5a5e7a8ff02353aa2ab,2024-09-06_13h31.23.521,mdp,2024.2.1,MacIntel,30.03003003,66d7945b1baad48e845df3ce,,,,,,,,,,,,,,,,,,,,,503.3176,503.3176,503.3189,504.96,1,1,right,1.1285,,504.9611,506.7631,1,0,right,506.7643,506.765,,0,,1,506.7651,506.7651,506.7658,508.2561,0,20,20,20,1,0.2,0.8,0.6,0.4,,,,,,,,,,,,,,,1.2875,,0.2,0.8,0.8,0.2,0.4,0.6,0.8,0.2,1,0,,,,,,,,,,,,
,,66d5b85d1841cb833e814b36,66daf5a5e7a8ff02353aa2ab,2024-09-06_13h31.23.521,mdp,2024.2.1,MacIntel,30.03003003,66d7945b1baad48e845df3ce,,,,,,,,,,,,,,,,,,,,,508.257,508.257,508.2601,509.9755,1,0,right,1.1871,,509.9778,511.5287,1,0,right,511.5297,511.5305,,0,,1,511.5306,511.5306,511.5316,513.0224,0,21,21,21,1,0.2,0.8,0.6,0.4,,,,,,,,,,,,,,,1.0257,,0.2,0.8,0.8,0.2,0.4,0.6,0.8,0.2,1,0,,,,,,,,,,,,
,,66d5b85d1841cb833e814b36,66daf5a5e7a8ff02353aa2ab,2024-09-06_13h31.23.521,mdp,2024.2.1,MacIntel,30.03003003,66d7945b1baad48e845df3ce,,,,,,,,,,,,,,,,,,,,,513.0229,513.0229,513.024,514.7195,1,0,right,1.1802,,514.7208,516.074,1,1,right,516.0754,516.0762,,1,,0,516.0762,516.0762,516.077,517.5656,0,22,22,22,1,0.2,0.8,0.6,0.4,,,,,,,,,,,,,,,0.8328,,0.4,0.6,0.2,0.8,0.4,0.6,0.8,0.2,1,0,,,,,,,,,,,,
,,66d5b85d1841cb833e814b36,66daf5a5e7a8ff02353aa2ab,2024-09-06_13h31.23.521,mdp,2024.2.1,MacIntel,30.03003003,66d7945b1baad48e845df3ce,,,,,,,,,,,,,,,,,,,,,517.5662,517.5663,517.5677,520.2154,1,0,right,2.1178,,520.217,521.4515,1,1,right,521.453,521.4541,,0,,0,521.4542,521.4543,521.4554,522.9474,0,23,23,23,1,0.2,0.8,0.6,0.4,,,,,,,,,,,,,,,0.7041,,0.4,0.6,0.2,0.8,0.4,0.6,0.8,0.2,1,0,,,,,,,,,,,,
,,66d5b85d1841cb833e814b36,66daf5a5e7a8ff02353aa2ab,2024-09-06_13h31.23.521,mdp,2024.2.1,MacIntel,30.03003003,66d7945b1baad48e845df3ce,,,,,,,,,,,,,,,,,,,,,522.948,522.948,522.9492,525.1306,1,0,right,1.6569,,525.1876,526.5747,1,1,right,526.5757,526.5766,,1,,0,526.5766,526.5766,526.5775,528.0788,0,24,24,24,1,0.2,0.8,0.6,0.4,,,,,,,,,,,,,,,0.9194,,0.4,0.6,0.2,0.8,0.4,0.6,0.8,0.2,1,0,,,,,,,,,,,,
,,66d5b85d1841cb833e814b36,66daf5a5e7a8ff02353aa2ab,2024-09-06_13h31.23.521,mdp,2024.2.1,MacIntel,30.03003003,66d7945b1baad48e845df3ce,,,,,,,,,,,,,,,,,,,,,528.08,528.08,528.0811,529.9715,1,0,right,1.3504,,529.9733,531.3021,1,0,right,531.3033,531.304,,1,,1,531.3041,531.3041,531.3049,532.7928,0,25,25,25,1,0.2,0.8,0.6,0.4,,,,,,,,,,,,,,,0.8054,,0.4,0.6,0.2,0.8,0.4,0.6,0.8,0.2,1,0,,,,,,,,,,,,
,,66d5b85d1841cb833e814b36,66daf5a5e7a8ff02353aa2ab,2024-09-06_13h31.23.521,mdp,2024.2.1,MacIntel,30.03003003,66d7945b1baad48e845df3ce,,,,,,,,,,,,,,,,,,,,,532.7934,532.7934,532.7946,534.402,1,1,right,1.0758,,534.4031,535.9723,1,0,right,535.9735,535.9744,,0,,1,535.9744,535.9744,535.9752,537.4689,0,26,26,26,1,0.2,0.8,0.6,0.4,,,,,,,,,,,,,,,1.0508,,0.4,0.6,0.2,0.8,0.4,0.6,0.8,0.2,1,0,,,,,,,,,,,,
,,66d5b85d1841cb833e814b36,66daf5a5e7a8ff02353aa2ab,2024-09-06_13h31.23.521,mdp,2024.2.1,MacIntel,30.03003003,66d7945b1baad48e845df3ce,,,,,,,,,,,,,,,,,,,,,537.4694,537.4694,537.4705,539.1806,1,0,right,1.1825,,539.182,541.8889,1,1,right,541.9115,541.9124,,0,,0,541.9125,541.9125,541.9134,543.4061,0,27,27,27,1,0.2,0.8,0.6,0.4,,,,,,,,,,,,,,,2.1772,,0.4,0.6,0.2,0.8,0.4,0.6,0.8,0.2,1,0,,,,,,,,,,,,
,,66d5b85d1841cb833e814b36,66daf5a5e7a8ff02353aa2ab,2024-09-06_13h31.23.521,mdp,2024.2.1,MacIntel,30.03003003,66d7945b1baad48e845df3ce,,,,,,,,,,,,,,,,,,,,,543.4065,543.4065,543.4076,546.9536,1,0,right,3.0119,,546.9554,548.4728,1,1,right,548.474,548.4749,,0,,0,548.4749,548.4749,548.4762,549.9712,0,28,28,28,1,0.2,0.8,0.6,0.4,,,,,,,,,,,,,,,0.9965,,0.4,0.6,0.2,0.8,0.4,0.6,0.8,0.2,1,0,,,,,,,,,,,,
,,66d5b85d1841cb833e814b36,66daf5a5e7a8ff02353aa2ab,2024-09-06_13h31.23.521,mdp,2024.2.1,MacIntel,30.03003003,66d7945b1baad48e845df3ce,,,,,,,,,,,,,,,,,,,,,549.9718,549.9718,549.9729,553.2147,1,0,right,2.7139,,553.2159,554.9897,1,1,right,554.994,554.9949,,1,,0,554.9951,554.9951,554.9961,556.4854,0,29,29,29,1,0.2,0.8,0.6,0.4,,,,,,,,,,,,,,,1.2432,,0.4,0.6,0.2,0.8,0.4,0.6,0.8,0.2,1,0,,,,,,,,,,,,
,,66d5b85d1841cb833e814b36,66daf5a5e7a8ff02353aa2ab,2024-09-06_13h31.23.521,mdp,2024.2.1,MacIntel,30.03003003,66d7945b1baad48e845df3ce,,,,,,,,,,,,,,,,,,,,,556.4858,556.4858,556.487,559.5957,1,0,right,2.5747,,559.618,561.076,1,1,right,561.078,561.0792,,1,,0,561.0792,561.0792,561.0803,562.586,0,30,30,30,1,0.2,0.8,0.6,0.4,,,,,,,,,,,,,,,0.9481,,0.4,0.6,0.2,0.8,0.4,0.6,0.8,0.2,1,0,,,,,,,,,,,,
,,66d5b85d1841cb833e814b36,66daf5a5e7a8ff02353aa2ab,2024-09-06_13h31.23.521,mdp,2024.2.1,MacIntel,30.03003003,66d7945b1baad48e845df3ce,,,,,,,,,,,,,,,,,,,,,562.5867,562.5868,562.5883,564.4161,1,1,right,1.3157,,564.418,566.6314,1,1,right,566.6326,566.6335,,1,,0,566.6336,566.6336,566.6343,568.1224,0,31,31,31,1,0.2,0.8,0.6,0.4,,,,,,,,,,,,,,,1.6986,,0.4,0.6,0.2,0.8,0.4,0.6,0.8,0.2,1,0,,,,,,,,,,,,
,,66d5b85d1841cb833e814b36,66daf5a5e7a8ff02353aa2ab,2024-09-06_13h31.23.521,mdp,2024.2.1,MacIntel,30.03003003,66d7945b1baad48e845df3ce,,,,,,,,,,,,,,,,,,,,,568.1232,568.1232,568.1245,576.8721,1,1,right,8.2139,,576.9225,578.3412,1,0,right,578.3425,578.3446,,1,,1,578.3447,578.3448,578.3461,579.837,0,32,32,32,1,0.6,0.4,0.4,0.6,,,,,,,,,,,,,,,0.9411,,0.4,0.6,0.2,0.8,0.4,0.6,0.8,0.2,1,0,,,,,,,,,,,,
,,66d5b85d1841cb833e814b36,66daf5a5e7a8ff02353aa2ab,2024-09-06_13h31.23.521,mdp,2024.2.1,MacIntel,30.03003003,66d7945b1baad48e845df3ce,,,,,,,,,,,,,,,,,,,,,579.8376,579.8376,579.8394,582.9966,1,0,right,2.6173,,583.018,584.9803,1,0,right,584.9813,584.9838,,1,,1,584.9838,584.9838,584.9858,586.4708,0,33,33,33,1,0.6,0.4,0.4,0.6,,,,,,,,,,,,,,,1.4409,,0.8,0.2,0.6,0.4,0.4,0.6,0.8,0.2,1,0,,,,,,,,,,,,
,,66d5b85d1841cb833e814b36,66daf5a5e7a8ff02353aa2ab,2024-09-06_13h31.23.521,mdp,2024.2.1,MacIntel,30.03003003,66d7945b1baad48e845df3ce,,,,,,,,,,,,,,,,,,,,,586.4717,586.4717,586.4736,588.6894,1,0,right,1.6963,,588.6904,590.5482,1,1,right,590.5492,590.5502,,0,,0,590.5502,590.5502,590.5511,592.0395,0,34,34,34,1,0.6,0.4,0.4,0.6,,,,,,,,,,,,,,,1.3368,,0.8,0.2,0.6,0.4,0.4,0.6,0.8,0.2,1,0,,,,,,,,,,,,
,,66d5b85d1841cb833e814b36,66daf5a5e7a8ff02353aa2ab,2024-09-06_13h31.23.521,mdp,2024.2.1,MacIntel,30.03003003,66d7945b1baad48e845df3ce,,,,,,,,,,,,,,,,,,,,,592.0401,592.0401,592.0418,593.8595,1,1,right,1.2905,,593.8618,595.5707,1,0,right,595.5724,595.5737,,0,,1,595.5737,595.5737,595.5748,597.078,0,35,35,35,1,0.6,0.4,0.4,0.6,,,,,,,,,,,,,,,1.1841,,0.8,0.2,0.6,0.4,0.4,0.6,0.8,0.2,1,0,,,,,,,,,,,,
,,66d5b85d1841cb833e814b36,66daf5a5e7a8ff02353aa2ab,2024-09-06_13h31.23.521,mdp,2024.2.1,MacIntel,30.03003003,66d7945b1baad48e845df3ce,,,,,,,,,,,,,,,,,,,,,597.0786,597.0786,597.08,598.8854,1,1,right,1.2898,,598.887,600.5746,1,1,right,600.5765,600.5773,,1,,0,600.5773,600.5773,600.5782,602.071,0,36,36,36,1,0.6,0.4,0.4,0.6,,,,,,,,,,,,,,,1.1583,,0.8,0.2,0.6,0.4,0.4,0.6,0.8,0.2,1,0,,,,,,,,,,,,
,,66d5b85d1841cb833e814b36,66daf5a5e7a8ff02353aa2ab,2024-09-06_13h31.23.521,mdp,2024.2.1,MacIntel,30.03003003,66d7945b1baad48e845df3ce,,,,,,,,,,,,,,,,,,,,,602.0718,602.0718,602.0735,603.8662,1,0,right,1.2813,,603.8689,605.9605,1,1,right,605.9616,605.9626,,1,,0,605.9626,605.9626,605.9635,607.4521,0,37,37,37,1,0.6,0.4,0.4,0.6,,,,,,,,,,,,,,,1.56,,0.8,0.2,0.6,0.4,0.4,0.6,0.8,0.2,1,0,,,,,,,,,,,,
,,66d5b85d1841cb833e814b36,66daf5a5e7a8ff02353aa2ab,2024-09-06_13h31.23.521,mdp,2024.2.1,MacIntel,30.03003003,66d7945b1baad48e845df3ce,,,,,,,,,,,,,,,,,,,,,607.4528,607.4528,607.4541,609.2394,1,0,right,1.23,,609.2406,610.7166,1,1,right,610.7182,610.7192,,0,,0,610.7193,610.7193,610.72,612.216,0,38,38,38,1,0.6,0.4,0.4,0.6,,,,,,,,,,,,,,,0.9444,,0.8,0.2,0.6,0.4,0.4,0.6,0.8,0.2,1,0,,,,,,,,,,,,
,,66d5b85d1841cb833e814b36,66daf5a5e7a8ff02353aa2ab,2024-09-06_13h31.23.521,mdp,2024.2.1,MacIntel,30.03003003,66d7945b1baad48e845df3ce,,,,,,,,,,,,,,,,,,,,,612.2167,612.2167,612.2178,613.6461,1,1,right,0.9035,,613.6474,614.772,1,0,right,614.773,614.7738,,0,,1,614.7739,614.7739,614.7749,616.2663,0,39,39,39,1,0.6,0.4,0.4,0.6,,,,,,,,,,,,,,,0.5929,,0.8,0.2,0.6,0.4,0.4,0.6,0.8,0.2,1,0,,,,,,,,,,,,
,,66d5b85d1841cb833e814b36,66daf5a5e7a8ff02353aa2ab,2024-09-06_13h31.23.521,mdp,2024.2.1,MacIntel,30.03003003,66d7945b1baad48e845df3ce,,,,,,,,,,,,,,,,,,,,,616.2668,616.2668,616.2679,617.4962,1,1,right,0.7005,,617.4973,618.9834,1,0,right,618.9846,618.9861,,1,,1,618.9861,618.9861,618.9869,620.477,0,40,40,40,1,0.6,0.4,0.4,0.6,,,,,,,,,,,,,,,0.965,,0.8,0.2,0.6,0.4,0.4,0.6,0.8,0.2,1,0,,,,,,,,,,,,
,,66d5b85d1841cb833e814b36,66daf5a5e7a8ff02353aa2ab,2024-09-06_13h31.23.521,mdp,2024.2.1,MacIntel,30.03003003,66d7945b1baad48e845df3ce,,,,,,,,,,,,,,,,,,,,,620.4774,620.4774,620.4784,622.1144,1,1,right,1.1036,,622.1158,623.6181,1,0,right,623.6203,623.6211,,0,,1,623.6211,623.6211,623.6221,625.1103,0,41,41,41,1,0.8,0.2,0.6,0.4,,,,,,,,,,,,,,,0.9705,,0.8,0.2,0.6,0.4,0.4,0.6,0.8,0.2,1,0,,,,,,,,,,,,
,,66d5b85d1841cb833e814b36,66daf5a5e7a8ff02353aa2ab,2024-09-06_13h31.23.521,mdp,2024.2.1,MacIntel,30.03003003,66d7945b1baad48e845df3ce,,,,,,,,,,,,,,,,,,,,,625.1109,625.111,625.1125,626.4141,1,1,right,0.7689,,626.4153,627.8886,1,0,right,627.8897,627.8904,,1,,1,627.8905,627.8905,627.8914,629.3792,0,42,42,42,1,0.8,0.2,0.6,0.4,,,,,,,,,,,,,,,0.9445,,0.8,0.2,0.6,0.4,0.4,0.6,0.8,0.2,1,0,,,,,,,,,,,,
,,66d5b85d1841cb833e814b36,66daf5a5e7a8ff02353aa2ab,2024-09-06_13h31.23.521,mdp,2024.2.1,MacIntel,30.03003003,66d7945b1baad48e845df3ce,,,,,,,,,,,,,,,,,,,,,629.38,629.38,629.3814,631.156,1,0,right,1.2552,,631.1573,632.643,1,0,right,632.6453,632.6463,,0,,1,632.6464,632.6464,632.6476,634.1346,0,43,43,43,1,0.8,0.2,0.6,0.4,,,,,,,,,,,,,,,0.9612,,0.8,0.2,0.6,0.4,0.4,0.6,0.8,0.2,1,0,,,,,,,,,,,,
,,66d5b85d1841cb833e814b36,66daf5a5e7a8ff02353aa2ab,2024-09-06_13h31.23.521,mdp,2024.2.1,MacIntel,30.03003003,66d7945b1baad48e845df3ce,,,,,,,,,,,,,,,,,,,,,634.1351,634.1351,634.1367,635.7311,1,1,right,1.0778,,635.7323,637.0079,1,0,right,637.0093,637.0105,,0,,1,637.0106,637.0106,637.0114,638.4987,0,44,44,44,1,0.8,0.2,0.6,0.4,,,,,,,,,,,,,,,0.7367,,0.8,0.2,0.6,0.4,0.4,0.6,0.8,0.2,1,0,,,,,,,,,,,,
,,66d5b85d1841cb833e814b36,66daf5a5e7a8ff02353aa2ab,2024-09-06_13h31.23.521,mdp,2024.2.1,MacIntel,30.03003003,66d7945b1baad48e845df3ce,,,,,,,,,,,,,,,,,,,,,638.4991,638.4991,638.5003,639.9712,1,1,right,0.9274,,639.9725,641.5319,1,1,right,641.533,641.5348,,0,,0,641.5352,641.5352,641.5364,643.031,0,45,45,45,1,0.8,0.2,0.6,0.4,,,,,,,,,,,,,,,1.0377,,0.4,0.6,0.8,0.2,0.4,0.6,0.8,0.2,1,0,,,,,,,,,,,,
,,66d5b85d1841cb833e814b36,66daf5a5e7a8ff02353aa2ab,2024-09-06_13h31.23.521,mdp,2024.2.1,MacIntel,30.03003003,66d7945b1baad48e845df3ce,,,,,,,,,,,,,,,,,,,,,643.0319,643.0319,643.0336,644.8853,1,1,right,1.3278,,644.8869,646.4759,1,0,right,646.4773,646.4783,,0,,1,646.4784,646.4784,646.4794,647.9674,0,46,46,46,1,0.8,0.2,0.6,0.4,,,,,,,,,,,,,,,1.0769,,0.4,0.6,0.8,0.2,0.4,0.6,0.8,0.2,1,0,,,,,,,,,,,,
,,66d5b85d1841cb833e814b36,66daf5a5e7a8ff02353aa2ab,2024-09-06_13h31.23.521,mdp,2024.2.1,MacIntel,30.03003003,66d7945b1baad48e845df3ce,,,,,,,,,,,,,,,,,,,,,647.9681,647.9681,647.9691,649.7352,1,0,right,1.2456,,649.7372,652.6268,1,1,right,652.6278,652.6294,,0,,0,652.6294,652.6294,652.6304,654.1294,0,47,47,47,1,0.8,0.2,0.6,0.4,,,,,,,,,,,,,,,2.357,,0.4,0.6,0.8,0.2,0.4,0.6,0.8,0.2,1,0,,,,,,,,,,,,
,,66d5b85d1841cb833e814b36,66daf5a5e7a8ff02353aa2ab,2024-09-06_13h31.23.521,mdp,2024.2.1,MacIntel,30.03003003,66d7945b1baad48e845df3ce,,,,,,,,,,,,,,,,,,,,,654.1302,654.1302,654.1321,656.497,1,0,right,1.8544,,656.4982,657.6462,1,1,right,657.6477,657.6487,,1,,0,657.6488,657.6488,657.6503,659.1461,0,48,48,48,1,0.8,0.2,0.6,0.4,,,,,,,,,,,,,,,0.6148,,0.4,0.6,0.8,0.2,0.4,0.6,0.8,0.2,1,0,,,,,,,,,,,,
,,66d5b85d1841cb833e814b36,66daf5a5e7a8ff02353aa2ab,2024-09-06_13h31.23.521,mdp,2024.2.1,MacIntel,30.03003003,66d7945b1baad48e845df3ce,,,,,,,,,,,,,,,,,,,,,659.1466,659.1466,659.1478,661.0582,1,1,right,1.3794,,661.0592,663.5223,1,1,right,663.5235,663.5246,,0,,0,663.5247,663.5247,663.5256,665.0156,0,49,49,49,1,0.8,0.2,0.6,0.4,,,,,,,,,,,,,,,1.9293,,0.4,0.6,0.8,0.2,0.4,0.6,0.8,0.2,1,0,,,,,,,,,,,,
,,66d5b85d1841cb833e814b36,66daf5a5e7a8ff02353aa2ab,2024-09-06_13h31.23.521,mdp,2024.2.1,MacIntel,30.03003003,66d7945b1baad48e845df3ce,,,,,,,,,,,,,,,,,,,,,,,,,,,,,,,,,,,,,,,,,,,,,,,,,,,,,,,,665.0156,723.5317,0,1,1,1,1,imgs/goat.png,imgs/elephant.png,imgs/kangaroo.png,imgs/bear.png,imgs/lion.png,,,,,,,,,,,,,,,,,,,,,,,,
,,66d5b85d1841cb833e814b36,66daf5a5e7a8ff02353aa2ab,2024-09-06_13h31.23.521,mdp,2024.2.1,MacIntel,30.03003003,66d7945b1baad48e845df3ce,,,,,,,,,,,,,,3,seqs/st3seq49.csv,723.554,726.0101,space,1.9287,,726.0207,726.0207,726.0221,731.3962,1,1,right,4.8458,,731.4184,733.241,1,1,right,733.2421,735.5403,1,1,right,0,735.5404,735.5404,735.5415,737.0356,0,0,0,0,1,0.2,0.8,0.6,0.4,,,,,,,,,,,,,,,1.2963,,0.6,0.4,0.6,0.4,0.2,0.8,0.6,0.4,,,1.7452,,0.2,0.8,0.2,0.8,0.6,0.4,0.2,0.8,1,0
,,66d5b85d1841cb833e814b36,66daf5a5e7a8ff02353aa2ab,2024-09-06_13h31.23.521,mdp,2024.2.1,MacIntel,30.03003003,66d7945b1baad48e845df3ce,,,,,,,,,,,,,,,,,,,,,737.0365,737.0365,737.0376,740.1018,1,0,right,2.5311,,740.1235,742.6181,1,0,right,742.6194,747.3273,1,1,right,0,747.3274,747.3274,747.3489,748.817,0,1,1,1,1,0.2,0.8,0.6,0.4,,,,,,,,,,,,,,,1.991,,0.6,0.4,0.6,0.4,0.2,0.8,0.6,0.4,,,4.1574,,0.2,0.8,0.2,0.8,0.6,0.4,0.2,0.8,1,0
,,66d5b85d1841cb833e814b36,66daf5a5e7a8ff02353aa2ab,2024-09-06_13h31.23.521,mdp,2024.2.1,MacIntel,30.03003003,66d7945b1baad48e845df3ce,,,,,,,,,,,,,,,,,,,,,748.8179,748.8179,748.8195,752.7879,1,0,right,3.4389,,752.8094,754.6604,1,0,right,754.6616,756.6533,1,1,right,0,756.6534,756.6534,756.6548,758.1481,0,2,2,2,1,0.2,0.8,0.6,0.4,,,,,,,,,,,,,,,1.3486,,0.6,0.4,0.6,0.4,0.4,0.6,0.2,0.8,,,1.4668,,0.2,0.8,0.2,0.8,0.6,0.4,0.2,0.8,1,0
,,66d5b85d1841cb833e814b36,66daf5a5e7a8ff02353aa2ab,2024-09-06_13h31.23.521,mdp,2024.2.1,MacIntel,30.03003003,66d7945b1baad48e845df3ce,,,,,,,,,,,,,,,,,,,,,758.149,758.1492,758.1507,760.9374,1,0,right,2.2704,,760.9389,762.6745,1,0,right,762.6755,764.2991,1,1,right,0,764.2993,764.2993,764.3005,765.7911,0,3,3,3,1,0.2,0.8,0.6,0.4,,,,,,,,,,,,,,,1.2097,,0.6,0.4,0.6,0.4,0.4,0.6,0.2,0.8,,,1.0661,,0.2,0.8,0.2,0.8,0.6,0.4,0.2,0.8,1,0
,,66d5b85d1841cb833e814b36,66daf5a5e7a8ff02353aa2ab,2024-09-06_13h31.23.521,mdp,2024.2.1,MacIntel,30.03003003,66d7945b1baad48e845df3ce,,,,,,,,,,,,,,,,,,,,,765.7922,765.7923,765.7939,769.1844,1,0,right,2.8648,,769.2068,770.7914,1,1,right,770.793,772.4115,1,1,right,0,772.4115,772.4115,772.413,773.8994,0,4,4,4,1,0.2,0.8,0.6,0.4,,,,,,,,,,,,,,,1.0833,,0.6,0.4,0.6,0.4,0.4,0.6,0.2,0.8,,,1.0767,,0.2,0.8,0.2,0.8,0.6,0.4,0.2,0.8,1,0
,,66d5b85d1841cb833e814b36,66daf5a5e7a8ff02353aa2ab,2024-09-06_13h31.23.521,mdp,2024.2.1,MacIntel,30.03003003,66d7945b1baad48e845df3ce,,,,,,,,,,,,,,,,,,,,,773.9003,773.9004,773.9021,776.7146,1,1,right,2.2761,,776.736,780.2963,1,0,right,780.318,782.7505,1,1,right,0,782.7505,782.7506,782.7523,784.2464,0,5,5,5,1,0.2,0.8,0.6,0.4,,,,,,,,,,,,,,,3.0635,,0.6,0.4,0.6,0.4,0.4,0.6,0.2,0.8,,,1.9233,,0.2,0.8,0.2,0.8,0.6,0.4,0.2,0.8,1,0
,,66d5b85d1841cb833e814b36,66daf5a5e7a8ff02353aa2ab,2024-09-06_13h31.23.521,mdp,2024.2.1,MacIntel,30.03003003,66d7945b1baad48e845df3ce,,,,,,,,,,,,,,,,,,,,,784.247,784.247,784.2484,786.5894,1,0,right,1.8225,,786.5907,789.5569,1,1,right,789.5582,791.2437,1,1,right,0,791.2438,791.2438,791.2451,792.7354,0,6,6,6,1,0.2,0.8,0.6,0.4,,,,,,,,,,,,,,,2.4295,,0.6,0.4,0.6,0.4,0.4,0.6,0.2,0.8,,,1.1572,,0.2,0.8,0.2,0.8,0.6,0.4,0.2,0.8,1,0
,,66d5b85d1841cb833e814b36,66daf5a5e7a8ff02353aa2ab,2024-09-06_13h31.23.521,mdp,2024.2.1,MacIntel,30.03003003,66d7945b1baad48e845df3ce,,,,,,,,,,,,,,,,,,,,,792.7362,792.7362,792.7378,795.8113,1,0,right,2.5555,,795.8129,798.3423,1,0,right,798.3641,800.0774,1,1,right,0,800.0774,800.0774,800.0785,801.5689,0,7,7,7,1,0.2,0.8,0.6,0.4,,,,,,,,,,,,,,,2.0105,,0.6,0.4,0.6,0.4,0.4,0.6,0.2,0.8,,,1.2011,,0.2,0.8,0.2,0.8,0.6,0.4,0.2,0.8,1,0
,,66d5b85d1841cb833e814b36,66daf5a5e7a8ff02353aa2ab,2024-09-06_13h31.23.521,mdp,2024.2.1,MacIntel,30.03003003,66d7945b1baad48e845df3ce,,,,,,,,,,,,,,,,,,,,,801.5697,801.5698,801.5711,803.9787,1,0,right,1.8864,,803.9809,807.2388,1,0,right,807.2622,809.045,1,1,right,0,809.0451,809.0451,809.0461,810.5498,0,8,8,8,1,0.2,0.8,0.6,0.4,,,,,,,,,,,,,,,2.7474,,0.6,0.4,0.6,0.4,0.4,0.6,0.2,0.8,,,1.2719,,0.2,0.8,0.2,0.8,0.6,0.4,0.2,0.8,1,0
,,66d5b85d1841cb833e814b36,66daf5a5e7a8ff02353aa2ab,2024-09-06_13h31.23.521,mdp,2024.2.1,MacIntel,30.03003003,66d7945b1baad48e845df3ce,,,,,,,,,,,,,,,,,,,,,810.5503,810.5504,810.5514,812.2286,1,0,right,1.1469,,812.2305,814.191,1,0,right,814.192,815.4686,1,1,right,0,815.4686,815.4686,815.4703,816.9574,0,9,9,9,1,0.2,0.8,0.6,0.4,,,,,,,,,,,,,,,1.4334,,0.6,0.4,0.6,0.4,0.4,0.6,0.2,0.8,,,0.7609,,0.2,0.8,0.2,0.8,0.6,0.4,0.2,0.8,1,0
,,66d5b85d1841cb833e814b36,66daf5a5e7a8ff02353aa2ab,2024-09-06_13h31.23.521,mdp,2024.2.1,MacIntel,30.03003003,66d7945b1baad48e845df3ce,,,,,,,,,,,,,,,,,,,,,816.958,816.958,816.9593,819.4038,1,0,right,1.9127,,819.4053,821.1275,1,0,right,821.1297,822.1631,1,1,right,0,822.1631,822.1631,822.1648,823.6625,0,10,10,10,1,0.2,0.8,0.6,0.4,,,,,,,,,,,,,,,1.1924,,0.6,0.4,0.6,0.4,0.4,0.6,0.2,0.8,,,0.5186,,0.2,0.8,0.2,0.8,0.6,0.4,0.2,0.8,1,0
,,66d5b85d1841cb833e814b36,66daf5a5e7a8ff02353aa2ab,2024-09-06_13h31.23.521,mdp,2024.2.1,MacIntel,30.03003003,66d7945b1baad48e845df3ce,,,,,,,,,,,,,,,,,,,,,823.663,823.663,823.6643,824.6787,1,1,right,0.4839,,824.6823,826.1875,1,1,right,826.1884,827.2435,1,0,right,1,827.2437,827.2437,827.2454,828.7364,0,11,11,11,1,0.2,0.8,0.6,0.4,,,,,,,,,,,,,,,0.9726,,0.6,0.4,0.6,0.4,0.4,0.6,0.2,0.8,,,0.5185,,0.2,0.8,0.2,0.8,0.6,0.4,0.2,0.8,1,0
,,66d5b85d1841cb833e814b36,66daf5a5e7a8ff02353aa2ab,2024-09-06_13h31.23.521,mdp,2024.2.1,MacIntel,30.03003003,66d7945b1baad48e845df3ce,,,,,,,,,,,,,,,,,,,,,828.7371,828.7371,828.7387,830.5256,1,1,right,1.2663,,830.5265,831.8101,1,1,right,831.8113,833.3614,1,1,right,0,833.3615,833.3615,833.3628,834.8624,0,12,12,12,1,0.2,0.8,0.6,0.4,,,,,,,,,,,,,,,0.7451,,0.6,0.4,0.6,0.4,0.8,0.2,0.4,0.6,,,1.0166,,0.2,0.8,0.2,0.8,0.6,0.4,0.2,0.8,1,0
,,66d5b85d1841cb833e814b36,66daf5a5e7a8ff02353aa2ab,2024-09-06_13h31.23.521,mdp,2024.2.1,MacIntel,30.03003003,66d7945b1baad48e845df3ce,,,,,,,,,,,,,,,,,,,,,834.8627,834.8627,834.8639,836.4973,1,0,right,1.1233,,836.4984,839.3485,1,0,right,839.35,840.6402,1,0,right,1,840.6402,840.6402,840.6415,842.1355,0,13,13,13,1,0.2,0.8,0.6,0.4,,,,,,,,,,,,,,,2.317,,0.6,0.4,0.6,0.4,0.8,0.2,0.4,0.6,,,0.7624,,0.2,0.8,0.2,0.8,0.6,0.4,0.2,0.8,1,0
,,66d5b85d1841cb833e814b36,66daf5a5e7a8ff02353aa2ab,2024-09-06_13h31.23.521,mdp,2024.2.1,MacIntel,30.03003003,66d7945b1baad48e845df3ce,,,,,,,,,,,,,,,,,,,,,842.1364,842.1364,842.1381,844.3162,1,0,right,1.6508,,844.3172,845.7195,1,0,right,845.7206,850.3958,1,1,right,0,850.396,850.396,850.4183,851.8871,0,14,14,14,1,0.2,0.8,0.6,0.4,,,,,,,,,,,,,,,0.8783,,0.6,0.4,0.6,0.4,0.8,0.2,0.4,0.6,,,4.1542,,0.2,0.8,0.2,0.8,0.4,0.6,0.6,0.4,1,0
,,66d5b85d1841cb833e814b36,66daf5a5e7a8ff02353aa2ab,2024-09-06_13h31.23.521,mdp,2024.2.1,MacIntel,30.03003003,66d7945b1baad48e845df3ce,,,,,,,,,,,,,,,,,,,,,851.888,851.888,851.8896,854.8561,1,0,right,2.4458,,854.8773,856.3824,1,0,right,856.3859,857.7727,1,1,right,0,857.7728,857.7728,857.7738,859.2785,0,15,15,15,1,0.2,0.8,0.6,0.4,,,,,,,,,,,,,,,0.9997,,0.6,0.4,0.6,0.4,0.8,0.2,0.4,0.6,,,0.858,,0.2,0.8,0.2,0.8,0.4,0.6,0.6,0.4,1,0
,,66d5b85d1841cb833e814b36,66daf5a5e7a8ff02353aa2ab,2024-09-06_13h31.23.521,mdp,2024.2.1,MacIntel,30.03003003,66d7945b1baad48e845df3ce,,,,,,,,,,,,,,,,,,,,,859.2794,859.2794,859.2809,862.0559,1,1,right,2.2596,,862.0573,863.5012,1,1,right,863.5022,865.8248,1,1,right,0,865.8249,865.8249,865.8264,867.3199,0,16,16,16,1,0.2,0.8,0.6,0.4,,,,,,,,,,,,,,,0.9145,,0.6,0.4,0.6,0.4,0.8,0.2,0.4,0.6,,,1.7908,,0.2,0.8,0.2,0.8,0.4,0.6,0.6,0.4,1,0
,,66d5b85d1841cb833e814b36,66daf5a5e7a8ff02353aa2ab,2024-09-06_13h31.23.521,mdp,2024.2.1,MacIntel,30.03003003,66d7945b1baad48e845df3ce,,,,,,,,,,,,,,,,,,,,,867.3208,867.3208,867.3229,869.2492,1,0,right,1.3965,,869.2508,871.1448,1,0,right,871.1466,872.7567,1,1,right,0,872.757,872.757,872.758,874.2563,0,17,17,17,1,0.2,0.8,0.6,0.4,,,,,,,,,,,,,,,1.3587,,0.6,0.4,0.6,0.4,0.8,0.2,0.4,0.6,,,1.0792,,0.2,0.8,0.2,0.8,0.4,0.6,0.6,0.4,1,0
,,66d5b85d1841cb833e814b36,66daf5a5e7a8ff02353aa2ab,2024-09-06_13h31.23.521,mdp,2024.2.1,MacIntel,30.03003003,66d7945b1baad48e845df3ce,,,,,,,,,,,,,,,,,,,,,874.2576,874.2576,874.2593,879.4969,1,0,right,4.7133,,879.5195,881.0902,1,0,right,881.0941,883.006,1,1,right,0,883.0061,883.0061,883.0076,884.4952,0,18,18,18,1,0.2,0.8,0.6,0.4,,,,,,,,,,,,,,,1.0663,,0.6,0.4,0.6,0.4,0.8,0.2,0.4,0.6,,,1.3846,,0.2,0.8,0.2,0.8,0.4,0.6,0.6,0.4,1,0
,,66d5b85d1841cb833e814b36,66daf5a5e7a8ff02353aa2ab,2024-09-06_13h31.23.521,mdp,2024.2.1,MacIntel,30.03003003,66d7945b1baad48e845df3ce,,,,,,,,,,,,,,,,,,,,,884.4961,884.4961,884.4977,887.3974,1,0,right,2.3674,,887.4241,888.5043,1,0,right,888.5066,889.5978,1,1,right,0,889.5979,889.5979,889.6002,891.0886,0,19,19,19,1,0.2,0.8,0.6,0.4,,,,,,,,,,,,,,,0.5756,,0.6,0.4,0.6,0.4,0.8,0.2,0.4,0.6,,,0.5632,,0.2,0.8,0.2,0.8,0.4,0.6,0.6,0.4,1,0
,,66d5b85d1841cb833e814b36,66daf5a5e7a8ff02353aa2ab,2024-09-06_13h31.23.521,mdp,2024.2.1,MacIntel,30.03003003,66d7945b1baad48e845df3ce,,,,,,,,,,,,,,,,,,,,,891.0891,891.0891,891.0901,893.0424,1,1,right,1.4365,,893.0434,894.7879,1,1,right,894.789,895.9187,1,1,right,0,895.9188,895.9188,895.9209,897.4107,0,20,20,20,1,0.2,0.8,0.6,0.4,,,,,,,,,,,,,,,1.2097,,0.6,0.4,0.6,0.4,0.8,0.2,0.4,0.6,,,0.5962,,0.2,0.8,0.2,0.8,0.4,0.6,0.6,0.4,1,0
,,66d5b85d1841cb833e814b36,66daf5a5e7a8ff02353aa2ab,2024-09-06_13h31.23.521,mdp,2024.2.1,MacIntel,30.03003003,66d7945b1baad48e845df3ce,,,,,,,,,,,,,,,,,,,,,897.4115,897.4115,897.4127,900.653,1,1,right,2.7119,,900.6542,903.066,1,1,right,903.0874,905.6081,1,0,right,1,905.6082,905.6082,905.6098,907.1081,0,21,21,21,1,0.2,0.8,0.6,0.4,,,,,,,,,,,,,,,1.8842,,0.6,0.4,0.6,0.4,0.6,0.4,0.2,0.8,,,2.0087,,0.2,0.8,0.2,0.8,0.4,0.6,0.6,0.4,1,0
,,66d5b85d1841cb833e814b36,66daf5a5e7a8ff02353aa2ab,2024-09-06_13h31.23.521,mdp,2024.2.1,MacIntel,30.03003003,66d7945b1baad48e845df3ce,,,,,,,,,,,,,,,,,,,,,907.109,907.109,907.1107,909.5374,1,0,right,1.9038,,909.5388,911.5054,1,0,right,911.5066,913.9809,1,1,right,0,913.9811,913.9811,913.9828,915.4783,0,22,22,22,1,0.2,0.8,0.6,0.4,,,,,,,,,,,,,,,1.4439,,0.6,0.4,0.6,0.4,0.6,0.4,0.2,0.8,,,1.9543,,0.2,0.8,0.2,0.8,0.8,0.2,0.2,0.8,1,0
,,66d5b85d1841cb833e814b36,66daf5a5e7a8ff02353aa2ab,2024-09-06_13h31.23.521,mdp,2024.2.1,MacIntel,30.03003003,66d7945b1baad48e845df3ce,,,,,,,,,,,,,,,,,,,,,915.4791,915.4791,915.4807,918.1741,1,0,right,2.1769,,918.1753,919.3394,1,0,right,919.3406,921.4348,1,1,right,0,921.435,921.435,921.4365,922.9297,0,23,23,23,1,0.2,0.8,0.6,0.4,,,,,,,,,,,,,,,0.6452,,0.6,0.4,0.6,0.4,0.6,0.4,0.2,0.8,,,1.5775,,0.2,0.8,0.2,0.8,0.8,0.2,0.2,0.8,1,0
,,66d5b85d1841cb833e814b36,66daf5a5e7a8ff02353aa2ab,2024-09-06_13h31.23.521,mdp,2024.2.1,MacIntel,30.03003003,66d7945b1baad48e845df3ce,,,,,,,,,,,,,,,,,,,,,922.9304,922.9305,922.932,925.6953,1,1,right,2.2302,,925.7167,928.2343,1,1,right,928.2361,929.3181,1,1,right,0,929.3182,929.3182,929.3192,930.8135,0,24,24,24,1,0.2,0.8,0.6,0.4,,,,,,,,,,,,,,,1.9954,,0.6,0.4,0.6,0.4,0.6,0.4,0.2,0.8,,,0.551,,0.2,0.8,0.2,0.8,0.8,0.2,0.2,0.8,1,0
,,66d5b85d1841cb833e814b36,66daf5a5e7a8ff02353aa2ab,2024-09-06_13h31.23.521,mdp,2024.2.1,MacIntel,30.03003003,66d7945b1baad48e845df3ce,,,,,,,,,,,,,,,,,,,,,930.8139,930.814,930.8153,932.9338,1,1,right,1.5892,,932.9349,935.8479,1,1,right,935.8707,941.4933,1,1,right,0,941.4934,941.4934,941.522,942.9863,0,25,25,25,1,0.2,0.8,0.6,0.4,,,,,,,,,,,,,,,2.3907,,0.6,0.4,0.6,0.4,0.6,0.4,0.2,0.8,,,5.1305,,0.2,0.8,0.2,0.8,0.8,0.2,0.2,0.8,1,0
,,66d5b85d1841cb833e814b36,66daf5a5e7a8ff02353aa2ab,2024-09-06_13h31.23.521,mdp,2024.2.1,MacIntel,30.03003003,66d7945b1baad48e845df3ce,,,,,,,,,,,,,,,,,,,,,942.9869,942.9869,942.9888,945.9682,1,0,right,2.449,,945.9904,948.0212,1,0,right,948.0224,949.8276,1,0,right,1,949.8277,949.8277,949.8287,951.3176,0,26,26,26,1,0.2,0.8,0.6,0.4,,,,,,,,,,,,,,,1.5116,,0.6,0.4,0.6,0.4,0.6,0.4,0.2,0.8,,,1.2784,,0.2,0.8,0.2,0.8,0.8,0.2,0.2,0.8,1,0
,,66d5b85d1841cb833e814b36,66daf5a5e7a8ff02353aa2ab,2024-09-06_13h31.23.521,mdp,2024.2.1,MacIntel,30.03003003,66d7945b1baad48e845df3ce,,,,,,,,,,,,,,,,,,,,,951.3185,951.3185,951.3203,953.8553,1,0,right,2.0142,,953.8772,955.8125,1,1,right,955.8135,958.992,1,1,right,0,958.992,958.9921,958.9936,960.4827,0,27,27,27,1,0.2,0.8,0.6,0.4,,,,,,,,,,,,,,,1.4211,,0.6,0.4,0.6,0.4,0.6,0.4,0.2,0.8,,,2.6425,,0.2,0.8,0.2,0.8,0.8,0.2,0.2,0.8,1,0
,,66d5b85d1841cb833e814b36,66daf5a5e7a8ff02353aa2ab,2024-09-06_13h31.23.521,mdp,2024.2.1,MacIntel,30.03003003,66d7945b1baad48e845df3ce,,,,,,,,,,,,,,,,,,,,,960.4832,960.4832,960.4844,963.0187,1,0,right,2.0142,,963.0221,965.3465,1,1,right,965.3476,967.3014,1,1,right,0,967.3015,967.3015,967.3028,968.8643,0,28,28,28,1,0.2,0.8,0.6,0.4,,,,,,,,,,,,,,,1.7945,,0.6,0.4,0.6,0.4,0.6,0.4,0.2,0.8,,,1.4267,,0.2,0.8,0.2,0.8,0.8,0.2,0.2,0.8,1,0
,,66d5b85d1841cb833e814b36,66daf5a5e7a8ff02353aa2ab,2024-09-06_13h31.23.521,mdp,2024.2.1,MacIntel,30.03003003,66d7945b1baad48e845df3ce,,,,,,,,,,,,,,,,,,,,,968.8651,968.8651,968.8665,970.628,1,1,right,1.2345,,970.6301,973.7578,1,1,right,973.7881,975.3931,1,1,right,0,975.3933,975.3934,975.3953,976.8969,0,29,29,29,1,0.2,0.8,0.6,0.4,,,,,,,,,,,,,,,2.5825,,0.6,0.4,0.6,0.4,0.2,0.8,0.4,0.6,,,1.1094,,0.2,0.8,0.2,0.8,0.8,0.2,0.2,0.8,1,0
,,66d5b85d1841cb833e814b36,66daf5a5e7a8ff02353aa2ab,2024-09-06_13h31.23.521,mdp,2024.2.1,MacIntel,30.03003003,66d7945b1baad48e845df3ce,,,,,,,,,,,,,,,,,,,,,976.8977,976.8977,976.8989,979.562,1,0,right,2.1176,,979.5632,982.5044,1,1,right,982.528,984.7351,1,0,right,1,984.7351,984.7351,984.7365,986.2375,0,30,30,30,1,0.8,0.2,0.2,0.8,,,,,,,,,,,,,,,2.4136,,0.6,0.4,0.6,0.4,0.2,0.8,0.4,0.6,,,1.7154,,0.2,0.8,0.2,0.8,0.8,0.2,0.2,0.8,1,0
,,66d5b85d1841cb833e814b36,66daf5a5e7a8ff02353aa2ab,2024-09-06_13h31.23.521,mdp,2024.2.1,MacIntel,30.03003003,66d7945b1baad48e845df3ce,,,,,,,,,,,,,,,,,,,,,986.2379,986.2379,986.2395,988.8206,1,1,right,2.052,,988.8223,990.797,1,0,right,990.7981,992.5561,1,0,right,1,992.5561,992.5561,992.5574,994.0678,0,31,31,31,1,0.8,0.2,0.2,0.8,,,,,,,,,,,,,,,1.4492,,0.6,0.4,0.6,0.4,0.2,0.8,0.4,0.6,,,1.1917,,0.2,0.8,0.2,0.8,0.8,0.2,0.2,0.8,1,0
,,66d5b85d1841cb833e814b36,66daf5a5e7a8ff02353aa2ab,2024-09-06_13h31.23.521,mdp,2024.2.1,MacIntel,30.03003003,66d7945b1baad48e845df3ce,,,,,,,,,,,,,,,,,,,,,994.0685,994.0685,994.0698,995.8478,1,1,right,1.2484,,995.8492,997.5371,1,1,right,997.5387,999.2232,1,1,right,0,999.2232,999.2232,999.2249,1000.7192,0,32,32,32,1,0.8,0.2,0.2,0.8,,,,,,,,,,,,,,,1.1772,,0.6,0.4,0.6,0.4,0.2,0.8,0.4,0.6,,,1.1458,,0.2,0.8,0.2,0.8,0.8,0.2,0.2,0.8,1,0
,,66d5b85d1841cb833e814b36,66daf5a5e7a8ff02353aa2ab,2024-09-06_13h31.23.521,mdp,2024.2.1,MacIntel,30.03003003,66d7945b1baad48e845df3ce,,,,,,,,,,,,,,,,,,,,,1000.721,1000.721,1000.723,1002.6234,1,1,right,1.3841,,1002.6253,1004.7291,1,0,right,1004.7304,1006.5877,1,1,right,0,1006.5878,1006.5878,1006.5899,1008.0825,0,33,33,33,1,0.8,0.2,0.2,0.8,,,,,,,,,,,,,,,1.5684,,0.6,0.4,0.6,0.4,0.2,0.8,0.4,0.6,,,1.3245,,0.2,0.8,0.2,0.8,0.8,0.2,0.2,0.8,1,0
,,66d5b85d1841cb833e814b36,66daf5a5e7a8ff02353aa2ab,2024-09-06_13h31.23.521,mdp,2024.2.1,MacIntel,30.03003003,66d7945b1baad48e845df3ce,,,,,,,,,,,,,,,,,,,,,1008.0833,1008.0833,1008.0844,1009.508,1,1,right,0.8256,,1009.5092,1011.6261,1,1,right,1011.6283,1013.1402,1,1,right,0,1013.1403,1013.1403,1013.1414,1014.6375,0,34,34,34,1,0.4,0.6,0.6,0.4,,,,,,,,,,,,,,,1.599,,0.6,0.4,0.6,0.4,0.2,0.8,0.4,0.6,,,0.9815,,0.2,0.8,0.2,0.8,0.8,0.2,0.2,0.8,1,0
,,66d5b85d1841cb833e814b36,66daf5a5e7a8ff02353aa2ab,2024-09-06_13h31.23.521,mdp,2024.2.1,MacIntel,30.03003003,66d7945b1baad48e845df3ce,,,,,,,,,,,,,,,,,,,,,1014.6393,1014.6394,1014.6427,1045.7099,1,0,right,30.5426,0.0003,1045.7309,1047.3516,1,1,right,1047.3545,1049.2335,1,1,right,0,1049.2336,1049.2336,1049.2347,1050.7374,0,35,35,35,1,0.4,0.6,0.6,0.4,,,,,,,,,,,,,,,1.1247,,0.6,0.4,0.6,0.4,0.2,0.8,0.4,0.6,,,1.3584,,0.2,0.8,0.2,0.8,0.8,0.2,0.2,0.8,1,0
,,66d5b85d1841cb833e814b36,66daf5a5e7a8ff02353aa2ab,2024-09-06_13h31.23.521,mdp,2024.2.1,MacIntel,30.03003003,66d7945b1baad48e845df3ce,,,,,,,,,,,,,,,,,,,,,1050.7383,1050.7383,1050.7402,1073.5789,1,1,right,22.3155,,1073.5805,1074.9233,1,0,right,1074.9245,1076.6227,1,1,right,0,1076.6227,1076.6227,1076.6241,1078.1147,0,36,36,36,1,0.6,0.4,0.2,0.8,,,,,,,,,,,,,,,0.7818,,0.6,0.4,0.6,0.4,0.2,0.8,0.4,0.6,,,1.1685,,0.2,0.8,0.2,0.8,0.8,0.2,0.2,0.8,1,0
,,66d5b85d1841cb833e814b36,66daf5a5e7a8ff02353aa2ab,2024-09-06_13h31.23.521,mdp,2024.2.1,MacIntel,30.03003003,66d7945b1baad48e845df3ce,,,,,,,,,,,,,,,,,,,,,1078.1157,1078.1157,1078.1169,1102.0518,1,1,right,23.1768,,1102.0683,1104.1481,1,0,right,1104.1495,1106.0248,1,1,right,0,1106.0248,1106.0248,1106.0264,1107.5214,0,37,37,37,1,0.6,0.4,0.2,0.8,,,,,,,,,,,,,,,1.5691,,0.6,0.4,0.6,0.4,0.2,0.8,0.4,0.6,,,1.3475,,0.2,0.8,0.2,0.8,0.8,0.2,0.2,0.8,1,0
,,66d5b85d1841cb833e814b36,66daf5a5e7a8ff02353aa2ab,2024-09-06_13h31.23.521,mdp,2024.2.1,MacIntel,30.03003003,66d7945b1baad48e845df3ce,,,,,,,,,,,,,,,,,,,,,1107.522,1107.5221,1107.523,1111.5706,1,0,right,3.5141,,1111.5877,1113.3793,1,1,right,1113.3804,1115.412,1,0,right,1,1115.4121,1115.4121,1115.4133,1116.8742,0,38,38,38,1,0.6,0.4,0.2,0.8,,,,,,,,,,,,,,,1.2756,,0.6,0.4,0.6,0.4,0.2,0.8,0.4,0.6,,,1.5008,,0.2,0.8,0.2,0.8,0.8,0.2,0.2,0.8,1,0
,,66d5b85d1841cb833e814b36,66daf5a5e7a8ff02353aa2ab,2024-09-06_13h31.23.521,mdp,2024.2.1,MacIntel,30.03003003,66d7945b1baad48e845df3ce,,,,,,,,,,,,,,,,,,,,,1116.8749,1116.8749,1116.8759,1119.294,1,1,right,1.8885,,1119.2954,1121.2148,1,1,right,1121.2158,1122.5368,1,1,right,0,1122.5368,1122.5368,1122.5379,1124.039,0,39,39,39,1,0.6,0.4,0.2,0.8,,,,,,,,,,,,,,,1.3749,,0.6,0.4,0.6,0.4,0.2,0.8,0.4,0.6,,,0.8065,,0.2,0.8,0.2,0.8,0.8,0.2,0.2,0.8,1,0
,,66d5b85d1841cb833e814b36,66daf5a5e7a8ff02353aa2ab,2024-09-06_13h31.23.521,mdp,2024.2.1,MacIntel,30.03003003,66d7945b1baad48e845df3ce,,,,,,,,,,,,,,,,,,,,,1124.0404,1124.0404,1124.0419,1125.3673,1,0,right,0.7976,,1125.3684,1126.5427,1,0,right,1126.5442,1128.8927,1,1,right,0,1128.8929,1128.8929,1128.8949,1130.3875,0,40,40,40,1,0.6,0.4,0.2,0.8,,,,,,,,,,,,,,,0.6498,,0.6,0.4,0.6,0.4,0.2,0.8,0.4,0.6,,,1.8216,,0.2,0.8,0.2,0.8,0.8,0.2,0.2,0.8,1,0
,,66d5b85d1841cb833e814b36,66daf5a5e7a8ff02353aa2ab,2024-09-06_13h31.23.521,mdp,2024.2.1,MacIntel,30.03003003,66d7945b1baad48e845df3ce,,,,,,,,,,,,,,,,,,,,,1130.3883,1130.3883,1130.3893,1132.7528,1,0,right,1.8424,,1132.7539,1134.6286,1,0,right,1134.6307,1137.6587,1,0,right,1,1137.6589,1137.6589,1137.6602,1139.1497,0,41,41,41,1,0.6,0.4,0.2,0.8,,,,,,,,,,,,,,,1.348,,0.6,0.4,0.6,0.4,0.2,0.8,0.4,0.6,,,2.5079,,0.2,0.8,0.2,0.8,0.8,0.2,0.2,0.8,1,0
,,66d5b85d1841cb833e814b36,66daf5a5e7a8ff02353aa2ab,2024-09-06_13h31.23.521,mdp,2024.2.1,MacIntel,30.03003003,66d7945b1baad48e845df3ce,,,,,,,,,,,,,,,,,,,,,1139.1505,1139.1505,1139.1532,1143.2616,1,0,right,3.5971,,1143.2846,1145.4982,1,1,right,1145.5004,1147.1506,1,1,right,0,1147.1506,1147.1506,1147.1517,1148.6408,0,42,42,42,1,0.6,0.4,0.2,0.8,,,,,,,,,,,,,,,1.7067,,0.6,0.4,0.6,0.4,0.2,0.8,0.4,0.6,,,1.1289,,0.2,0.8,0.2,0.8,0.8,0.2,0.2,0.8,1,0
,,66d5b85d1841cb833e814b36,66daf5a5e7a8ff02353aa2ab,2024-09-06_13h31.23.521,mdp,2024.2.1,MacIntel,30.03003003,66d7945b1baad48e845df3ce,,,,,,,,,,,,,,,,,,,,,1148.6415,1148.6415,1148.643,1150.2413,1,1,right,1.0861,,1150.2432,1152.0378,1,1,right,1152.0399,1153.4324,1,1,right,0,1153.4325,1153.4325,1153.4342,1154.9274,0,43,43,43,1,0.6,0.4,0.2,0.8,,,,,,,,,,,,,,,1.2626,,0.6,0.4,0.6,0.4,0.2,0.8,0.4,0.6,,,0.8606,,0.2,0.8,0.2,0.8,0.8,0.2,0.2,0.8,1,0
,,66d5b85d1841cb833e814b36,66daf5a5e7a8ff02353aa2ab,2024-09-06_13h31.23.521,mdp,2024.2.1,MacIntel,30.03003003,66d7945b1baad48e845df3ce,,,,,,,,,,,,,,,,,,,,,1154.928,1154.928,1154.9297,1156.811,1,1,right,1.3422,,1156.8125,1158.8185,1,0,right,1158.821,1160.0796,1,1,right,0,1160.0798,1160.0798,1160.0823,1161.5766,0,44,44,44,1,0.6,0.4,0.2,0.8,,,,,,,,,,,,,,,1.4751,,0.6,0.4,0.6,0.4,0.2,0.8,0.4,0.6,,,0.74,,0.4,0.6,0.8,0.2,0.8,0.2,0.2,0.8,1,0
,,66d5b85d1841cb833e814b36,66daf5a5e7a8ff02353aa2ab,2024-09-06_13h31.23.521,mdp,2024.2.1,MacIntel,30.03003003,66d7945b1baad48e845df3ce,,,,,,,,,,,,,,,,,,,,,1161.5777,1161.5777,1161.5806,1163.2264,1,1,right,1.1164,,1163.2283,1165.2223,1,0,right,1165.224,1166.5853,1,0,right,1,1166.5853,1166.5853,1166.5867,1168.08,0,45,45,45,1,0.6,0.4,0.2,0.8,,,,,,,,,,,,,,,1.429,,0.6,0.4,0.6,0.4,0.2,0.8,0.4,0.6,,,0.8349,,0.4,0.6,0.8,0.2,0.8,0.2,0.2,0.8,1,0
,,66d5b85d1841cb833e814b36,66daf5a5e7a8ff02353aa2ab,2024-09-06_13h31.23.521,mdp,2024.2.1,MacIntel,30.03003003,66d7945b1baad48e845df3ce,,,,,,,,,,,,,,,,,,,,,1168.0807,1168.0807,1168.0822,1171.5663,1,1,right,2.9384,,1171.5924,1173.3529,1,0,right,1173.354,1174.4795,1,0,right,1,1174.4796,1174.4796,1174.4809,1175.9747,0,46,46,46,1,0.6,0.4,0.2,0.8,,,,,,,,,,,,,,,1.2688,,0.6,0.4,0.6,0.4,0.2,0.8,0.4,0.6,,,0.5994,,0.4,0.6,0.8,0.2,0.4,0.6,0.6,0.4,1,0
,,66d5b85d1841cb833e814b36,66daf5a5e7a8ff02353aa2ab,2024-09-06_13h31.23.521,mdp,2024.2.1,MacIntel,30.03003003,66d7945b1baad48e845df3ce,,,,,,,,,,,,,,,,,,,,,1175.9756,1175.9756,1175.9786,1178.222,1,0,right,1.7178,,1178.2237,1179.6179,1,0,right,1179.6191,1181.4073,1,0,right,1,1181.4073,1181.4073,1181.4084,1182.9096,0,47,47,47,1,0.6,0.4,0.2,0.8,,,,,,,,,,,,,,,0.845,,0.6,0.4,0.6,0.4,0.2,0.8,0.4,0.6,,,1.2591,,0.4,0.6,0.8,0.2,0.4,0.6,0.6,0.4,1,0
,,66d5b85d1841cb833e814b36,66daf5a5e7a8ff02353aa2ab,2024-09-06_13h31.23.521,mdp,2024.2.1,MacIntel,30.03003003,66d7945b1baad48e845df3ce,,,,,,,,,,,,,,,,,,,,,1182.9104,1182.9104,1182.9115,1185.1169,1,0,right,1.6776,,1185.1675,1186.8293,1,0,right,1186.8309,1188.4416,1,1,right,0,1188.4417,1188.4417,1188.4428,1189.9207,0,48,48,48,1,0.6,0.4,0.2,0.8,,,,,,,,,,,,,,,1.1973,,0.6,0.4,0.6,0.4,0.4,0.6,0.8,0.2,,,1.0789,,0.4,0.6,0.8,0.2,0.4,0.6,0.6,0.4,1,0
,,66d5b85d1841cb833e814b36,66daf5a5e7a8ff02353aa2ab,2024-09-06_13h31.23.521,mdp,2024.2.1,MacIntel,30.03003003,66d7945b1baad48e845df3ce,,,,,,,,,,,,,,,,,,,,,1189.9218,1189.9218,1189.9229,1192.1993,1,1,right,1.7611,,1192.2012,1193.8442,1,0,right,1193.8457,1195.509,1,0,right,1,1195.5091,1195.5091,1195.511,1197.0049,0,49,49,49,1,0.6,0.4,0.2,0.8,,,,,,,,,,,,,,,1.1109,,0.6,0.4,0.6,0.4,0.4,0.6,0.8,0.2,,,1.1341,,0.4,0.6,0.8,0.2,0.4,0.6,0.6,0.4,1,0
,,66d5b85d1841cb833e814b36,66daf5a5e7a8ff02353aa2ab,2024-09-06_13h31.23.521,mdp,2024.2.1,MacIntel,30.03003003,66d7945b1baad48e845df3ce,,,,,,,,,,,,,,,,,,,,,,,,,,,,,,,,,,,,,,,,,,,,,,,,,,,,,,,,1197.0053,1255.5338,0,2,2,3,1,imgs/squirrel.png,imgs/lion.png,imgs/pig.png,imgs/bear.png,imgs/dog.png,,,,,,,,,,,,,,,,,,,,,,,,
,,66d5b85d1841cb833e814b36,66daf5a5e7a8ff02353aa2ab,2024-09-06_13h31.23.521,mdp,2024.2.1,MacIntel,30.03003003,66d7945b1baad48e845df3ce,,,,,,,,,,,,,,3,seqs/st3seq43.csv,1255.5571,1263.3163,space,7.2314,,1263.3486,1263.3487,1263.3509,1271.2487,1,0,right,7.3447,,1271.2703,1273.5401,1,0,right,1273.5418,1276.3015,1,1,right,0,1276.3016,1276.3016,1276.3025,1277.7941,0,0,0,0,1,0.6,0.4,0.4,0.6,,,,,,,,,,,,,,,1.7469,,0.2,0.8,0.8,0.2,0.6,0.4,0.4,0.6,,,2.2149,,0.8,0.2,0.4,0.6,0.6,0.4,0.2,0.8,1,0
,,66d5b85d1841cb833e814b36,66daf5a5e7a8ff02353aa2ab,2024-09-06_13h31.23.521,mdp,2024.2.1,MacIntel,30.03003003,66d7945b1baad48e845df3ce,,,,,,,,,,,,,,,,,,,,,1277.7947,1277.7947,1277.7958,1280.2048,1,0,right,1.8813,,1280.2061,1282.0187,1,1,right,1282.0208,1283.6636,1,1,right,0,1283.6638,1283.6638,1283.6651,1285.1549,0,1,1,1,1,0.6,0.4,0.4,0.6,,,,,,,,,,,,,,,1.2871,,0.4,0.6,0.2,0.8,0.6,0.4,0.4,0.6,,,1.0974,,0.8,0.2,0.4,0.6,0.6,0.4,0.2,0.8,1,0
,,66d5b85d1841cb833e814b36,66daf5a5e7a8ff02353aa2ab,2024-09-06_13h31.23.521,mdp,2024.2.1,MacIntel,30.03003003,66d7945b1baad48e845df3ce,,,,,,,,,,,,,,,,,,,,,1285.1557,1285.1557,1285.1566,1294.0486,1,1,right,8.3646,,1294.0689,1296.2681,1,1,right,1296.2691,1298.3811,1,1,right,0,1298.3812,1298.3812,1298.3822,1299.8641,0,2,2,2,1,0.6,0.4,0.4,0.6,,,,,,,,,,,,,,,1.6756,,0.4,0.6,0.2,0.8,0.6,0.4,0.4,0.6,,,1.577,,0.8,0.2,0.4,0.6,0.6,0.4,0.2,0.8,1,0
,,66d5b85d1841cb833e814b36,66daf5a5e7a8ff02353aa2ab,2024-09-06_13h31.23.521,mdp,2024.2.1,MacIntel,30.03003003,66d7945b1baad48e845df3ce,,,,,,,,,,,,,,,,,,,,,1299.8648,1299.8648,1299.8661,1301.4391,1,1,right,1.0477,,1301.4413,1302.7316,1,0,right,1302.7331,1303.9243,1,0,right,1,1303.9247,1303.9247,1303.9283,1305.4184,0,3,3,3,1,0.6,0.4,0.4,0.6,,,,,,,,,,,,,,,0.7583,,0.4,0.6,0.2,0.8,0.6,0.4,0.4,0.6,,,0.6549,,0.8,0.2,0.4,0.6,0.6,0.4,0.2,0.8,1,0
,,66d5b85d1841cb833e814b36,66daf5a5e7a8ff02353aa2ab,2024-09-06_13h31.23.521,mdp,2024.2.1,MacIntel,30.03003003,66d7945b1baad48e845df3ce,,,,,,,,,,,,,,,,,,,,,1305.4189,1305.4189,1305.4199,1306.8053,1,1,right,0.8648,,1306.8066,1308.2503,1,1,right,1308.2514,1309.2458,1,1,right,0,1309.2458,1309.2458,1309.2468,1310.7436,0,4,4,4,1,0.6,0.4,0.4,0.6,,,,,,,,,,,,,,,0.9141,,0.4,0.6,0.2,0.8,0.6,0.4,0.4,0.6,,,0.4623,,0.8,0.2,0.4,0.6,0.6,0.4,0.2,0.8,1,0
,,66d5b85d1841cb833e814b36,66daf5a5e7a8ff02353aa2ab,2024-09-06_13h31.23.521,mdp,2024.2.1,MacIntel,30.03003003,66d7945b1baad48e845df3ce,,,,,,,,,,,,,,,,,,,,,1310.7443,1310.7443,1310.7454,1312.6581,1,1,right,1.4011,,1312.6594,1314.0507,1,1,right,1314.0517,1315.2162,1,1,right,0,1315.2163,1315.2165,1315.2175,1316.7097,0,5,5,5,1,0.6,0.4,0.4,0.6,,,,,,,,,,,,,,,0.8605,,0.4,0.6,0.2,0.8,0.6,0.4,0.4,0.6,,,0.6293,,0.8,0.2,0.4,0.6,0.6,0.4,0.2,0.8,1,0
,,66d5b85d1841cb833e814b36,66daf5a5e7a8ff02353aa2ab,2024-09-06_13h31.23.521,mdp,2024.2.1,MacIntel,30.03003003,66d7945b1baad48e845df3ce,,,,,,,,,,,,,,,,,,,,,1316.7104,1316.7104,1316.7113,1319.3599,1,1,right,2.1165,,1319.3613,1321.2012,1,0,right,1321.2032,1323.9395,1,0,right,1,1323.9396,1323.9396,1323.9407,1325.4356,0,6,6,6,1,0.6,0.4,0.4,0.6,,,,,,,,,,,,,,,1.3133,,0.4,0.6,0.2,0.8,0.6,0.4,0.4,0.6,,,2.2016,,0.8,0.2,0.4,0.6,0.6,0.4,0.2,0.8,1,0
,,66d5b85d1841cb833e814b36,66daf5a5e7a8ff02353aa2ab,2024-09-06_13h31.23.521,mdp,2024.2.1,MacIntel,30.03003003,66d7945b1baad48e845df3ce,,,,,,,,,,,,,,,,,,,,,1325.4363,1325.4363,1325.4377,1329.5086,1,0,right,3.5507,,1329.5338,1332.3097,1,1,right,1332.3109,1334.059,1,1,right,0,1334.0592,1334.0592,1334.0605,1335.5508,0,7,7,7,1,0.6,0.4,0.4,0.6,,,,,,,,,,,,,,,2.2462,,0.4,0.6,0.2,0.8,0.6,0.4,0.4,0.6,,,1.2322,,0.8,0.2,0.4,0.6,0.6,0.4,0.2,0.8,1,0
,,66d5b85d1841cb833e814b36,66daf5a5e7a8ff02353aa2ab,2024-09-06_13h31.23.521,mdp,2024.2.1,MacIntel,30.03003003,66d7945b1baad48e845df3ce,,,,,,,,,,,,,,,,,,,,,1335.5512,1335.5513,1335.5525,1337.0939,1,0,right,1.0142,,1337.095,1339.1279,1,1,right,1339.1301,1341.1213,1,1,right,0,1341.1214,1341.1214,1341.1224,1342.611,0,8,8,8,1,0.6,0.4,0.4,0.6,,,,,,,,,,,,,,,1.5205,,0.4,0.6,0.2,0.8,0.6,0.4,0.4,0.6,,,1.4761,,0.8,0.2,0.4,0.6,0.6,0.4,0.2,0.8,1,0
,,66d5b85d1841cb833e814b36,66daf5a5e7a8ff02353aa2ab,2024-09-06_13h31.23.521,mdp,2024.2.1,MacIntel,30.03003003,66d7945b1baad48e845df3ce,,,,,,,,,,,,,,,,,,,,,1342.6117,1342.6117,1342.6127,1344.4595,1,0,right,1.3283,,1344.4616,1345.9884,1,1,right,1345.9894,1347.2468,1,0,right,1,1347.2469,1347.2469,1347.2478,1348.7477,0,9,9,9,1,0.6,0.4,0.4,0.6,,,,,,,,,,,,,,,0.9944,,0.4,0.6,0.2,0.8,0.6,0.4,0.4,0.6,,,0.7289,,0.8,0.2,0.4,0.6,0.2,0.8,0.6,0.4,1,0
,,66d5b85d1841cb833e814b36,66daf5a5e7a8ff02353aa2ab,2024-09-06_13h31.23.521,mdp,2024.2.1,MacIntel,30.03003003,66d7945b1baad48e845df3ce,,,,,,,,,,,,,,,,,,,,,1348.7487,1348.7487,1348.7503,1350.4722,1,0,right,1.1958,,1350.4732,1351.8748,1,1,right,1351.876,1353.053,1,1,right,0,1353.053,1353.053,1353.054,1354.5455,0,10,10,10,1,0.6,0.4,0.4,0.6,,,,,,,,,,,,,,,0.8795,,0.4,0.6,0.2,0.8,0.6,0.4,0.4,0.6,,,0.6558,,0.8,0.2,0.4,0.6,0.4,0.6,0.2,0.8,1,0
,,66d5b85d1841cb833e814b36,66daf5a5e7a8ff02353aa2ab,2024-09-06_13h31.23.521,mdp,2024.2.1,MacIntel,30.03003003,66d7945b1baad48e845df3ce,,,,,,,,,,,,,,,,,,,,,1354.5465,1354.5465,1354.5481,1356.1745,1,0,right,0.9671,,1356.1765,1357.2216,1,1,right,1357.2234,1358.3093,1,0,right,1,1358.3094,1358.3094,1358.3109,1359.8034,0,11,11,11,1,0.6,0.4,0.4,0.6,,,,,,,,,,,,,,,0.5238,,0.4,0.6,0.2,0.8,0.6,0.4,0.4,0.6,,,0.5688,,0.8,0.2,0.4,0.6,0.2,0.8,0.8,0.2,1,0
,,66d5b85d1841cb833e814b36,66daf5a5e7a8ff02353aa2ab,2024-09-06_13h31.23.521,mdp,2024.2.1,MacIntel,30.03003003,66d7945b1baad48e845df3ce,,,,,,,,,,,,,,,,,,,,,1359.8042,1359.8042,1359.8058,1361.0864,1,1,right,0.7507,,1361.0884,1362.4875,1,0,right,1362.4888,1364.9993,1,1,right,0,1364.9993,1364.9993,1365.0237,1366.4906,0,12,12,12,1,0.6,0.4,0.4,0.6,,,,,,,,,,,,,,,0.8712,,0.8,0.2,0.8,0.2,0.6,0.4,0.4,0.6,,,1.9879,,0.8,0.2,0.4,0.6,0.2,0.8,0.8,0.2,1,0
,,66d5b85d1841cb833e814b36,66daf5a5e7a8ff02353aa2ab,2024-09-06_13h31.23.521,mdp,2024.2.1,MacIntel,30.03003003,66d7945b1baad48e845df3ce,,,,,,,,,,,,,,,,,,,,,1366.4922,1366.4922,1366.4938,1368.684,1,1,right,1.6658,,1368.6854,1370.1145,1,0,right,1370.1157,1371.5587,1,1,right,0,1371.5588,1371.5588,1371.5601,1373.0492,0,13,13,13,1,0.6,0.4,0.4,0.6,,,,,,,,,,,,,,,0.8986,,0.8,0.2,0.8,0.2,0.6,0.4,0.4,0.6,,,0.9133,,0.8,0.2,0.4,0.6,0.2,0.8,0.8,0.2,1,0
,,66d5b85d1841cb833e814b36,66daf5a5e7a8ff02353aa2ab,2024-09-06_13h31.23.521,mdp,2024.2.1,MacIntel,30.03003003,66d7945b1baad48e845df3ce,,,,,,,,,,,,,,,,,,,,,1373.0497,1373.0497,1373.0508,1374.8005,1,0,right,1.2339,,1374.8016,1376.4605,1,0,right,1376.4614,1379.226,1,0,right,1,1379.226,1379.226,1379.247,1380.7216,0,14,14,14,1,0.6,0.4,0.4,0.6,,,,,,,,,,,,,,,1.126,,0.8,0.2,0.8,0.2,0.6,0.4,0.4,0.6,,,2.2518,,0.8,0.2,0.4,0.6,0.2,0.8,0.8,0.2,1,0
,,66d5b85d1841cb833e814b36,66daf5a5e7a8ff02353aa2ab,2024-09-06_13h31.23.521,mdp,2024.2.1,MacIntel,30.03003003,66d7945b1baad48e845df3ce,,,,,,,,,,,,,,,,,,,,,1380.7222,1380.7222,1380.7233,1382.73,1,1,right,1.4828,,1382.7314,1384.3838,1,1,right,1384.3849,1386.1924,1,1,right,0,1386.1924,1386.1924,1386.1938,1387.6843,0,15,15,15,1,0.6,0.4,0.4,0.6,,,,,,,,,,,,,,,1.1203,,0.8,0.2,0.8,0.2,0.6,0.4,0.4,0.6,,,1.2815,,0.8,0.2,0.4,0.6,0.2,0.8,0.8,0.2,1,0
,,66d5b85d1841cb833e814b36,66daf5a5e7a8ff02353aa2ab,2024-09-06_13h31.23.521,mdp,2024.2.1,MacIntel,30.03003003,66d7945b1baad48e845df3ce,,,,,,,,,,,,,,,,,,,,,1387.6851,1387.6851,1387.6867,1389.2185,1,0,right,1.0071,,1389.2197,1390.5391,1,0,right,1390.5407,1391.591,1,1,right,0,1391.5911,1391.5911,1391.592,1393.0864,0,16,16,16,1,0.6,0.4,0.4,0.6,,,,,,,,,,,,,,,0.7731,,0.8,0.2,0.8,0.2,0.6,0.4,0.4,0.6,,,0.5262,,0.6,0.4,0.2,0.8,0.2,0.8,0.8,0.2,1,0
,,66d5b85d1841cb833e814b36,66daf5a5e7a8ff02353aa2ab,2024-09-06_13h31.23.521,mdp,2024.2.1,MacIntel,30.03003003,66d7945b1baad48e845df3ce,,,,,,,,,,,,,,,,,,,,,1393.0871,1393.0871,1393.088,1394.2624,1,0,right,0.649,,1394.2639,1395.5647,1,0,right,1395.5657,1397.3498,1,0,right,1,1397.3499,1397.3499,1397.3513,1398.8501,0,17,17,17,1,0.6,0.4,0.4,0.6,,,,,,,,,,,,,,,0.7817,,0.8,0.2,0.8,0.2,0.6,0.4,0.4,0.6,,,1.2533,,0.6,0.4,0.2,0.8,0.2,0.8,0.8,0.2,1,0
,,66d5b85d1841cb833e814b36,66daf5a5e7a8ff02353aa2ab,2024-09-06_13h31.23.521,mdp,2024.2.1,MacIntel,30.03003003,66d7945b1baad48e845df3ce,,,,,,,,,,,,,,,,,,,,,1398.8505,1398.8505,1398.8516,1400.6374,1,1,right,1.2556,,1400.6395,1402.1461,1,0,right,1402.1474,1404.3153,1,1,right,0,1404.3154,1404.3154,1404.3173,1405.8168,0,18,18,18,1,0.6,0.4,0.4,0.6,,,,,,,,,,,,,,,0.9757,,0.8,0.2,0.8,0.2,0.6,0.4,0.4,0.6,,,1.633,,0.6,0.4,0.2,0.8,0.2,0.8,0.8,0.2,1,0
,,66d5b85d1841cb833e814b36,66daf5a5e7a8ff02353aa2ab,2024-09-06_13h31.23.521,mdp,2024.2.1,MacIntel,30.03003003,66d7945b1baad48e845df3ce,,,,,,,,,,,,,,,,,,,,,1405.8174,1405.8174,1405.8184,1412.6389,1,0,right,6.2997,,1412.6611,1414.0043,1,0,right,1414.0059,1415.3864,1,1,right,0,1415.3864,1415.3864,1415.3879,1416.865,0,19,19,19,1,0.6,0.4,0.4,0.6,,,,,,,,,,,,,,,0.8275,,0.8,0.2,0.8,0.2,0.6,0.4,0.4,0.6,,,0.8535,,0.6,0.4,0.2,0.8,0.2,0.8,0.8,0.2,1,0
,,66d5b85d1841cb833e814b36,66daf5a5e7a8ff02353aa2ab,2024-09-06_13h31.23.521,mdp,2024.2.1,MacIntel,30.03003003,66d7945b1baad48e845df3ce,,,,,,,,,,,,,,,,,,,,,1416.8662,1416.8662,1416.8681,1420.0589,1,1,right,2.6664,,1420.0809,1421.5082,1,0,right,1421.5105,1422.8987,1,1,right,0,1422.8988,1422.8988,1422.9003,1424.3915,0,20,20,20,1,0.6,0.4,0.4,0.6,,,,,,,,,,,,,,,0.9171,,0.8,0.2,0.8,0.2,0.6,0.4,0.4,0.6,,,0.8628,,0.6,0.4,0.2,0.8,0.2,0.8,0.8,0.2,1,0
,,66d5b85d1841cb833e814b36,66daf5a5e7a8ff02353aa2ab,2024-09-06_13h31.23.521,mdp,2024.2.1,MacIntel,30.03003003,66d7945b1baad48e845df3ce,,,,,,,,,,,,,,,,,,,,,1424.3922,1424.3923,1424.3933,1428.2123,1,1,right,3.2876,,1428.2328,1430.9467,1,1,right,1430.9477,1432.7221,1,0,right,1,1432.7221,1432.7222,1432.7238,1434.2147,0,21,21,21,1,0.6,0.4,0.4,0.6,,,,,,,,,,,,,,,2.2183,,0.8,0.2,0.8,0.2,0.6,0.4,0.4,0.6,,,1.248,,0.6,0.4,0.2,0.8,0.2,0.8,0.8,0.2,1,0
,,66d5b85d1841cb833e814b36,66daf5a5e7a8ff02353aa2ab,2024-09-06_13h31.23.521,mdp,2024.2.1,MacIntel,30.03003003,66d7945b1baad48e845df3ce,,,,,,,,,,,,,,,,,,,,,1434.2153,1434.2154,1434.2165,1436.0468,1,1,right,1.293,,1436.0481,1437.8275,1,1,right,1437.8287,1439.2985,1,1,right,0,1439.2986,1439.2986,1439.2995,1440.8012,0,22,22,22,1,0.6,0.4,0.4,0.6,,,,,,,,,,,,,,,1.2491,,0.8,0.2,0.8,0.2,0.6,0.4,0.4,0.6,,,0.9436,,0.6,0.4,0.2,0.8,0.4,0.6,0.2,0.8,1,0
,,66d5b85d1841cb833e814b36,66daf5a5e7a8ff02353aa2ab,2024-09-06_13h31.23.521,mdp,2024.2.1,MacIntel,30.03003003,66d7945b1baad48e845df3ce,,,,,,,,,,,,,,,,,,,,,1440.802,1440.802,1440.8032,1442.3296,1,0,right,1.0008,,1442.3311,1444.2401,1,0,right,1444.2413,1446.2546,1,1,right,0,1446.2546,1446.2546,1446.256,1447.7529,0,23,23,23,1,0.6,0.4,0.4,0.6,,,,,,,,,,,,,,,1.3751,,0.8,0.2,0.8,0.2,0.6,0.4,0.4,0.6,,,1.4749,,0.6,0.4,0.2,0.8,0.4,0.6,0.2,0.8,1,0
,,66d5b85d1841cb833e814b36,66daf5a5e7a8ff02353aa2ab,2024-09-06_13h31.23.521,mdp,2024.2.1,MacIntel,30.03003003,66d7945b1baad48e845df3ce,,,,,,,,,,,,,,,,,,,,,1447.7534,1447.7534,1447.7548,1449.2305,1,1,right,0.9485,,1449.2321,1451.1049,1,1,right,1451.1069,1453.3198,1,1,right,0,1453.3199,1453.3199,1453.3216,1454.8153,0,24,24,24,1,0.6,0.4,0.4,0.6,,,,,,,,,,,,,,,1.3402,,0.8,0.2,0.8,0.2,0.4,0.6,0.8,0.2,,,1.6764,,0.6,0.4,0.2,0.8,0.4,0.6,0.2,0.8,1,0
,,66d5b85d1841cb833e814b36,66daf5a5e7a8ff02353aa2ab,2024-09-06_13h31.23.521,mdp,2024.2.1,MacIntel,30.03003003,66d7945b1baad48e845df3ce,,,,,,,,,,,,,,,,,,,,,1454.816,1454.816,1454.8174,1456.395,1,1,right,1.05,,1456.3966,1457.4752,1,0,right,1457.4761,1458.4637,1,1,right,0,1458.4637,1458.4637,1458.466,1459.9464,0,25,25,25,1,0.6,0.4,0.4,0.6,,,,,,,,,,,,,,,0.5515,,0.8,0.2,0.8,0.2,0.4,0.6,0.8,0.2,,,0.4507,,0.6,0.4,0.2,0.8,0.4,0.6,0.2,0.8,1,0
,,66d5b85d1841cb833e814b36,66daf5a5e7a8ff02353aa2ab,2024-09-06_13h31.23.521,mdp,2024.2.1,MacIntel,30.03003003,66d7945b1baad48e845df3ce,,,,,,,,,,,,,,,,,,,,,1459.947,1459.947,1459.9479,1461.3439,1,1,right,0.8607,,1461.345,1463.5481,1,0,right,1463.549,1464.6713,1,0,right,1,1464.6714,1464.6714,1464.6726,1466.1668,0,26,26,26,1,0.6,0.4,0.4,0.6,,,,,,,,,,,,,,,1.6869,,0.8,0.2,0.8,0.2,0.4,0.6,0.8,0.2,,,0.5911,,0.6,0.4,0.2,0.8,0.4,0.6,0.2,0.8,1,0
,,66d5b85d1841cb833e814b36,66daf5a5e7a8ff02353aa2ab,2024-09-06_13h31.23.521,mdp,2024.2.1,MacIntel,30.03003003,66d7945b1baad48e845df3ce,,,,,,,,,,,,,,,,,,,,,1466.1673,1466.1674,1466.1683,1468.8443,1,1,right,2.1382,,1468.8454,1470.2301,1,1,right,1470.2313,1471.4733,1,0,right,1,1471.4733,1471.4733,1471.4748,1472.9643,0,27,27,27,1,0.6,0.4,0.4,0.6,,,,,,,,,,,,,,,0.8626,,0.8,0.2,0.8,0.2,0.4,0.6,0.8,0.2,,,0.7133,,0.6,0.4,0.2,0.8,0.4,0.6,0.2,0.8,1,0
,,66d5b85d1841cb833e814b36,66daf5a5e7a8ff02353aa2ab,2024-09-06_13h31.23.521,mdp,2024.2.1,MacIntel,30.03003003,66d7945b1baad48e845df3ce,,,,,,,,,,,,,,,,,,,,,1472.9651,1472.9651,1472.9667,1474.4973,1,0,right,1.0041,,1474.4983,1475.7309,1,0,right,1475.7326,1476.9939,1,0,right,1,1476.994,1476.994,1476.9955,1478.4887,0,28,28,28,1,0.6,0.4,0.4,0.6,,,,,,,,,,,,,,,0.7111,,0.8,0.2,0.8,0.2,0.4,0.6,0.8,0.2,,,0.7127,,0.6,0.4,0.2,0.8,0.6,0.4,0.8,0.2,1,0
,,66d5b85d1841cb833e814b36,66daf5a5e7a8ff02353aa2ab,2024-09-06_13h31.23.521,mdp,2024.2.1,MacIntel,30.03003003,66d7945b1baad48e845df3ce,,,,,,,,,,,,,,,,,,,,,1478.4895,1478.4895,1478.4905,1479.8366,1,1,right,0.8109,,1479.8379,1481.3327,1,0,right,1481.3338,1482.6158,1,0,right,1,1482.6159,1482.6159,1482.6173,1484.1165,0,29,29,29,1,0.6,0.4,0.4,0.6,,,,,,,,,,,,,,,0.9642,,0.8,0.2,0.8,0.2,0.4,0.6,0.8,0.2,,,0.7537,,0.4,0.6,0.8,0.2,0.6,0.4,0.8,0.2,1,0
,,66d5b85d1841cb833e814b36,66daf5a5e7a8ff02353aa2ab,2024-09-06_13h31.23.521,mdp,2024.2.1,MacIntel,30.03003003,66d7945b1baad48e845df3ce,,,,,,,,,,,,,,,,,,,,,1484.1174,1484.1174,1484.1193,1485.4493,1,0,right,0.809,,1485.4507,1486.872,1,1,right,1486.8733,1488.5347,1,0,right,1,1488.535,1488.535,1488.5367,1490.0239,0,30,30,30,1,0.6,0.4,0.4,0.6,,,,,,,,,,,,,,,0.8779,,0.8,0.2,0.8,0.2,0.4,0.6,0.8,0.2,,,1.1303,,0.4,0.6,0.8,0.2,0.6,0.4,0.8,0.2,1,0
,,66d5b85d1841cb833e814b36,66daf5a5e7a8ff02353aa2ab,2024-09-06_13h31.23.521,mdp,2024.2.1,MacIntel,30.03003003,66d7945b1baad48e845df3ce,,,,,,,,,,,,,,,,,,,,,1490.0245,1490.0245,1490.0262,1491.3942,1,1,right,0.8563,,1491.3955,1492.6374,1,0,right,1492.6385,1493.8503,1,1,right,0,1493.8503,1493.8503,1493.8512,1495.3468,0,31,31,31,1,0.6,0.4,0.4,0.6,,,,,,,,,,,,,,,0.7099,,0.8,0.2,0.8,0.2,0.4,0.6,0.8,0.2,,,0.697,,0.4,0.6,0.8,0.2,0.6,0.4,0.8,0.2,1,0
,,66d5b85d1841cb833e814b36,66daf5a5e7a8ff02353aa2ab,2024-09-06_13h31.23.521,mdp,2024.2.1,MacIntel,30.03003003,66d7945b1baad48e845df3ce,,,,,,,,,,,,,,,,,,,,,1495.3475,1495.3475,1495.3491,1496.7608,1,0,right,0.8824,,1496.7619,1498.758,1,0,right,1498.7604,1500.0388,1,0,right,1,1500.0388,1500.0389,1500.04,1501.5476,0,32,32,32,1,0.6,0.4,0.4,0.6,,,,,,,,,,,,,,,1.4643,,0.8,0.2,0.8,0.2,0.4,0.6,0.8,0.2,,,0.7493,,0.4,0.6,0.8,0.2,0.6,0.4,0.8,0.2,1,0
,,66d5b85d1841cb833e814b36,66daf5a5e7a8ff02353aa2ab,2024-09-06_13h31.23.521,mdp,2024.2.1,MacIntel,30.03003003,66d7945b1baad48e845df3ce,,,,,,,,,,,,,,,,,,,,,1501.5484,1501.5485,1501.5495,1503.3073,1,1,right,1.2241,,1503.3084,1504.5202,1,0,right,1504.5213,1506.1428,1,0,right,1,1506.1428,1506.1429,1506.1443,1507.6517,0,33,33,33,1,0.6,0.4,0.4,0.6,,,,,,,,,,,,,,,0.6769,,0.8,0.2,0.8,0.2,0.4,0.6,0.8,0.2,,,1.0832,,0.4,0.6,0.8,0.2,0.6,0.4,0.8,0.2,1,0
,,66d5b85d1841cb833e814b36,66daf5a5e7a8ff02353aa2ab,2024-09-06_13h31.23.521,mdp,2024.2.1,MacIntel,30.03003003,66d7945b1baad48e845df3ce,,,,,,,,,,,,,,,,,,,,,1507.6522,1507.6522,1507.6533,1508.9825,1,0,right,0.7955,,1508.9836,1510.2207,1,0,right,1510.2219,1511.5392,1,0,right,1,1511.5392,1511.5392,1511.5401,1513.0392,0,34,34,34,1,0.6,0.4,0.4,0.6,,,,,,,,,,,,,,,0.7025,,0.8,0.2,0.8,0.2,0.4,0.6,0.8,0.2,,,0.7807,,0.4,0.6,0.8,0.2,0.6,0.4,0.8,0.2,1,0
,,66d5b85d1841cb833e814b36,66daf5a5e7a8ff02353aa2ab,2024-09-06_13h31.23.521,mdp,2024.2.1,MacIntel,30.03003003,66d7945b1baad48e845df3ce,,,,,,,,,,,,,,,,,,,,,1513.0396,1513.0396,1513.0405,1514.4137,1,1,right,0.8502,,1514.4146,1515.6505,1,0,right,1515.6515,1516.8381,1,0,right,1,1516.8381,1516.8381,1516.8398,1518.3383,0,35,35,35,1,0.6,0.4,0.4,0.6,,,,,,,,,,,,,,,0.7186,,0.8,0.2,0.8,0.2,0.4,0.6,0.8,0.2,,,0.6602,,0.4,0.6,0.8,0.2,0.6,0.4,0.8,0.2,1,0
,,66d5b85d1841cb833e814b36,66daf5a5e7a8ff02353aa2ab,2024-09-06_13h31.23.521,mdp,2024.2.1,MacIntel,30.03003003,66d7945b1baad48e845df3ce,,,,,,,,,,,,,,,,,,,,,1518.3391,1518.3391,1518.3402,1519.8012,1,1,right,0.9504,,1519.8022,1522.6498,1,1,right,1522.6709,1524.5415,1,0,right,1,1524.5416,1524.5416,1524.5427,1526.0313,0,36,36,36,1,0.6,0.4,0.4,0.6,,,,,,,,,,,,,,,2.3107,,0.8,0.2,0.8,0.2,0.4,0.6,0.8,0.2,,,1.3552,,0.4,0.6,0.8,0.2,0.6,0.4,0.8,0.2,1,0
,,66d5b85d1841cb833e814b36,66daf5a5e7a8ff02353aa2ab,2024-09-06_13h31.23.521,mdp,2024.2.1,MacIntel,30.03003003,66d7945b1baad48e845df3ce,,,,,,,,,,,,,,,,,,,,,1526.0318,1526.0318,1526.0331,1527.8722,1,0,right,1.3174,,1527.8733,1529.6226,1,0,right,1529.6237,1530.973,1,0,right,1,1530.9732,1530.9732,1530.9743,1532.4642,0,37,37,37,1,0.6,0.4,0.4,0.6,,,,,,,,,,,,,,,1.2217,,0.8,0.2,0.8,0.2,0.4,0.6,0.8,0.2,,,0.8124,,0.4,0.6,0.8,0.2,0.6,0.4,0.8,0.2,1,0
,,66d5b85d1841cb833e814b36,66daf5a5e7a8ff02353aa2ab,2024-09-06_13h31.23.521,mdp,2024.2.1,MacIntel,30.03003003,66d7945b1baad48e845df3ce,,,,,,,,,,,,,,,,,,,,,1532.465,1532.465,1532.4667,1534.3929,1,0,right,1.3993,,1534.3942,1535.674,1,1,right,1535.6755,1537.3808,1,0,right,1,1537.3809,1537.3809,1537.3825,1538.8583,0,38,38,38,1,0.6,0.4,0.4,0.6,,,,,,,,,,,,,,,0.752,,0.8,0.2,0.8,0.2,0.4,0.6,0.8,0.2,,,1.1676,,0.4,0.6,0.8,0.2,0.6,0.4,0.8,0.2,1,0
,,66d5b85d1841cb833e814b36,66daf5a5e7a8ff02353aa2ab,2024-09-06_13h31.23.521,mdp,2024.2.1,MacIntel,30.03003003,66d7945b1baad48e845df3ce,,,,,,,,,,,,,,,,,,,,,1538.8587,1538.8587,1538.8598,1540.3214,1,1,right,0.8845,,1540.3226,1542.1749,1,0,right,1542.1761,1544.302,1,1,right,0,1544.3022,1544.3022,1544.3035,1545.7974,0,39,39,39,1,0.6,0.4,0.4,0.6,,,,,,,,,,,,,,,1.3213,,0.8,0.2,0.8,0.2,0.4,0.6,0.8,0.2,,,1.5999,,0.4,0.6,0.8,0.2,0.6,0.4,0.8,0.2,1,0
,,66d5b85d1841cb833e814b36,66daf5a5e7a8ff02353aa2ab,2024-09-06_13h31.23.521,mdp,2024.2.1,MacIntel,30.03003003,66d7945b1baad48e845df3ce,,,,,,,,,,,,,,,,,,,,,1545.798,1545.7981,1545.7997,1551.8225,1,1,right,5.5058,,1551.844,1552.9357,1,0,right,1552.9375,1554.0746,1,1,right,0,1554.0747,1554.0747,1554.0759,1555.5659,0,40,40,40,1,0.6,0.4,0.4,0.6,,,,,,,,,,,,,,,0.5794,,0.8,0.2,0.8,0.2,0.4,0.6,0.8,0.2,,,0.6229,,0.4,0.6,0.8,0.2,0.6,0.4,0.8,0.2,1,0
,,66d5b85d1841cb833e814b36,66daf5a5e7a8ff02353aa2ab,2024-09-06_13h31.23.521,mdp,2024.2.1,MacIntel,30.03003003,66d7945b1baad48e845df3ce,,,,,,,,,,,,,,,,,,,,,1555.5668,1555.5668,1555.5685,1558.7158,1,1,right,2.6263,,1558.7366,1560.0788,1,0,right,1560.0805,1561.5646,1,0,right,1,1561.5646,1561.5646,1561.5662,1563.0673,0,41,41,41,1,0.4,0.6,0.8,0.2,,,,,,,,,,,,,,,0.8461,,0.8,0.2,0.8,0.2,0.4,0.6,0.8,0.2,,,0.9588,,0.4,0.6,0.8,0.2,0.6,0.4,0.8,0.2,1,0
,,66d5b85d1841cb833e814b36,66daf5a5e7a8ff02353aa2ab,2024-09-06_13h31.23.521,mdp,2024.2.1,MacIntel,30.03003003,66d7945b1baad48e845df3ce,,,,,,,,,,,,,,,,,,,,,1563.0681,1563.0681,1563.0696,1564.6731,1,0,right,1.0833,,1564.6741,1566.0801,1,0,right,1566.0815,1567.8485,1,1,right,0,1567.8488,1567.8488,1567.8502,1569.3441,0,42,42,42,1,0.4,0.6,0.8,0.2,,,,,,,,,,,,,,,0.8713,,0.8,0.2,0.8,0.2,0.4,0.6,0.8,0.2,,,1.2396,,0.4,0.6,0.8,0.2,0.6,0.4,0.8,0.2,1,0
,,66d5b85d1841cb833e814b36,66daf5a5e7a8ff02353aa2ab,2024-09-06_13h31.23.521,mdp,2024.2.1,MacIntel,30.03003003,66d7945b1baad48e845df3ce,,,,,,,,,,,,,,,,,,,,,1569.3451,1569.3451,1569.3466,1571.2417,1,0,right,1.3595,,1571.2429,1572.7029,1,0,right,1572.7045,1574.6035,1,0,right,1,1574.6036,1574.6036,1574.6058,1576.0923,0,43,43,43,1,0.4,0.6,0.8,0.2,,,,,,,,,,,,,,,0.9335,,0.8,0.2,0.8,0.2,0.4,0.6,0.8,0.2,,,1.3674,,0.4,0.6,0.8,0.2,0.6,0.4,0.8,0.2,1,0
,,66d5b85d1841cb833e814b36,66daf5a5e7a8ff02353aa2ab,2024-09-06_13h31.23.521,mdp,2024.2.1,MacIntel,30.03003003,66d7945b1baad48e845df3ce,,,,,,,,,,,,,,,,,,,,,1576.093,1576.093,1576.0946,1577.5951,1,0,right,0.953,,1577.5965,1579.1373,1,0,right,1579.1386,1580.7016,1,0,right,1,1580.7016,1580.7016,1580.7031,1582.1949,0,44,44,44,1,0.4,0.6,0.8,0.2,,,,,,,,,,,,,,,1.0212,,0.8,0.2,0.8,0.2,0.4,0.6,0.8,0.2,,,1.0423,,0.4,0.6,0.8,0.2,0.6,0.4,0.8,0.2,1,0
,,66d5b85d1841cb833e814b36,66daf5a5e7a8ff02353aa2ab,2024-09-06_13h31.23.521,mdp,2024.2.1,MacIntel,30.03003003,66d7945b1baad48e845df3ce,,,,,,,,,,,,,,,,,,,,,1582.1958,1582.1959,1582.1974,1584.3779,1,0,right,1.6544,,1584.3791,1585.8787,1,0,right,1585.88,1587.1953,1,0,right,1,1587.1954,1587.1954,1587.1967,1588.6979,0,45,45,45,1,0.4,0.6,0.8,0.2,,,,,,,,,,,,,,,0.9881,,0.8,0.2,0.8,0.2,0.4,0.6,0.8,0.2,,,0.7954,,0.4,0.6,0.8,0.2,0.6,0.4,0.8,0.2,1,0
,,66d5b85d1841cb833e814b36,66daf5a5e7a8ff02353aa2ab,2024-09-06_13h31.23.521,mdp,2024.2.1,MacIntel,30.03003003,66d7945b1baad48e845df3ce,,,,,,,,,,,,,,,,,,,,,1588.6985,1588.6985,1588.6996,1590.2419,1,0,right,1.0238,,1590.243,1591.4058,1,0,right,1591.4068,1592.8716,1,0,right,1,1592.8716,1592.8716,1592.8738,1594.3669,0,46,46,46,1,0.4,0.6,0.8,0.2,,,,,,,,,,,,,,,0.6336,,0.8,0.2,0.8,0.2,0.4,0.6,0.8,0.2,,,0.9538,,0.2,0.8,0.4,0.6,0.6,0.4,0.8,0.2,1,0
,,66d5b85d1841cb833e814b36,66daf5a5e7a8ff02353aa2ab,2024-09-06_13h31.23.521,mdp,2024.2.1,MacIntel,30.03003003,66d7945b1baad48e845df3ce,,,,,,,,,,,,,,,,,,,,,1594.3676,1594.3676,1594.3687,1595.8217,1,1,right,0.9337,,1595.8229,1597.3091,1,0,right,1597.3107,1598.6728,1,0,right,1,1598.6728,1598.6728,1598.6741,1600.1619,0,47,47,47,1,0.4,0.6,0.8,0.2,,,,,,,,,,,,,,,0.963,,0.8,0.2,0.8,0.2,0.4,0.6,0.8,0.2,,,0.8291,,0.2,0.8,0.4,0.6,0.6,0.4,0.8,0.2,1,0
,,66d5b85d1841cb833e814b36,66daf5a5e7a8ff02353aa2ab,2024-09-06_13h31.23.521,mdp,2024.2.1,MacIntel,30.03003003,66d7945b1baad48e845df3ce,,,,,,,,,,,,,,,,,,,,,1600.1626,1600.1627,1600.1643,1601.3806,1,0,right,0.704,,1601.3816,1602.6341,1,0,right,1602.6353,1604.025,1,1,right,0,1604.025,1604.025,1604.027,1605.5137,0,48,48,48,1,0.4,0.6,0.8,0.2,,,,,,,,,,,,,,,0.7224,,0.8,0.2,0.8,0.2,0.4,0.6,0.8,0.2,,,0.8769,,0.2,0.8,0.4,0.6,0.6,0.4,0.8,0.2,1,0
,,66d5b85d1841cb833e814b36,66daf5a5e7a8ff02353aa2ab,2024-09-06_13h31.23.521,mdp,2024.2.1,MacIntel,30.03003003,66d7945b1baad48e845df3ce,,,,,,,,,,,,,,,,,,,,,1605.5142,1605.5142,1605.5153,1606.9298,1,0,right,0.8924,,1606.931,1608.2454,1,0,right,1608.2465,1609.5913,1,1,right,0,1609.5914,1609.5914,1609.5925,1611.0884,0,49,49,49,1,0.4,0.6,0.8,0.2,,,,,,,,,,,,,,,0.8025,,0.8,0.2,0.8,0.2,0.6,0.4,0.4,0.6,,,0.8153,,0.2,0.8,0.4,0.6,0.6,0.4,0.8,0.2,1,0
,,66d5b85d1841cb833e814b36,66daf5a5e7a8ff02353aa2ab,2024-09-06_13h31.23.521,mdp,2024.2.1,MacIntel,30.03003003,66d7945b1baad48e845df3ce,,,,,,,,,,,,,,,,,,,,,,,,,,,,,,,,,,,,,,,,,,,,,,,,,,,,,,,,1611.0889,1669.5983,0,3,3,2,1,imgs/kangaroo.png,imgs/rabbit.png,imgs/pig.png,imgs/squirrel.png,imgs/bear.png,,,,,,,,,,,,,,,,,,,,,,,,
,,66d5b85d1841cb833e814b36,66daf5a5e7a8ff02353aa2ab,2024-09-06_13h31.23.521,mdp,2024.2.1,MacIntel,30.03003003,66d7945b1baad48e845df3ce,,,,,,,,,,,,,,1,seqs/st1seq31.csv,1669.6207,1672.5544,space,2.4053,,1672.5594,1672.5594,1672.5608,1675.0414,1,0,right,1.9414,,1675.0428,1675.0443,1,1,,1675.0457,1675.0465,1,1,,1,1675.0466,1675.0466,1675.0475,1676.5442,0,0,0,0,1,0.8,0.2,0.4,0.6,1,0,,,,,,,,,,,,,,,,,,,,,,,,,,,,,,,,,,,,
,,66d5b85d1841cb833e814b36,66daf5a5e7a8ff02353aa2ab,2024-09-06_13h31.23.521,mdp,2024.2.1,MacIntel,30.03003003,66d7945b1baad48e845df3ce,,,,,,,,,,,,,,,,,,,,,1676.5448,1676.545,1676.5464,1678.5256,1,1,right,1.4488,,1678.5274,1678.529,1,1,,1678.5305,1678.5317,1,0,,0,1678.532,1678.532,1678.5332,1680.0308,0,1,1,1,1,0.8,0.2,0.4,0.6,1,0,,,,,,,,,,,,,,,,,,,,,,,,,,,,,,,,,,,,
,,66d5b85d1841cb833e814b36,66daf5a5e7a8ff02353aa2ab,2024-09-06_13h31.23.521,mdp,2024.2.1,MacIntel,30.03003003,66d7945b1baad48e845df3ce,,,,,,,,,,,,,,,,,,,,,1680.0316,1680.0316,1680.0331,1681.5419,1,1,right,0.9969,,1681.5429,1681.5441,1,1,,1681.545,1681.5456,1,0,,0,1681.5457,1681.5457,1681.5464,1683.0385,0,2,2,2,1,0.8,0.2,0.4,0.6,1,0,,,,,,,,,,,,,,,,,,,,,,,,,,,,,,,,,,,,
,,66d5b85d1841cb833e814b36,66daf5a5e7a8ff02353aa2ab,2024-09-06_13h31.23.521,mdp,2024.2.1,MacIntel,30.03003003,66d7945b1baad48e845df3ce,,,,,,,,,,,,,,,,,,,,,1683.0395,1683.0395,1683.0408,1685.1846,1,1,right,1.6182,,1685.1858,1685.1875,1,1,,1685.1897,1685.1906,1,1,,0,1685.1906,1685.1906,1685.1915,1686.6746,0,3,3,3,1,0.8,0.2,0.4,0.6,1,0,,,,,,,,,,,,,,,,,,,,,,,,,,,,,,,,,,,,
,,66d5b85d1841cb833e814b36,66daf5a5e7a8ff02353aa2ab,2024-09-06_13h31.23.521,mdp,2024.2.1,MacIntel,30.03003003,66d7945b1baad48e845df3ce,,,,,,,,,,,,,,,,,,,,,1686.6752,1686.6752,1686.6776,1687.9776,1,1,right,0.7888,,1687.9796,1687.9807,1,1,,1687.9816,1687.9824,1,1,,0,1687.9825,1687.9825,1687.9833,1689.4849,0,4,4,4,1,0.8,0.2,0.4,0.6,1,0,,,,,,,,,,,,,,,,,,,,,,,,,,,,,,,,,,,,
,,66d5b85d1841cb833e814b36,66daf5a5e7a8ff02353aa2ab,2024-09-06_13h31.23.521,mdp,2024.2.1,MacIntel,30.03003003,66d7945b1baad48e845df3ce,,,,,,,,,,,,,,,,,,,,,1689.4856,1689.4856,1689.4878,1690.934,1,1,right,0.93,,1690.9351,1690.9359,1,1,,1690.9367,1690.9374,1,0,,0,1690.9375,1690.9375,1690.9381,1692.4274,0,5,5,5,1,0.8,0.2,0.4,0.6,1,0,,,,,,,,,,,,,,,,,,,,,,,,,,,,,,,,,,,,
,,66d5b85d1841cb833e814b36,66daf5a5e7a8ff02353aa2ab,2024-09-06_13h31.23.521,mdp,2024.2.1,MacIntel,30.03003003,66d7945b1baad48e845df3ce,,,,,,,,,,,,,,,,,,,,,1692.4279,1692.4279,1692.43,1693.5859,1,0,right,0.6322,,1693.5875,1693.5885,1,0,,1693.5901,1693.591,1,0,,1,1693.591,1693.591,1693.5921,1695.1021,0,6,6,6,1,0.6,0.4,0.6,0.4,1,0,,,,,,,,,,,,,,,,,,,,,,,,,,,,,,,,,,,,
,,66d5b85d1841cb833e814b36,66daf5a5e7a8ff02353aa2ab,2024-09-06_13h31.23.521,mdp,2024.2.1,MacIntel,30.03003003,66d7945b1baad48e845df3ce,,,,,,,,,,,,,,,,,,,,,1695.1027,1695.1027,1695.1042,1696.3228,1,1,right,0.6842,,1696.3241,1696.3248,1,1,,1696.3261,1696.3268,1,0,,0,1696.3268,1696.3268,1696.3277,1697.8244,0,7,7,7,1,0.6,0.4,0.6,0.4,1,0,,,,,,,,,,,,,,,,,,,,,,,,,,,,,,,,,,,,
,,66d5b85d1841cb833e814b36,66daf5a5e7a8ff02353aa2ab,2024-09-06_13h31.23.521,mdp,2024.2.1,MacIntel,30.03003003,66d7945b1baad48e845df3ce,,,,,,,,,,,,,,,,,,,,,1697.8249,1697.8249,1697.8267,1700.0473,1,0,right,1.7023,,1700.0706,1700.0717,1,0,,1700.0727,1700.0737,1,0,,1,1700.0737,1700.0737,1700.0747,1701.565,0,8,8,8,1,0.6,0.4,0.6,0.4,1,0,,,,,,,,,,,,,,,,,,,,,,,,,,,,,,,,,,,,
,,66d5b85d1841cb833e814b36,66daf5a5e7a8ff02353aa2ab,2024-09-06_13h31.23.521,mdp,2024.2.1,MacIntel,30.03003003,66d7945b1baad48e845df3ce,,,,,,,,,,,,,,,,,,,,,1701.5656,1701.5656,1701.5675,1704.1322,1,0,right,2.0434,,1704.1549,1704.1557,1,0,,1704.1568,1704.1577,1,1,,1,1704.1578,1704.1578,1704.1585,1705.6543,0,9,9,9,1,0.8,0.2,0.4,0.6,1,0,,,,,,,,,,,,,,,,,,,,,,,,,,,,,,,,,,,,
,,66d5b85d1841cb833e814b36,66daf5a5e7a8ff02353aa2ab,2024-09-06_13h31.23.521,mdp,2024.2.1,MacIntel,30.03003003,66d7945b1baad48e845df3ce,,,,,,,,,,,,,,,,,,,,,1705.6548,1705.6548,1705.6558,1706.9271,1,1,right,0.7512,,1706.9282,1706.9297,1,0,,1706.9305,1706.9312,1,0,,0,1706.9312,1706.9312,1706.9319,1708.4221,0,10,10,10,1,0.2,0.8,0.6,0.4,1,0,,,,,,,,,,,,,,,,,,,,,,,,,,,,,,,,,,,,
,,66d5b85d1841cb833e814b36,66daf5a5e7a8ff02353aa2ab,2024-09-06_13h31.23.521,mdp,2024.2.1,MacIntel,30.03003003,66d7945b1baad48e845df3ce,,,,,,,,,,,,,,,,,,,,,1708.4226,1708.4226,1708.4237,1710.1354,1,0,right,1.186,,1710.1372,1710.1388,1,0,,1710.1402,1710.141,1,0,,1,1710.1411,1710.1411,1710.142,1711.6326,0,11,11,11,1,0.2,0.8,0.6,0.4,1,0,,,,,,,,,,,,,,,,,,,,,,,,,,,,,,,,,,,,
,,66d5b85d1841cb833e814b36,66daf5a5e7a8ff02353aa2ab,2024-09-06_13h31.23.521,mdp,2024.2.1,MacIntel,30.03003003,66d7945b1baad48e845df3ce,,,,,,,,,,,,,,,,,,,,,1711.6331,1711.6331,1711.6341,1713.3941,1,0,right,1.2309,,1713.3962,1713.3971,1,1,,1713.3985,1713.3993,1,1,,1,1713.3993,1713.3993,1713.4002,1714.8981,0,12,12,12,1,0.2,0.8,0.6,0.4,1,0,,,,,,,,,,,,,,,,,,,,,,,,,,,,,,,,,,,,
,,66d5b85d1841cb833e814b36,66daf5a5e7a8ff02353aa2ab,2024-09-06_13h31.23.521,mdp,2024.2.1,MacIntel,30.03003003,66d7945b1baad48e845df3ce,,,,,,,,,,,,,,,,,,,,,1714.8989,1714.8989,1714.9006,1716.3843,1,0,right,0.9617,,1716.3861,1716.387,1,1,,1716.3879,1716.3889,1,0,,1,1716.389,1716.389,1716.3897,1717.8961,0,13,13,13,1,0.2,0.8,0.6,0.4,1,0,,,,,,,,,,,,,,,,,,,,,,,,,,,,,,,,,,,,
,,66d5b85d1841cb833e814b36,66daf5a5e7a8ff02353aa2ab,2024-09-06_13h31.23.521,mdp,2024.2.1,MacIntel,30.03003003,66d7945b1baad48e845df3ce,,,,,,,,,,,,,,,,,,,,,1717.8968,1717.8969,1717.8983,1719.7056,1,0,right,1.2925,,1719.708,1719.7089,1,0,,1719.7108,1719.7118,1,0,,1,1719.7119,1719.7119,1719.7133,1721.2055,0,14,14,14,1,0.2,0.8,0.6,0.4,1,0,,,,,,,,,,,,,,,,,,,,,,,,,,,,,,,,,,,,
,,66d5b85d1841cb833e814b36,66daf5a5e7a8ff02353aa2ab,2024-09-06_13h31.23.521,mdp,2024.2.1,MacIntel,30.03003003,66d7945b1baad48e845df3ce,,,,,,,,,,,,,,,,,,,,,1721.2066,1721.2067,1721.2085,1723.3221,1,1,right,1.5945,,1723.3243,1723.3253,1,1,,1723.3269,1723.3278,1,1,,0,1723.3278,1723.3278,1723.3286,1724.8263,0,15,15,15,1,0.8,0.2,0.2,0.8,1,0,,,,,,,,,,,,,,,,,,,,,,,,,,,,,,,,,,,,
,,66d5b85d1841cb833e814b36,66daf5a5e7a8ff02353aa2ab,2024-09-06_13h31.23.521,mdp,2024.2.1,MacIntel,30.03003003,66d7945b1baad48e845df3ce,,,,,,,,,,,,,,,,,,,,,1724.8271,1724.8271,1724.8289,1730.203,1,1,right,4.8625,,1730.2269,1730.2281,1,0,,1730.229,1730.23,1,1,,0,1730.2301,1730.2301,1730.2308,1731.7281,0,16,16,16,1,0.8,0.2,0.2,0.8,1,0,,,,,,,,,,,,,,,,,,,,,,,,,,,,,,,,,,,,
,,66d5b85d1841cb833e814b36,66daf5a5e7a8ff02353aa2ab,2024-09-06_13h31.23.521,mdp,2024.2.1,MacIntel,30.03003003,66d7945b1baad48e845df3ce,,,,,,,,,,,,,,,,,,,,,1731.7289,1731.7289,1731.7303,1734.0612,1,1,right,1.8017,,1734.0632,1734.064,1,0,,1734.0654,1734.0666,1,1,,0,1734.0668,1734.0668,1734.0676,1735.5719,0,17,17,17,1,0.8,0.2,0.2,0.8,1,0,,,,,,,,,,,,,,,,,,,,,,,,,,,,,,,,,,,,
,,66d5b85d1841cb833e814b36,66daf5a5e7a8ff02353aa2ab,2024-09-06_13h31.23.521,mdp,2024.2.1,MacIntel,30.03003003,66d7945b1baad48e845df3ce,,,,,,,,,,,,,,,,,,,,,1735.5725,1735.5725,1735.5739,1738.893,1,1,right,2.7946,,1738.915,1738.9157,1,1,,1738.9166,1738.9171,1,1,,0,1738.9172,1738.9172,1738.9178,1740.4249,0,18,18,18,1,0.8,0.2,0.2,0.8,1,0,,,,,,,,,,,,,,,,,,,,,,,,,,,,,,,,,,,,
,,66d5b85d1841cb833e814b36,66daf5a5e7a8ff02353aa2ab,2024-09-06_13h31.23.521,mdp,2024.2.1,MacIntel,30.03003003,66d7945b1baad48e845df3ce,,,,,,,,,,,,,,,,,,,,,1740.4253,1740.4253,1740.4264,1741.8268,1,1,right,0.8743,,1741.8281,1741.8288,1,1,,1741.8299,1741.8308,1,1,,0,1741.8308,1741.8308,1741.8317,1743.3266,0,19,19,19,1,0.8,0.2,0.2,0.8,1,0,,,,,,,,,,,,,,,,,,,,,,,,,,,,,,,,,,,,
,,66d5b85d1841cb833e814b36,66daf5a5e7a8ff02353aa2ab,2024-09-06_13h31.23.521,mdp,2024.2.1,MacIntel,30.03003003,66d7945b1baad48e845df3ce,,,,,,,,,,,,,,,,,,,,,1743.3271,1743.3271,1743.3284,1745.198,1,1,right,1.3388,,1745.199,1745.2002,1,1,,1745.201,1745.2016,1,0,,0,1745.2016,1745.2017,1745.2022,1746.6949,0,20,20,20,1,0.8,0.2,0.2,0.8,1,0,,,,,,,,,,,,,,,,,,,,,,,,,,,,,,,,,,,,
,,66d5b85d1841cb833e814b36,66daf5a5e7a8ff02353aa2ab,2024-09-06_13h31.23.521,mdp,2024.2.1,MacIntel,30.03003003,66d7945b1baad48e845df3ce,,,,,,,,,,,,,,,,,,,,,1746.6954,1746.6954,1746.6963,1748.7475,1,0,right,1.527,,1748.7488,1748.7495,1,1,,1748.7508,1748.7516,1,1,,1,1748.7516,1748.7516,1748.7524,1750.2504,0,21,21,21,1,0.6,0.4,0.4,0.6,1,0,,,,,,,,,,,,,,,,,,,,,,,,,,,,,,,,,,,,
,,66d5b85d1841cb833e814b36,66daf5a5e7a8ff02353aa2ab,2024-09-06_13h31.23.521,mdp,2024.2.1,MacIntel,30.03003003,66d7945b1baad48e845df3ce,,,,,,,,,,,,,,,,,,,,,1750.2508,1750.2508,1750.2519,1751.5006,1,0,right,0.7183,,1751.5016,1751.5025,1,1,,1751.5034,1751.5039,1,0,,1,1751.504,1751.504,1751.5047,1753.0017,0,22,22,22,1,0.6,0.4,0.4,0.6,1,0,,,,,,,,,,,,,,,,,,,,,,,,,,,,,,,,,,,,
,,66d5b85d1841cb833e814b36,66daf5a5e7a8ff02353aa2ab,2024-09-06_13h31.23.521,mdp,2024.2.1,MacIntel,30.03003003,66d7945b1baad48e845df3ce,,,,,,,,,,,,,,,,,,,,,1753.002,1753.0021,1753.0031,1754.2455,1,1,right,0.7296,,1754.247,1754.2482,1,1,,1754.2492,1754.2501,1,0,,0,1754.2504,1754.2504,1754.2513,1755.7537,0,23,23,23,1,0.6,0.4,0.4,0.6,1,0,,,,,,,,,,,,,,,,,,,,,,,,,,,,,,,,,,,,
,,66d5b85d1841cb833e814b36,66daf5a5e7a8ff02353aa2ab,2024-09-06_13h31.23.521,mdp,2024.2.1,MacIntel,30.03003003,66d7945b1baad48e845df3ce,,,,,,,,,,,,,,,,,,,,,1755.754,1755.754,1755.755,1759.2761,1,1,right,2.9924,,1759.2982,1759.299,1,0,,1759.2999,1759.3005,1,0,,0,1759.3005,1759.3005,1759.3013,1760.7991,0,24,24,24,1,0.6,0.4,0.4,0.6,1,0,,,,,,,,,,,,,,,,,,,,,,,,,,,,,,,,,,,,
,,66d5b85d1841cb833e814b36,66daf5a5e7a8ff02353aa2ab,2024-09-06_13h31.23.521,mdp,2024.2.1,MacIntel,30.03003003,66d7945b1baad48e845df3ce,,,,,,,,,,,,,,,,,,,,,1760.7997,1760.7998,1760.8015,1762.4031,1,0,right,1.0783,,1762.4045,1762.4056,1,1,,1762.4066,1762.4072,1,0,,1,1762.4072,1762.4072,1762.4079,1763.8951,0,25,25,25,1,0.6,0.4,0.4,0.6,1,0,,,,,,,,,,,,,,,,,,,,,,,,,,,,,,,,,,,,
,,66d5b85d1841cb833e814b36,66daf5a5e7a8ff02353aa2ab,2024-09-06_13h31.23.521,mdp,2024.2.1,MacIntel,30.03003003,66d7945b1baad48e845df3ce,,,,,,,,,,,,,,,,,,,,,1763.8958,1763.8958,1763.8971,1765.1107,1,0,right,0.6968,,1765.1118,1765.1131,1,0,,1765.1147,1765.1155,1,0,,1,1765.1155,1765.1155,1765.1168,1766.6175,0,26,26,26,1,0.6,0.4,0.4,0.6,1,0,,,,,,,,,,,,,,,,,,,,,,,,,,,,,,,,,,,,
,,66d5b85d1841cb833e814b36,66daf5a5e7a8ff02353aa2ab,2024-09-06_13h31.23.521,mdp,2024.2.1,MacIntel,30.03003003,66d7945b1baad48e845df3ce,,,,,,,,,,,,,,,,,,,,,1766.6179,1766.6179,1766.6188,1769.8731,1,0,right,2.7216,,1769.8741,1769.875,1,1,,1769.876,1769.8767,1,1,,1,1769.8767,1769.8767,1769.8775,1771.3644,0,27,27,27,1,0.8,0.2,0.6,0.4,1,0,,,,,,,,,,,,,,,,,,,,,,,,,,,,,,,,,,,,
,,66d5b85d1841cb833e814b36,66daf5a5e7a8ff02353aa2ab,2024-09-06_13h31.23.521,mdp,2024.2.1,MacIntel,30.03003003,66d7945b1baad48e845df3ce,,,,,,,,,,,,,,,,,,,,,1771.3648,1771.3648,1771.3657,1772.619,1,1,right,0.7186,,1772.62,1772.6211,1,0,,1772.622,1772.6229,1,0,,0,1772.6229,1772.623,1772.6238,1774.1208,0,28,28,28,1,0.8,0.2,0.6,0.4,1,0,,,,,,,,,,,,,,,,,,,,,,,,,,,,,,,,,,,,
,,66d5b85d1841cb833e814b36,66daf5a5e7a8ff02353aa2ab,2024-09-06_13h31.23.521,mdp,2024.2.1,MacIntel,30.03003003,66d7945b1baad48e845df3ce,,,,,,,,,,,,,,,,,,,,,1774.1216,1774.1216,1774.1251,1776.5014,1,0,right,1.8516,,1776.5224,1776.5232,1,0,,1776.5239,1776.5244,1,0,,1,1776.5245,1776.5245,1776.5251,1778.0118,0,29,29,29,1,0.8,0.2,0.6,0.4,1,0,,,,,,,,,,,,,,,,,,,,,,,,,,,,,,,,,,,,
,,66d5b85d1841cb833e814b36,66daf5a5e7a8ff02353aa2ab,2024-09-06_13h31.23.521,mdp,2024.2.1,MacIntel,30.03003003,66d7945b1baad48e845df3ce,,,,,,,,,,,,,,,,,,,,,1778.0125,1778.0125,1778.0137,1782.5508,1,1,right,4.0004,,1782.5784,1782.5794,1,0,,1782.5805,1782.5815,1,1,,0,1782.5815,1782.5816,1782.5827,1784.0776,0,30,30,30,1,0.6,0.4,0.4,0.6,1,0,,,,,,,,,,,,,,,,,,,,,,,,,,,,,,,,,,,,
,,66d5b85d1841cb833e814b36,66daf5a5e7a8ff02353aa2ab,2024-09-06_13h31.23.521,mdp,2024.2.1,MacIntel,30.03003003,66d7945b1baad48e845df3ce,,,,,,,,,,,,,,,,,,,,,1784.0783,1784.0783,1784.0795,1785.2376,1,1,right,0.6016,,1785.2386,1785.2394,1,0,,1785.2407,1785.2414,1,0,,0,1785.2414,1785.2414,1785.2423,1786.739,0,31,31,31,1,0.6,0.4,0.4,0.6,1,0,,,,,,,,,,,,,,,,,,,,,,,,,,,,,,,,,,,,
,,66d5b85d1841cb833e814b36,66daf5a5e7a8ff02353aa2ab,2024-09-06_13h31.23.521,mdp,2024.2.1,MacIntel,30.03003003,66d7945b1baad48e845df3ce,,,,,,,,,,,,,,,,,,,,,1786.7395,1786.7395,1786.7405,1787.9723,1,0,right,0.7202,,1787.9733,1787.9745,1,0,,1787.9753,1787.9759,1,0,,1,1787.976,1787.976,1787.9766,1789.4767,0,32,32,32,1,0.2,0.8,0.6,0.4,1,0,,,,,,,,,,,,,,,,,,,,,,,,,,,,,,,,,,,,
,,66d5b85d1841cb833e814b36,66daf5a5e7a8ff02353aa2ab,2024-09-06_13h31.23.521,mdp,2024.2.1,MacIntel,30.03003003,66d7945b1baad48e845df3ce,,,,,,,,,,,,,,,,,,,,,1789.4771,1789.4772,1789.4781,1791.9629,1,0,right,1.9538,,1791.9644,1791.9657,1,0,,1791.9668,1791.9675,1,0,,1,1791.9675,1791.9675,1791.9683,1793.4598,0,33,33,33,1,0.6,0.4,0.8,0.2,1,0,,,,,,,,,,,,,,,,,,,,,,,,,,,,,,,,,,,,
,,66d5b85d1841cb833e814b36,66daf5a5e7a8ff02353aa2ab,2024-09-06_13h31.23.521,mdp,2024.2.1,MacIntel,30.03003003,66d7945b1baad48e845df3ce,,,,,,,,,,,,,,,,,,,,,1793.4606,1793.4606,1793.4623,1794.6399,1,0,right,0.654,,1794.6409,1794.6421,1,0,,1794.6429,1794.6436,1,0,,1,1794.6436,1794.6436,1794.6443,1796.1522,0,34,34,34,1,0.6,0.4,0.8,0.2,1,0,,,,,,,,,,,,,,,,,,,,,,,,,,,,,,,,,,,,
,,66d5b85d1841cb833e814b36,66daf5a5e7a8ff02353aa2ab,2024-09-06_13h31.23.521,mdp,2024.2.1,MacIntel,30.03003003,66d7945b1baad48e845df3ce,,,,,,,,,,,,,,,,,,,,,1796.1527,1796.1527,1796.1536,1797.7338,1,0,right,1.0704,,1797.7349,1797.736,1,0,,1797.7367,1797.7373,1,0,,1,1797.7373,1797.7373,1797.738,1799.2419,0,35,35,35,1,0.6,0.4,0.8,0.2,1,0,,,,,,,,,,,,,,,,,,,,,,,,,,,,,,,,,,,,
,,66d5b85d1841cb833e814b36,66daf5a5e7a8ff02353aa2ab,2024-09-06_13h31.23.521,mdp,2024.2.1,MacIntel,30.03003003,66d7945b1baad48e845df3ce,,,,,,,,,,,,,,,,,,,,,1799.2423,1799.2423,1799.244,1801.3368,1,0,right,1.5553,,1801.3381,1801.3389,1,0,,1801.3398,1801.3407,1,0,,1,1801.3407,1801.3408,1801.3414,1802.8485,0,36,36,36,1,0.6,0.4,0.8,0.2,1,0,,,,,,,,,,,,,,,,,,,,,,,,,,,,,,,,,,,,
