init_exp.started,init_exp.stopped,participant,session,date,expName,psychopyVersion,OS,frameRate,study_id,disp_instruction.started,disp_instruction.stopped,instruction.thisRepN,instruction.thisTrialN,instruction.thisN,instruction.thisIndex,instruction.ran,instimg_path,consent.started,consent.stopped,key_resp_3.keys,key_resp_3.rt,key_resp_3.duration,n_steps,sequence_path,init_block.started,init_block.stopped,key_resp.keys,key_resp.rt,key_resp.duration,init_trials.started,init_trials.stopped,step0.started,step0.stopped,act0,s1,res0.keys,res0.rt,res0.duration,step1.started,step1.stopped,act1,s2,res1.keys,step2.started,step2.stopped,act2,s3,res2.keys,rew,reward_comp.started,reward_comp.stopped,reward_disp.started,reward_disp.stopped,trials.thisRepN,trials.thisTrialN,trials.thisN,trials.thisIndex,trials.ran,s00a0s10,s00a0s11,s00a1s10,s00a1s11,rew10,rew11,break_block.started,break_block.stopped,block.thisRepN,block.thisTrialN,block.thisN,block.thisIndex,block.ran,s00path,s10path,s11path,s20path,s21path,res1.rt,res1.duration,s10a0s20,s10a0s21,s10a1s20,s10a1s21,s11a0s20,s11a0s21,s11a1s20,s11a1s21,rew20,rew21,res2.rt,res2.duration,s20a0s30,s20a0s31,s20a1s30,s20a1s31,s21a0s30,s21a0s31,s21a1s30,s21a1s31,rew30,rew31
0.0002,0.0011,66d9ae66f6f721f4db56007c,66fc98426145664b605f1941,2024-10-01_17h49.28.199,mdp,2024.2.1,Win32,20,66fa4ebf79326e780c390304,,,,,,,,,,,,,,,,,,,,,,,,,,,,,,,,,,,,,,,,,,,,,,,,,,,,,,,,,,,,,,,,,,,,,,,,,,,,,,,,,,,,,,,,,,,
,,66d9ae66f6f721f4db56007c,66fc98426145664b605f1941,2024-10-01_17h49.28.199,mdp,2024.2.1,Win32,20,66fa4ebf79326e780c390304,0.0054,39.9829,0,0,0,0,1,rlnn_exp/rlnn_exp.001.png,,,,,,,,,,,,,,,,,,,,,,,,,,,,,,,,,,,,,,,,,,,,,,,,,,,,,,,,,,,,,,,,,,,,,,,,,,,,,,,,,,,
,,66d9ae66f6f721f4db56007c,66fc98426145664b605f1941,2024-10-01_17h49.28.199,mdp,2024.2.1,Win32,20,66fa4ebf79326e780c390304,39.9833,56.0595,0,1,1,1,1,rlnn_exp/rlnn_exp.002.png,,,,,,,,,,,,,,,,,,,,,,,,,,,,,,,,,,,,,,,,,,,,,,,,,,,,,,,,,,,,,,,,,,,,,,,,,,,,,,,,,,,
,,66d9ae66f6f721f4db56007c,66fc98426145664b605f1941,2024-10-01_17h49.28.199,mdp,2024.2.1,Win32,20,66fa4ebf79326e780c390304,56.0598,73.3091,0,2,2,2,1,rlnn_exp/rlnn_exp.003.png,,,,,,,,,,,,,,,,,,,,,,,,,,,,,,,,,,,,,,,,,,,,,,,,,,,,,,,,,,,,,,,,,,,,,,,,,,,,,,,,,,,
,,66d9ae66f6f721f4db56007c,66fc98426145664b605f1941,2024-10-01_17h49.28.199,mdp,2024.2.1,Win32,20,66fa4ebf79326e780c390304,73.3094,101.1211,0,3,3,3,1,rlnn_exp/rlnn_exp.004.png,,,,,,,,,,,,,,,,,,,,,,,,,,,,,,,,,,,,,,,,,,,,,,,,,,,,,,,,,,,,,,,,,,,,,,,,,,,,,,,,,,,
,,66d9ae66f6f721f4db56007c,66fc98426145664b605f1941,2024-10-01_17h49.28.199,mdp,2024.2.1,Win32,20,66fa4ebf79326e780c390304,,,,,,,,,101.1214,138.6351,y,27.4261,,,,,,,,,,,,,,,,,,,,,,,,,,,,,,,,,,,,,,,,,,,,,,,,,,,,,,,,,,,,,,,,,,,,,,,,,,,,,,,
,,66d9ae66f6f721f4db56007c,66fc98426145664b605f1941,2024-10-01_17h49.28.199,mdp,2024.2.1,Win32,20,66fa4ebf79326e780c390304,,,,,,,,,,,,,,1,seqs/st1seq12.csv,138.6373,141.0271,space,1.7813,,141.0289,141.029,141.0292,143.6662,1,1,right,2.0372,,143.6665,143.6675,,0,,143.6677,143.6683,,0,,0,143.6684,143.6685,143.6686,145.1451,0,0,0,0,1,0.8,0.2,0.6,0.4,1,0,,,,,,,,,,,,,,,,,,,,,,,,,,,,,,,,,,,,
,,66d9ae66f6f721f4db56007c,66fc98426145664b605f1941,2024-10-01_17h49.28.199,mdp,2024.2.1,Win32,20,66fa4ebf79326e780c390304,,,,,,,,,,,,,,,,,,,,,145.1453,145.1454,145.1459,146.7187,0,0,left,1.0078,,146.7195,146.7198,,1,,146.7202,146.7205,,0,,1,146.7205,146.7205,146.7208,148.2264,0,1,1,1,1,0.8,0.2,0.6,0.4,1,0,,,,,,,,,,,,,,,,,,,,,,,,,,,,,,,,,,,,
,,66d9ae66f6f721f4db56007c,66fc98426145664b605f1941,2024-10-01_17h49.28.199,mdp,2024.2.1,Win32,20,66fa4ebf79326e780c390304,,,,,,,,,,,,,,,,,,,,,148.2266,148.2266,148.2275,149.7681,0,0,left,0.9388,,149.7689,149.7693,,0,,149.7696,149.7698,,0,,1,149.7699,149.7699,149.77,151.2354,0,2,2,2,1,0.8,0.2,0.6,0.4,1,0,,,,,,,,,,,,,,,,,,,,,,,,,,,,,,,,,,,,
,,66d9ae66f6f721f4db56007c,66fc98426145664b605f1941,2024-10-01_17h49.28.199,mdp,2024.2.1,Win32,20,66fa4ebf79326e780c390304,,,,,,,,,,,,,,,,,,,,,151.2356,151.2356,151.2363,152.547,0,0,left,0.7059,,152.5475,152.5478,,0,,152.5481,152.5483,,0,,1,152.5484,152.5484,152.5487,154.0409,0,3,3,3,1,0.8,0.2,0.6,0.4,1,0,,,,,,,,,,,,,,,,,,,,,,,,,,,,,,,,,,,,
,,66d9ae66f6f721f4db56007c,66fc98426145664b605f1941,2024-10-01_17h49.28.199,mdp,2024.2.1,Win32,20,66fa4ebf79326e780c390304,,,,,,,,,,,,,,,,,,,,,154.0411,154.0411,154.0417,155.2897,0,0,left,0.6387,,155.2902,155.2906,,0,,155.2909,155.2911,,0,,1,155.2911,155.2911,155.2913,156.7602,0,4,4,4,1,0.8,0.2,0.6,0.4,1,0,,,,,,,,,,,,,,,,,,,,,,,,,,,,,,,,,,,,
,,66d9ae66f6f721f4db56007c,66fc98426145664b605f1941,2024-10-01_17h49.28.199,mdp,2024.2.1,Win32,20,66fa4ebf79326e780c390304,,,,,,,,,,,,,,,,,,,,,156.7604,156.7605,156.7612,157.8792,0,1,left,0.5687,,157.8798,157.8802,,0,,157.8805,157.8808,,0,,0,157.8808,157.8808,157.881,159.3987,0,5,5,5,1,0.8,0.2,0.6,0.4,1,0,,,,,,,,,,,,,,,,,,,,,,,,,,,,,,,,,,,,
,,66d9ae66f6f721f4db56007c,66fc98426145664b605f1941,2024-10-01_17h49.28.199,mdp,2024.2.1,Win32,20,66fa4ebf79326e780c390304,,,,,,,,,,,,,,,,,,,,,159.399,159.399,159.4001,162.0983,1,0,right,2.1016,,162.0991,162.0995,,0,,162.0999,162.1002,,0,,1,162.1002,162.1002,162.1005,163.595,0,6,6,6,1,0.8,0.2,0.6,0.4,1,0,,,,,,,,,,,,,,,,,,,,,,,,,,,,,,,,,,,,
,,66d9ae66f6f721f4db56007c,66fc98426145664b605f1941,2024-10-01_17h49.28.199,mdp,2024.2.1,Win32,20,66fa4ebf79326e780c390304,,,,,,,,,,,,,,,,,,,,,163.5952,163.5952,163.5961,166.7349,1,0,right,2.5323,,166.7354,166.7357,,1,,166.736,166.7363,,0,,1,166.7363,166.7363,166.7365,168.2019,0,7,7,7,1,0.8,0.2,0.6,0.4,1,0,,,,,,,,,,,,,,,,,,,,,,,,,,,,,,,,,,,,
,,66d9ae66f6f721f4db56007c,66fc98426145664b605f1941,2024-10-01_17h49.28.199,mdp,2024.2.1,Win32,20,66fa4ebf79326e780c390304,,,,,,,,,,,,,,,,,,,,,168.2021,168.2021,168.2028,169.6306,1,0,right,0.8203,,169.6311,169.6314,,1,,169.6318,169.632,,0,,1,169.632,169.632,169.6323,171.1229,0,8,8,8,1,0.8,0.2,0.6,0.4,1,0,,,,,,,,,,,,,,,,,,,,,,,,,,,,,,,,,,,,
,,66d9ae66f6f721f4db56007c,66fc98426145664b605f1941,2024-10-01_17h49.28.199,mdp,2024.2.1,Win32,20,66fa4ebf79326e780c390304,,,,,,,,,,,,,,,,,,,,,171.1231,171.1232,171.1235,174.5792,1,0,right,2.8394,,174.5799,174.5802,,1,,174.5805,174.5809,,1,,1,174.581,174.581,174.5814,176.0492,0,9,9,9,1,0.6,0.4,0.4,0.6,1,0,,,,,,,,,,,,,,,,,,,,,,,,,,,,,,,,,,,,
,,66d9ae66f6f721f4db56007c,66fc98426145664b605f1941,2024-10-01_17h49.28.199,mdp,2024.2.1,Win32,20,66fa4ebf79326e780c390304,,,,,,,,,,,,,,,,,,,,,176.0493,176.0493,176.05,177.8528,1,0,right,1.1987,,177.8535,177.8539,,0,,177.8544,177.8546,,0,,1,177.8547,177.8547,177.855,179.3298,0,10,10,10,1,0.6,0.4,0.4,0.6,1,0,,,,,,,,,,,,,,,,,,,,,,,,,,,,,,,,,,,,
,,66d9ae66f6f721f4db56007c,66fc98426145664b605f1941,2024-10-01_17h49.28.199,mdp,2024.2.1,Win32,20,66fa4ebf79326e780c390304,,,,,,,,,,,,,,,,,,,,,179.3301,179.3301,179.3306,180.6685,1,1,right,0.7467,,180.6691,180.6694,,1,,180.6697,180.67,,1,,0,180.67,180.67,180.6703,182.1596,0,11,11,11,1,0.6,0.4,0.4,0.6,1,0,,,,,,,,,,,,,,,,,,,,,,,,,,,,,,,,,,,,
,,66d9ae66f6f721f4db56007c,66fc98426145664b605f1941,2024-10-01_17h49.28.199,mdp,2024.2.1,Win32,20,66fa4ebf79326e780c390304,,,,,,,,,,,,,,,,,,,,,182.1599,182.1599,182.1606,184.3248,0,0,left,1.574,0,184.3254,184.3257,,0,,184.326,184.3263,,1,,1,184.3263,184.3263,184.3265,185.8234,0,12,12,12,1,0.6,0.4,0.4,0.6,1,0,,,,,,,,,,,,,,,,,,,,,,,,,,,,,,,,,,,,
,,66d9ae66f6f721f4db56007c,66fc98426145664b605f1941,2024-10-01_17h49.28.199,mdp,2024.2.1,Win32,20,66fa4ebf79326e780c390304,,,,,,,,,,,,,,,,,,,,,185.8235,185.8235,185.8241,187.0028,0,1,left,0.5757,,187.0035,187.0039,,0,,187.0042,187.0044,,1,,0,187.0044,187.0044,187.0047,188.4707,0,13,13,13,1,0.6,0.4,0.4,0.6,1,0,,,,,,,,,,,,,,,,,,,,,,,,,,,,,,,,,,,,
,,66d9ae66f6f721f4db56007c,66fc98426145664b605f1941,2024-10-01_17h49.28.199,mdp,2024.2.1,Win32,20,66fa4ebf79326e780c390304,,,,,,,,,,,,,,,,,,,,,188.4709,188.4709,188.4715,189.4527,1,1,right,0.3728,,189.4532,189.4536,,1,,189.4539,189.4542,,0,,0,189.4542,189.4542,189.4544,190.9291,0,14,14,14,1,0.6,0.4,0.4,0.6,1,0,,,,,,,,,,,,,,,,,,,,,,,,,,,,,,,,,,,,
,,66d9ae66f6f721f4db56007c,66fc98426145664b605f1941,2024-10-01_17h49.28.199,mdp,2024.2.1,Win32,20,66fa4ebf79326e780c390304,,,,,,,,,,,,,,,,,,,,,190.9293,190.9293,190.9299,193.2046,1,0,right,1.6773,,193.2051,193.2054,,0,,193.2057,193.206,,1,,1,193.206,193.206,193.2062,194.7053,0,15,15,15,1,0.6,0.4,0.4,0.6,1,0,,,,,,,,,,,,,,,,,,,,,,,,,,,,,,,,,,,,
,,66d9ae66f6f721f4db56007c,66fc98426145664b605f1941,2024-10-01_17h49.28.199,mdp,2024.2.1,Win32,20,66fa4ebf79326e780c390304,,,,,,,,,,,,,,,,,,,,,194.7055,194.7055,194.7062,196.6907,1,0,right,1.3832,,196.6914,196.6917,,1,,196.692,196.6923,,0,,1,196.6923,196.6923,196.6926,198.159,0,16,16,16,1,0.8,0.2,0.8,0.2,1,0,,,,,,,,,,,,,,,,,,,,,,,,,,,,,,,,,,,,
,,66d9ae66f6f721f4db56007c,66fc98426145664b605f1941,2024-10-01_17h49.28.199,mdp,2024.2.1,Win32,20,66fa4ebf79326e780c390304,,,,,,,,,,,,,,,,,,,,,198.1592,198.1592,198.1597,199.8861,1,0,right,1.1203,,199.8866,199.8869,,0,,199.8873,199.8875,,1,,1,199.8875,199.8875,199.8878,201.3853,0,17,17,17,1,0.8,0.2,0.8,0.2,1,0,,,,,,,,,,,,,,,,,,,,,,,,,,,,,,,,,,,,
,,66d9ae66f6f721f4db56007c,66fc98426145664b605f1941,2024-10-01_17h49.28.199,mdp,2024.2.1,Win32,20,66fa4ebf79326e780c390304,,,,,,,,,,,,,,,,,,,,,201.3855,201.3855,201.386,202.6303,1,0,right,0.6275,,202.631,202.6314,,0,,202.6317,202.632,,0,,1,202.632,202.632,202.6324,204.1393,0,18,18,18,1,0.8,0.2,0.8,0.2,1,0,,,,,,,,,,,,,,,,,,,,,,,,,,,,,,,,,,,,
,,66d9ae66f6f721f4db56007c,66fc98426145664b605f1941,2024-10-01_17h49.28.199,mdp,2024.2.1,Win32,20,66fa4ebf79326e780c390304,,,,,,,,,,,,,,,,,,,,,204.1395,204.1396,204.1401,205.1201,1,0,right,0.3752,,205.1207,205.121,,0,,205.1214,205.1217,,0,,1,205.1217,205.1217,205.122,206.5732,0,19,19,19,1,0.8,0.2,0.8,0.2,1,0,,,,,,,,,,,,,,,,,,,,,,,,,,,,,,,,,,,,
,,66d9ae66f6f721f4db56007c,66fc98426145664b605f1941,2024-10-01_17h49.28.199,mdp,2024.2.1,Win32,20,66fa4ebf79326e780c390304,,,,,,,,,,,,,,,,,,,,,206.5734,206.5734,206.5739,207.7506,1,0,right,0.5777,,207.7512,207.7516,,0,,207.7519,207.7522,,0,,1,207.7522,207.7522,207.7525,209.2396,0,20,20,20,1,0.4,0.6,0.6,0.4,1,0,,,,,,,,,,,,,,,,,,,,,,,,,,,,,,,,,,,,
,,66d9ae66f6f721f4db56007c,66fc98426145664b605f1941,2024-10-01_17h49.28.199,mdp,2024.2.1,Win32,20,66fa4ebf79326e780c390304,,,,,,,,,,,,,,,,,,,,,209.2398,209.2398,209.2403,210.44,1,0,right,0.6379,,210.4405,210.4408,,0,,210.4411,210.4413,,1,,1,210.4413,210.4413,210.4416,211.9272,0,21,21,21,1,0.4,0.6,0.6,0.4,1,0,,,,,,,,,,,,,,,,,,,,,,,,,,,,,,,,,,,,
,,66d9ae66f6f721f4db56007c,66fc98426145664b605f1941,2024-10-01_17h49.28.199,mdp,2024.2.1,Win32,20,66fa4ebf79326e780c390304,,,,,,,,,,,,,,,,,,,,,211.9274,211.9274,211.928,212.8306,1,1,right,0.3157,,212.8312,212.8316,,0,,212.8319,212.8321,,1,,0,212.8321,212.8321,212.8323,214.3062,0,22,22,22,1,0.6,0.4,0.4,0.6,1,0,,,,,,,,,,,,,,,,,,,,,,,,,,,,,,,,,,,,
,,66d9ae66f6f721f4db56007c,66fc98426145664b605f1941,2024-10-01_17h49.28.199,mdp,2024.2.1,Win32,20,66fa4ebf79326e780c390304,,,,,,,,,,,,,,,,,,,,,214.3064,214.3064,214.307,215.2946,0,0,left,0.3768,,215.2951,215.2955,,0,,215.2957,215.296,,0,,1,215.296,215.296,215.2962,216.7778,0,23,23,23,1,0.6,0.4,0.4,0.6,1,0,,,,,,,,,,,,,,,,,,,,,,,,,,,,,,,,,,,,
,,66d9ae66f6f721f4db56007c,66fc98426145664b605f1941,2024-10-01_17h49.28.199,mdp,2024.2.1,Win32,20,66fa4ebf79326e780c390304,,,,,,,,,,,,,,,,,,,,,216.778,216.778,216.7785,217.7806,0,1,left,0.3854,,217.7812,217.7816,,1,,217.7819,217.7821,,0,,0,217.7822,217.7822,217.7824,219.2335,0,24,24,24,1,0.6,0.4,0.4,0.6,1,0,,,,,,,,,,,,,,,,,,,,,,,,,,,,,,,,,,,,
,,66d9ae66f6f721f4db56007c,66fc98426145664b605f1941,2024-10-01_17h49.28.199,mdp,2024.2.1,Win32,20,66fa4ebf79326e780c390304,,,,,,,,,,,,,,,,,,,,,219.2337,219.2337,219.2343,220.163,1,1,right,0.3242,,220.1636,220.1639,,1,,220.1642,220.1644,,0,,0,220.1645,220.1645,220.1646,221.6376,0,25,25,25,1,0.6,0.4,0.4,0.6,1,0,,,,,,,,,,,,,,,,,,,,,,,,,,,,,,,,,,,,
,,66d9ae66f6f721f4db56007c,66fc98426145664b605f1941,2024-10-01_17h49.28.199,mdp,2024.2.1,Win32,20,66fa4ebf79326e780c390304,,,,,,,,,,,,,,,,,,,,,221.6378,221.6378,221.6383,222.5567,1,1,right,0.316,,222.5573,222.5577,,1,,222.558,222.5582,,1,,0,222.5582,222.5582,222.5585,224.039,0,26,26,26,1,0.6,0.4,0.4,0.6,1,0,,,,,,,,,,,,,,,,,,,,,,,,,,,,,,,,,,,,
,,66d9ae66f6f721f4db56007c,66fc98426145664b605f1941,2024-10-01_17h49.28.199,mdp,2024.2.1,Win32,20,66fa4ebf79326e780c390304,,,,,,,,,,,,,,,,,,,,,224.0392,224.0392,224.0396,224.896,0,0,left,0.2554,,224.8966,224.8969,,0,,224.8972,224.8973,,0,,1,224.8973,224.8973,224.8976,226.3819,0,27,27,27,1,0.6,0.4,0.4,0.6,1,0,,,,,,,,,,,,,,,,,,,,,,,,,,,,,,,,,,,,
,,66d9ae66f6f721f4db56007c,66fc98426145664b605f1941,2024-10-01_17h49.28.199,mdp,2024.2.1,Win32,20,66fa4ebf79326e780c390304,,,,,,,,,,,,,,,,,,,,,226.382,226.3821,226.3826,227.3578,0,0,left,0.3746,,227.3583,227.3586,,1,,227.3589,227.3591,,1,,1,227.3591,227.3591,227.3594,228.826,0,28,28,28,1,0.6,0.4,0.4,0.6,1,0,,,,,,,,,,,,,,,,,,,,,,,,,,,,,,,,,,,,
,,66d9ae66f6f721f4db56007c,66fc98426145664b605f1941,2024-10-01_17h49.28.199,mdp,2024.2.1,Win32,20,66fa4ebf79326e780c390304,,,,,,,,,,,,,,,,,,,,,228.8262,228.8262,228.8268,230.0094,0,0,left,0.573,,230.01,230.0102,,0,,230.0105,230.0108,,0,,1,230.0108,230.0108,230.011,231.5012,0,29,29,29,1,0.8,0.2,0.6,0.4,1,0,,,,,,,,,,,,,,,,,,,,,,,,,,,,,,,,,,,,
,,66d9ae66f6f721f4db56007c,66fc98426145664b605f1941,2024-10-01_17h49.28.199,mdp,2024.2.1,Win32,20,66fa4ebf79326e780c390304,,,,,,,,,,,,,,,,,,,,,231.5014,231.5015,231.502,232.4798,0,0,left,0.379,,232.4805,232.4807,,0,,232.4811,232.4812,,0,,1,232.4813,232.4813,232.4816,233.9809,0,30,30,30,1,0.8,0.2,0.6,0.4,1,0,,,,,,,,,,,,,,,,,,,,,,,,,,,,,,,,,,,,
,,66d9ae66f6f721f4db56007c,66fc98426145664b605f1941,2024-10-01_17h49.28.199,mdp,2024.2.1,Win32,20,66fa4ebf79326e780c390304,,,,,,,,,,,,,,,,,,,,,233.9812,233.9812,233.9819,235.021,0,0,left,0.4467,,235.0216,235.0219,,0,,235.0221,235.0224,,0,,1,235.0224,235.0224,235.0229,236.5069,0,31,31,31,1,0.8,0.2,0.6,0.4,1,0,,,,,,,,,,,,,,,,,,,,,,,,,,,,,,,,,,,,
,,66d9ae66f6f721f4db56007c,66fc98426145664b605f1941,2024-10-01_17h49.28.199,mdp,2024.2.1,Win32,20,66fa4ebf79326e780c390304,,,,,,,,,,,,,,,,,,,,,236.5071,236.5071,236.5077,237.4388,0,0,left,0.3725,,237.4393,237.4397,,0,,237.4399,237.4401,,0,,1,237.4401,237.4401,237.4404,238.9149,0,32,32,32,1,0.8,0.2,0.6,0.4,1,0,,,,,,,,,,,,,,,,,,,,,,,,,,,,,,,,,,,,
,,66d9ae66f6f721f4db56007c,66fc98426145664b605f1941,2024-10-01_17h49.28.199,mdp,2024.2.1,Win32,20,66fa4ebf79326e780c390304,,,,,,,,,,,,,,,,,,,,,238.9151,238.9151,238.9157,239.8459,0,1,left,0.3757,,239.8467,239.8472,,0,,239.8476,239.8477,,0,,0,239.8477,239.8477,239.848,241.3113,0,33,33,33,1,0.6,0.4,0.2,0.8,1,0,,,,,,,,,,,,,,,,,,,,,,,,,,,,,,,,,,,,
,,66d9ae66f6f721f4db56007c,66fc98426145664b605f1941,2024-10-01_17h49.28.199,mdp,2024.2.1,Win32,20,66fa4ebf79326e780c390304,,,,,,,,,,,,,,,,,,,,,241.3114,241.3114,241.312,242.1316,1,0,right,0.2594,,242.1321,242.1325,,1,,242.1328,242.133,,1,,1,242.133,242.133,242.1333,243.6061,0,34,34,34,1,0.6,0.4,0.2,0.8,1,0,,,,,,,,,,,,,,,,,,,,,,,,,,,,,,,,,,,,
,,66d9ae66f6f721f4db56007c,66fc98426145664b605f1941,2024-10-01_17h49.28.199,mdp,2024.2.1,Win32,20,66fa4ebf79326e780c390304,,,,,,,,,,,,,,,,,,,,,243.6063,243.6063,243.6069,244.3834,1,1,right,0.1917,,244.384,244.3843,,1,,244.3846,244.3849,,1,,0,244.3849,244.3849,244.3852,245.8673,0,35,35,35,1,0.6,0.4,0.2,0.8,1,0,,,,,,,,,,,,,,,,,,,,,,,,,,,,,,,,,,,,
,,66d9ae66f6f721f4db56007c,66fc98426145664b605f1941,2024-10-01_17h49.28.199,mdp,2024.2.1,Win32,20,66fa4ebf79326e780c390304,,,,,,,,,,,,,,,,,,,,,245.8675,245.8675,245.8681,246.7524,0,0,left,0.3266,,246.753,246.7533,,1,,246.7536,246.7538,,0,,1,246.7538,246.7538,246.754,248.2339,0,36,36,36,1,0.6,0.4,0.2,0.8,1,0,,,,,,,,,,,,,,,,,,,,,,,,,,,,,,,,,,,,
,,66d9ae66f6f721f4db56007c,66fc98426145664b605f1941,2024-10-01_17h49.28.199,mdp,2024.2.1,Win32,20,66fa4ebf79326e780c390304,,,,,,,,,,,,,,,,,,,,,248.2341,248.2341,248.2346,249.2231,0,1,left,0.3835,,249.2237,249.224,,0,,249.2242,249.2245,,0,,0,249.2245,249.2245,249.2248,250.711,0,37,37,37,1,0.6,0.4,0.2,0.8,1,0,,,,,,,,,,,,,,,,,,,,,,,,,,,,,,,,,,,,
,,66d9ae66f6f721f4db56007c,66fc98426145664b605f1941,2024-10-01_17h49.28.199,mdp,2024.2.1,Win32,20,66fa4ebf79326e780c390304,,,,,,,,,,,,,,,,,,,,,250.7112,250.7112,250.7118,251.5179,1,0,right,0.2007,,251.5185,251.5189,,1,,251.5194,251.5196,,0,,1,251.5196,251.5196,251.5198,253.0028,0,38,38,38,1,0.6,0.4,0.2,0.8,1,0,,,,,,,,,,,,,,,,,,,,,,,,,,,,,,,,,,,,
,,66d9ae66f6f721f4db56007c,66fc98426145664b605f1941,2024-10-01_17h49.28.199,mdp,2024.2.1,Win32,20,66fa4ebf79326e780c390304,,,,,,,,,,,,,,,,,,,,,253.003,253.003,253.0035,254.0363,1,0,right,0.4326,,254.0369,254.0372,,1,,254.0376,254.0378,,1,,1,254.0378,254.0378,254.0381,255.5171,0,39,39,39,1,0.6,0.4,0.2,0.8,1,0,,,,,,,,,,,,,,,,,,,,,,,,,,,,,,,,,,,,
,,66d9ae66f6f721f4db56007c,66fc98426145664b605f1941,2024-10-01_17h49.28.199,mdp,2024.2.1,Win32,20,66fa4ebf79326e780c390304,,,,,,,,,,,,,,,,,,,,,255.5173,255.5173,255.5186,256.3796,1,0,right,0.2489,,256.3801,256.3804,,1,,256.3807,256.381,,1,,1,256.381,256.381,256.3812,257.8673,0,40,40,40,1,0.6,0.4,0.2,0.8,1,0,,,,,,,,,,,,,,,,,,,,,,,,,,,,,,,,,,,,
,,66d9ae66f6f721f4db56007c,66fc98426145664b605f1941,2024-10-01_17h49.28.199,mdp,2024.2.1,Win32,20,66fa4ebf79326e780c390304,,,,,,,,,,,,,,,,,,,,,257.8676,257.8676,257.8681,258.8595,1,1,right,0.3786,,258.86,258.8604,,1,,258.8606,258.8609,,1,,0,258.8609,258.8609,258.8611,260.3294,0,41,41,41,1,0.6,0.4,0.2,0.8,1,0,,,,,,,,,,,,,,,,,,,,,,,,,,,,,,,,,,,,
,,66d9ae66f6f721f4db56007c,66fc98426145664b605f1941,2024-10-01_17h49.28.199,mdp,2024.2.1,Win32,20,66fa4ebf79326e780c390304,,,,,,,,,,,,,,,,,,,,,260.3296,260.3296,260.3301,261.3125,0,0,left,0.3782,,261.313,261.3134,,1,,261.3137,261.3138,,0,,1,261.3138,261.3138,261.3141,262.7899,0,42,42,42,1,0.6,0.4,0.2,0.8,1,0,,,,,,,,,,,,,,,,,,,,,,,,,,,,,,,,,,,,
,,66d9ae66f6f721f4db56007c,66fc98426145664b605f1941,2024-10-01_17h49.28.199,mdp,2024.2.1,Win32,20,66fa4ebf79326e780c390304,,,,,,,,,,,,,,,,,,,,,262.7901,262.7901,262.7907,264.2527,0,0,left,0.8568,,264.2533,264.2536,,1,,264.2539,264.2541,,0,,1,264.2541,264.2541,264.2544,265.7177,0,43,43,43,1,0.6,0.4,0.2,0.8,1,0,,,,,,,,,,,,,,,,,,,,,,,,,,,,,,,,,,,,
,,66d9ae66f6f721f4db56007c,66fc98426145664b605f1941,2024-10-01_17h49.28.199,mdp,2024.2.1,Win32,20,66fa4ebf79326e780c390304,,,,,,,,,,,,,,,,,,,,,265.7179,265.7179,265.7184,266.7578,0,0,left,0.4106,,266.7584,266.7587,,1,,266.7589,266.7592,,1,,1,266.7592,266.7592,266.7595,268.2547,0,44,44,44,1,0.6,0.4,0.2,0.8,1,0,,,,,,,,,,,,,,,,,,,,,,,,,,,,,,,,,,,,
,,66d9ae66f6f721f4db56007c,66fc98426145664b605f1941,2024-10-01_17h49.28.199,mdp,2024.2.1,Win32,20,66fa4ebf79326e780c390304,,,,,,,,,,,,,,,,,,,,,268.2548,268.2549,268.2554,269.6639,0,1,left,0.8115,,269.6644,269.6647,,0,,269.6651,269.6653,,0,,0,269.6653,269.6653,269.6656,271.1433,0,45,45,45,1,0.6,0.4,0.2,0.8,1,0,,,,,,,,,,,,,,,,,,,,,,,,,,,,,,,,,,,,
,,66d9ae66f6f721f4db56007c,66fc98426145664b605f1941,2024-10-01_17h49.28.199,mdp,2024.2.1,Win32,20,66fa4ebf79326e780c390304,,,,,,,,,,,,,,,,,,,,,271.1436,271.1436,271.1442,272.0699,1,1,right,0.3264,,272.0705,272.0708,,0,,272.071,272.0712,,0,,0,272.0712,272.0712,272.0714,273.526,0,46,46,46,1,0.8,0.2,0.6,0.4,1,0,,,,,,,,,,,,,,,,,,,,,,,,,,,,,,,,,,,,
,,66d9ae66f6f721f4db56007c,66fc98426145664b605f1941,2024-10-01_17h49.28.199,mdp,2024.2.1,Win32,20,66fa4ebf79326e780c390304,,,,,,,,,,,,,,,,,,,,,273.5261,273.5261,273.5267,274.4076,1,1,right,0.3159,,274.4082,274.4085,,1,,274.4087,274.4089,,0,,0,274.4089,274.4089,274.4092,275.907,0,47,47,47,1,0.8,0.2,0.6,0.4,1,0,,,,,,,,,,,,,,,,,,,,,,,,,,,,,,,,,,,,
,,66d9ae66f6f721f4db56007c,66fc98426145664b605f1941,2024-10-01_17h49.28.199,mdp,2024.2.1,Win32,20,66fa4ebf79326e780c390304,,,,,,,,,,,,,,,,,,,,,275.9073,275.9073,275.9078,276.5245,0,0,left,0.0633,,276.5251,276.5255,,1,,276.5258,276.526,,0,,1,276.526,276.526,276.5263,278.0243,0,48,48,48,1,0.8,0.2,0.6,0.4,1,0,,,,,,,,,,,,,,,,,,,,,,,,,,,,,,,,,,,,
,,66d9ae66f6f721f4db56007c,66fc98426145664b605f1941,2024-10-01_17h49.28.199,mdp,2024.2.1,Win32,20,66fa4ebf79326e780c390304,,,,,,,,,,,,,,,,,,,,,278.0245,278.0245,278.025,278.8124,0,0,left,0.191,,278.8129,278.8132,,0,,278.8136,278.8137,,0,,1,278.8138,278.8138,278.814,280.2904,0,49,49,49,1,0.8,0.2,0.6,0.4,1,0,,,,,,,,,,,,,,,,,,,,,,,,,,,,,,,,,,,,
,,66d9ae66f6f721f4db56007c,66fc98426145664b605f1941,2024-10-01_17h49.28.199,mdp,2024.2.1,Win32,20,66fa4ebf79326e780c390304,,,,,,,,,,,,,,,,,,,,,,,,,,,,,,,,,,,,,,,,,,,,,,,,,,,,,,,,280.2907,338.8199,0,0,0,0,1,imgs/cat.png,imgs/dog.png,imgs/kangaroo.png,imgs/goat.png,imgs/giraffe.png,,,,,,,,,,,,,,,,,,,,,,,,
,,66d9ae66f6f721f4db56007c,66fc98426145664b605f1941,2024-10-01_17h49.28.199,mdp,2024.2.1,Win32,20,66fa4ebf79326e780c390304,,,,,,,,,,,,,,2,seqs/st2seq46.csv,338.8205,342.0257,space,2.6481,,342.028,342.028,342.0285,346.0116,0,0,left,3.3617,,346.0122,348.8524,1,1,right,348.853,348.8535,,0,,0,348.8535,348.8535,348.8539,350.359,0,0,0,0,1,0.2,0.8,0.6,0.4,,,,,,,,,,,,,,,2.2299,,0.2,0.8,0.6,0.4,0.2,0.8,0.8,0.2,1,0,,,,,,,,,,,,
,,66d9ae66f6f721f4db56007c,66fc98426145664b605f1941,2024-10-01_17h49.28.199,mdp,2024.2.1,Win32,20,66fa4ebf79326e780c390304,,,,,,,,,,,,,,,,,,,,,350.3593,350.3593,350.3598,352.2171,1,0,right,1.2479,,352.2177,353.6366,0,1,left,353.6373,353.6377,,0,,0,353.6377,353.6377,353.638,355.1078,0,1,1,1,1,0.2,0.8,0.6,0.4,,,,,,,,,,,,,,,0.8093,,0.2,0.8,0.6,0.4,0.2,0.8,0.8,0.2,1,0,,,,,,,,,,,,
,,66d9ae66f6f721f4db56007c,66fc98426145664b605f1941,2024-10-01_17h49.28.199,mdp,2024.2.1,Win32,20,66fa4ebf79326e780c390304,,,,,,,,,,,,,,,,,,,,,355.108,355.108,355.1086,356.0965,0,1,left,0.3778,,356.0971,357.0143,0,1,left,357.0149,357.0152,,1,,0,357.0152,357.0153,357.0157,358.521,0,2,2,2,1,0.2,0.8,0.6,0.4,,,,,,,,,,,,,,,0.3195,,0.2,0.8,0.6,0.4,0.2,0.8,0.8,0.2,1,0,,,,,,,,,,,,
,,66d9ae66f6f721f4db56007c,66fc98426145664b605f1941,2024-10-01_17h49.28.199,mdp,2024.2.1,Win32,20,66fa4ebf79326e780c390304,,,,,,,,,,,,,,,,,,,,,358.5212,358.5212,358.5217,359.5651,0,0,left,0.4369,,359.5657,360.4577,1,1,right,360.4581,360.4585,,0,,0,360.4585,360.4585,360.4587,361.9381,0,3,3,3,1,0.2,0.8,0.6,0.4,,,,,,,,,,,,,,,0.3153,,0.2,0.8,0.6,0.4,0.2,0.8,0.8,0.2,1,0,,,,,,,,,,,,
,,66d9ae66f6f721f4db56007c,66fc98426145664b605f1941,2024-10-01_17h49.28.199,mdp,2024.2.1,Win32,20,66fa4ebf79326e780c390304,,,,,,,,,,,,,,,,,,,,,361.9383,361.9383,361.9389,363.1703,1,1,right,0.6387,,363.1709,365.2715,1,1,right,365.272,365.2723,,0,,0,365.2723,365.2723,365.2725,366.7665,0,4,4,4,1,0.8,0.2,0.4,0.6,,,,,,,,,,,,,,,1.4994,,0.2,0.8,0.6,0.4,0.2,0.8,0.8,0.2,1,0,,,,,,,,,,,,
,,66d9ae66f6f721f4db56007c,66fc98426145664b605f1941,2024-10-01_17h49.28.199,mdp,2024.2.1,Win32,20,66fa4ebf79326e780c390304,,,,,,,,,,,,,,,,,,,,,366.7666,366.7666,366.7672,367.9361,1,1,right,0.5678,,367.9366,369.6088,0,1,left,369.6093,369.6097,,1,,0,369.6097,369.6097,369.6099,371.1088,0,5,5,5,1,0.8,0.2,0.4,0.6,,,,,,,,,,,,,,,1.0661,,0.2,0.8,0.6,0.4,0.2,0.8,0.8,0.2,1,0,,,,,,,,,,,,
,,66d9ae66f6f721f4db56007c,66fc98426145664b605f1941,2024-10-01_17h49.28.199,mdp,2024.2.1,Win32,20,66fa4ebf79326e780c390304,,,,,,,,,,,,,,,,,,,,,371.109,371.109,371.1096,374.316,0,0,left,2.6166,,374.3167,376.6625,0,0,left,376.6633,376.6637,,1,,1,376.6638,376.6638,376.664,378.1677,0,6,6,6,1,0.8,0.2,0.4,0.6,,,,,,,,,,,,,,,1.7406,,0.8,0.2,0.4,0.6,0.2,0.8,0.8,0.2,1,0,,,,,,,,,,,,
,,66d9ae66f6f721f4db56007c,66fc98426145664b605f1941,2024-10-01_17h49.28.199,mdp,2024.2.1,Win32,20,66fa4ebf79326e780c390304,,,,,,,,,,,,,,,,,,,,,378.168,378.168,378.1687,379.5319,0,0,left,0.7475,,379.5325,381.1771,0,0,left,381.1777,381.1779,,1,,1,381.178,381.178,381.1782,382.6686,0,7,7,7,1,0.8,0.2,0.4,0.6,,,,,,,,,,,,,,,1.0627,,0.8,0.2,0.4,0.6,0.2,0.8,0.8,0.2,1,0,,,,,,,,,,,,
,,66d9ae66f6f721f4db56007c,66fc98426145664b605f1941,2024-10-01_17h49.28.199,mdp,2024.2.1,Win32,20,66fa4ebf79326e780c390304,,,,,,,,,,,,,,,,,,,,,382.6688,382.6688,382.6693,383.7561,0,0,left,0.5002,,383.7567,385.178,0,0,left,385.1786,385.1789,,1,,1,385.1789,385.1789,385.1792,386.6619,0,8,8,8,1,0.8,0.2,0.4,0.6,,,,,,,,,,,,,,,0.8225,,0.8,0.2,0.4,0.6,0.2,0.8,0.8,0.2,1,0,,,,,,,,,,,,
,,66d9ae66f6f721f4db56007c,66fc98426145664b605f1941,2024-10-01_17h49.28.199,mdp,2024.2.1,Win32,20,66fa4ebf79326e780c390304,,,,,,,,,,,,,,,,,,,,,386.662,386.662,386.6628,388.1769,0,0,left,0.8883,,388.1776,389.2718,0,0,left,389.2724,389.2726,,0,,1,389.2726,389.2726,389.2729,390.764,0,9,9,9,1,0.8,0.2,0.4,0.6,,,,,,,,,,,,,,,0.5024,,0.8,0.2,0.4,0.6,0.4,0.6,0.2,0.8,1,0,,,,,,,,,,,,
,,66d9ae66f6f721f4db56007c,66fc98426145664b605f1941,2024-10-01_17h49.28.199,mdp,2024.2.1,Win32,20,66fa4ebf79326e780c390304,,,,,,,,,,,,,,,,,,,,,390.7641,390.7641,390.7647,391.7485,0,0,left,0.3796,,391.7491,392.7389,0,0,left,392.7395,392.7398,,0,,1,392.7398,392.7398,392.7401,394.2311,0,10,10,10,1,0.8,0.2,0.4,0.6,,,,,,,,,,,,,,,0.4409,,0.8,0.2,0.4,0.6,0.4,0.6,0.2,0.8,1,0,,,,,,,,,,,,
,,66d9ae66f6f721f4db56007c,66fc98426145664b605f1941,2024-10-01_17h49.28.199,mdp,2024.2.1,Win32,20,66fa4ebf79326e780c390304,,,,,,,,,,,,,,,,,,,,,394.2313,394.2313,394.2318,395.2835,0,0,left,0.4454,,395.2841,396.3749,0,0,left,396.3756,396.376,,0,,1,396.376,396.376,396.3763,397.8421,0,11,11,11,1,0.8,0.2,0.4,0.6,,,,,,,,,,,,,,,0.498,,0.8,0.2,0.4,0.6,0.4,0.6,0.2,0.8,1,0,,,,,,,,,,,,
,,66d9ae66f6f721f4db56007c,66fc98426145664b605f1941,2024-10-01_17h49.28.199,mdp,2024.2.1,Win32,20,66fa4ebf79326e780c390304,,,,,,,,,,,,,,,,,,,,,397.8423,397.8423,397.8428,398.9591,0,0,left,0.5058,,398.9596,399.8943,0,1,left,399.8949,399.8952,,1,,0,399.8952,399.8952,399.8954,401.3748,0,12,12,12,1,0.8,0.2,0.4,0.6,,,,,,,,,,,,,,,0.317,,0.8,0.2,0.4,0.6,0.4,0.6,0.2,0.8,1,0,,,,,,,,,,,,
,,66d9ae66f6f721f4db56007c,66fc98426145664b605f1941,2024-10-01_17h49.28.199,mdp,2024.2.1,Win32,20,66fa4ebf79326e780c390304,,,,,,,,,,,,,,,,,,,,,401.3751,401.3751,401.3756,402.4723,0,1,left,0.5013,,402.473,404.3117,1,1,right,404.3122,404.3124,,0,,0,404.3124,404.3125,404.3127,405.7992,0,13,13,13,1,0.8,0.2,0.4,0.6,,,,,,,,,,,,,,,1.2409,,0.8,0.2,0.4,0.6,0.4,0.6,0.2,0.8,1,0,,,,,,,,,,,,
,,66d9ae66f6f721f4db56007c,66fc98426145664b605f1941,2024-10-01_17h49.28.199,mdp,2024.2.1,Win32,20,66fa4ebf79326e780c390304,,,,,,,,,,,,,,,,,,,,,405.7994,405.7994,405.7999,406.9148,0,1,left,0.5565,,406.9155,407.9817,0,1,left,407.9823,407.9826,,1,,0,407.9827,407.9827,407.9829,409.435,0,14,14,14,1,0.8,0.2,0.4,0.6,,,,,,,,,,,,,,,0.4644,,0.8,0.2,0.4,0.6,0.4,0.6,0.2,0.8,1,0,,,,,,,,,,,,
,,66d9ae66f6f721f4db56007c,66fc98426145664b605f1941,2024-10-01_17h49.28.199,mdp,2024.2.1,Win32,20,66fa4ebf79326e780c390304,,,,,,,,,,,,,,,,,,,,,409.4352,409.4352,409.4358,410.2222,1,1,right,0.1855,,410.2227,411.5328,1,0,right,411.5334,411.5337,,0,,1,411.5337,411.5337,411.5339,413.0076,0,15,15,15,1,0.8,0.2,0.4,0.6,,,,,,,,,,,,,,,0.6996,,0.8,0.2,0.4,0.6,0.2,0.8,0.6,0.4,1,0,,,,,,,,,,,,
,,66d9ae66f6f721f4db56007c,66fc98426145664b605f1941,2024-10-01_17h49.28.199,mdp,2024.2.1,Win32,20,66fa4ebf79326e780c390304,,,,,,,,,,,,,,,,,,,,,413.0078,413.0078,413.0084,414.0498,1,0,right,0.4355,,414.0504,414.9815,1,1,right,414.9822,414.9825,,1,,0,414.9825,414.9825,414.9828,416.4624,0,16,16,16,1,0.4,0.6,0.8,0.2,,,,,,,,,,,,,,,0.325,,0.8,0.2,0.4,0.6,0.2,0.8,0.6,0.4,1,0,,,,,,,,,,,,
,,66d9ae66f6f721f4db56007c,66fc98426145664b605f1941,2024-10-01_17h49.28.199,mdp,2024.2.1,Win32,20,66fa4ebf79326e780c390304,,,,,,,,,,,,,,,,,,,,,416.4626,416.4626,416.4632,417.8204,1,0,right,0.7511,,417.8209,418.9175,0,0,left,418.918,418.9184,,1,,1,418.9184,418.9184,418.9187,420.3863,0,17,17,17,1,0.4,0.6,0.8,0.2,,,,,,,,,,,,,,,0.4985,,0.8,0.2,0.4,0.6,0.2,0.8,0.6,0.4,1,0,,,,,,,,,,,,
,,66d9ae66f6f721f4db56007c,66fc98426145664b605f1941,2024-10-01_17h49.28.199,mdp,2024.2.1,Win32,20,66fa4ebf79326e780c390304,,,,,,,,,,,,,,,,,,,,,420.3866,420.3866,420.3871,421.5445,1,1,right,0.5526,,421.5451,423.0481,1,0,right,423.0486,423.049,,0,,1,423.049,423.049,423.0493,424.5646,0,18,18,18,1,0.4,0.6,0.8,0.2,,,,,,,,,,,,,,,0.9386,,0.8,0.2,0.4,0.6,0.2,0.8,0.6,0.4,1,0,,,,,,,,,,,,
,,66d9ae66f6f721f4db56007c,66fc98426145664b605f1941,2024-10-01_17h49.28.199,mdp,2024.2.1,Win32,20,66fa4ebf79326e780c390304,,,,,,,,,,,,,,,,,,,,,424.5648,424.5648,424.5654,425.7372,1,0,right,0.5723,,425.7377,427.2719,0,0,left,427.2725,427.2728,,1,,1,427.2728,427.2728,427.2731,428.7607,0,19,19,19,1,0.4,0.6,0.8,0.2,,,,,,,,,,,,,,,0.929,,0.8,0.2,0.4,0.6,0.2,0.8,0.6,0.4,1,0,,,,,,,,,,,,
,,66d9ae66f6f721f4db56007c,66fc98426145664b605f1941,2024-10-01_17h49.28.199,mdp,2024.2.1,Win32,20,66fa4ebf79326e780c390304,,,,,,,,,,,,,,,,,,,,,428.7608,428.7608,428.7614,430.1761,1,0,right,0.8204,,430.1766,431.3007,0,0,left,431.3012,431.3015,,0,,1,431.3015,431.3015,431.3018,432.7839,0,20,20,20,1,0.4,0.6,0.8,0.2,,,,,,,,,,,,,,,0.5062,,0.8,0.2,0.4,0.6,0.2,0.8,0.6,0.4,1,0,,,,,,,,,,,,
,,66d9ae66f6f721f4db56007c,66fc98426145664b605f1941,2024-10-01_17h49.28.199,mdp,2024.2.1,Win32,20,66fa4ebf79326e780c390304,,,,,,,,,,,,,,,,,,,,,432.7841,432.7841,432.7847,433.9696,1,0,right,0.5713,,433.9703,435.0451,0,0,left,435.0456,435.0459,,0,,1,435.0459,435.0459,435.0462,436.5445,0,21,21,21,1,0.4,0.6,0.8,0.2,,,,,,,,,,,,,,,0.5076,,0.8,0.2,0.4,0.6,0.2,0.8,0.6,0.4,1,0,,,,,,,,,,,,
,,66d9ae66f6f721f4db56007c,66fc98426145664b605f1941,2024-10-01_17h49.28.199,mdp,2024.2.1,Win32,20,66fa4ebf79326e780c390304,,,,,,,,,,,,,,,,,,,,,436.5447,436.5447,436.5452,437.5593,1,0,right,0.4482,,437.5599,438.6651,0,0,left,438.6657,438.6661,,1,,1,438.6661,438.6661,438.6663,440.1482,0,22,22,22,1,0.4,0.6,0.8,0.2,,,,,,,,,,,,,,,0.4973,,0.8,0.2,0.4,0.6,0.2,0.8,0.6,0.4,1,0,,,,,,,,,,,,
,,66d9ae66f6f721f4db56007c,66fc98426145664b605f1941,2024-10-01_17h49.28.199,mdp,2024.2.1,Win32,20,66fa4ebf79326e780c390304,,,,,,,,,,,,,,,,,,,,,440.1484,440.1484,440.1489,441.368,1,0,right,0.6192,,441.3685,442.6045,0,1,left,442.6051,442.6053,,1,,0,442.6053,442.6053,442.6057,444.111,0,23,23,23,1,0.4,0.6,0.8,0.2,,,,,,,,,,,,,,,0.6246,,0.8,0.2,0.4,0.6,0.2,0.8,0.6,0.4,1,0,,,,,,,,,,,,
,,66d9ae66f6f721f4db56007c,66fc98426145664b605f1941,2024-10-01_17h49.28.199,mdp,2024.2.1,Win32,20,66fa4ebf79326e780c390304,,,,,,,,,,,,,,,,,,,,,444.1112,444.1112,444.1118,446.5269,1,0,right,1.8159,,446.5275,447.4837,1,1,right,447.4843,447.4846,,0,,0,447.4846,447.4846,447.4848,448.9541,0,24,24,24,1,0.4,0.6,0.8,0.2,,,,,,,,,,,,,,,0.3637,,0.8,0.2,0.4,0.6,0.2,0.8,0.6,0.4,1,0,,,,,,,,,,,,
,,66d9ae66f6f721f4db56007c,66fc98426145664b605f1941,2024-10-01_17h49.28.199,mdp,2024.2.1,Win32,20,66fa4ebf79326e780c390304,,,,,,,,,,,,,,,,,,,,,448.9543,448.9543,448.9549,449.9504,0,1,left,0.3916,,449.951,451.8542,0,0,left,451.8548,451.8551,,1,,1,451.8551,451.8551,451.8554,453.3551,0,25,25,25,1,0.4,0.6,0.8,0.2,,,,,,,,,,,,,,,1.2903,,0.8,0.2,0.4,0.6,0.2,0.8,0.6,0.4,1,0,,,,,,,,,,,,
,,66d9ae66f6f721f4db56007c,66fc98426145664b605f1941,2024-10-01_17h49.28.199,mdp,2024.2.1,Win32,20,66fa4ebf79326e780c390304,,,,,,,,,,,,,,,,,,,,,453.3553,453.3553,453.3559,454.5181,0,0,left,0.5699,,454.5188,455.823,1,0,right,455.8236,455.8239,,0,,1,455.8239,455.8239,455.8242,457.2889,0,26,26,26,1,0.4,0.6,0.8,0.2,,,,,,,,,,,,,,,0.6885,,0.4,0.6,0.6,0.4,0.2,0.8,0.6,0.4,1,0,,,,,,,,,,,,
,,66d9ae66f6f721f4db56007c,66fc98426145664b605f1941,2024-10-01_17h49.28.199,mdp,2024.2.1,Win32,20,66fa4ebf79326e780c390304,,,,,,,,,,,,,,,,,,,,,457.2891,457.2891,457.2896,458.4518,0,0,left,0.5662,,458.4525,461.3069,1,1,right,461.3074,461.3077,,0,,0,461.3077,461.3077,461.3079,462.8106,0,27,27,27,1,0.4,0.6,0.8,0.2,,,,,,,,,,,,,,,2.2472,,0.6,0.4,0.8,0.2,0.2,0.8,0.6,0.4,1,0,,,,,,,,,,,,
,,66d9ae66f6f721f4db56007c,66fc98426145664b605f1941,2024-10-01_17h49.28.199,mdp,2024.2.1,Win32,20,66fa4ebf79326e780c390304,,,,,,,,,,,,,,,,,,,,,462.8109,462.8109,462.8114,465.3753,0,1,left,2.0016,,465.376,467.4087,0,1,left,467.4094,467.4097,,0,,0,467.4097,467.4097,467.41,468.8722,0,28,28,28,1,0.4,0.6,0.8,0.2,,,,,,,,,,,,,,,1.4277,,0.6,0.4,0.8,0.2,0.2,0.8,0.6,0.4,1,0,,,,,,,,,,,,
,,66d9ae66f6f721f4db56007c,66fc98426145664b605f1941,2024-10-01_17h49.28.199,mdp,2024.2.1,Win32,20,66fa4ebf79326e780c390304,,,,,,,,,,,,,,,,,,,,,468.8724,468.8724,468.8728,470.0098,0,1,left,0.5833,,470.0103,471.3757,1,1,right,471.3762,471.3765,,0,,0,471.3765,471.3765,471.3768,472.848,0,29,29,29,1,0.2,0.8,0.6,0.4,,,,,,,,,,,,,,,0.7519,,0.6,0.4,0.8,0.2,0.2,0.8,0.6,0.4,1,0,,,,,,,,,,,,
,,66d9ae66f6f721f4db56007c,66fc98426145664b605f1941,2024-10-01_17h49.28.199,mdp,2024.2.1,Win32,20,66fa4ebf79326e780c390304,,,,,,,,,,,,,,,,,,,,,472.8482,472.8482,472.8489,473.9011,1,0,right,0.4431,,473.9017,475.5756,0,1,left,475.5761,475.5764,,0,,0,475.5764,475.5764,475.5767,477.0418,0,30,30,30,1,0.2,0.8,0.6,0.4,,,,,,,,,,,,,,,1.0746,,0.6,0.4,0.8,0.2,0.2,0.8,0.6,0.4,1,0,,,,,,,,,,,,
,,66d9ae66f6f721f4db56007c,66fc98426145664b605f1941,2024-10-01_17h49.28.199,mdp,2024.2.1,Win32,20,66fa4ebf79326e780c390304,,,,,,,,,,,,,,,,,,,,,477.042,477.042,477.0426,478.2899,1,1,right,0.6393,,478.2905,480.4536,0,1,left,480.4542,480.4546,,0,,0,480.4546,480.4546,480.4549,481.9303,0,31,31,31,1,0.2,0.8,0.6,0.4,,,,,,,,,,,,,,,1.5627,,0.4,0.6,0.6,0.4,0.2,0.8,0.6,0.4,1,0,,,,,,,,,,,,
,,66d9ae66f6f721f4db56007c,66fc98426145664b605f1941,2024-10-01_17h49.28.199,mdp,2024.2.1,Win32,20,66fa4ebf79326e780c390304,,,,,,,,,,,,,,,,,,,,,481.9304,481.9304,481.931,483.3081,1,1,right,0.8203,,483.3086,484.4922,1,0,right,484.4928,484.4931,,0,,1,484.4931,484.4931,484.4934,485.9974,0,32,32,32,1,0.2,0.8,0.6,0.4,,,,,,,,,,,,,,,0.5702,,0.4,0.6,0.6,0.4,0.2,0.8,0.6,0.4,1,0,,,,,,,,,,,,
,,66d9ae66f6f721f4db56007c,66fc98426145664b605f1941,2024-10-01_17h49.28.199,mdp,2024.2.1,Win32,20,66fa4ebf79326e780c390304,,,,,,,,,,,,,,,,,,,,,485.9976,485.9976,485.9982,486.9855,1,1,right,0.3857,,486.9864,488.2002,1,1,right,488.2009,488.2012,,1,,0,488.2013,488.2013,488.2015,489.6762,0,33,33,33,1,0.2,0.8,0.6,0.4,,,,,,,,,,,,,,,0.6125,,0.4,0.6,0.6,0.4,0.2,0.8,0.6,0.4,1,0,,,,,,,,,,,,
,,66d9ae66f6f721f4db56007c,66fc98426145664b605f1941,2024-10-01_17h49.28.199,mdp,2024.2.1,Win32,20,66fa4ebf79326e780c390304,,,,,,,,,,,,,,,,,,,,,489.6765,489.6765,489.677,490.6623,0,1,left,0.3876,,490.6629,491.6937,1,0,right,491.6942,491.6946,,0,,1,491.6946,491.6946,491.6949,493.1572,0,34,34,34,1,0.2,0.8,0.6,0.4,,,,,,,,,,,,,,,0.4407,,0.4,0.6,0.6,0.4,0.2,0.8,0.6,0.4,1,0,,,,,,,,,,,,
,,66d9ae66f6f721f4db56007c,66fc98426145664b605f1941,2024-10-01_17h49.28.199,mdp,2024.2.1,Win32,20,66fa4ebf79326e780c390304,,,,,,,,,,,,,,,,,,,,,493.1573,493.1573,493.1579,494.5773,0,1,left,0.8092,,494.5778,495.5352,1,0,right,495.5358,495.5362,,0,,1,495.5362,495.5362,495.5365,497.0137,0,35,35,35,1,0.2,0.8,0.6,0.4,,,,,,,,,,,,,,,0.3904,,0.4,0.6,0.6,0.4,0.2,0.8,0.6,0.4,1,0,,,,,,,,,,,,
,,66d9ae66f6f721f4db56007c,66fc98426145664b605f1941,2024-10-01_17h49.28.199,mdp,2024.2.1,Win32,20,66fa4ebf79326e780c390304,,,,,,,,,,,,,,,,,,,,,497.0138,497.0139,497.0145,498.2339,0,1,left,0.6283,,498.2345,499.478,1,0,right,499.4786,499.4789,,1,,1,499.4789,499.4789,499.4792,500.9561,0,36,36,36,1,0.2,0.8,0.6,0.4,,,,,,,,,,,,,,,0.626,,0.4,0.6,0.6,0.4,0.2,0.8,0.6,0.4,1,0,,,,,,,,,,,,
,,66d9ae66f6f721f4db56007c,66fc98426145664b605f1941,2024-10-01_17h49.28.199,mdp,2024.2.1,Win32,20,66fa4ebf79326e780c390304,,,,,,,,,,,,,,,,,,,,,500.9564,500.9564,500.9572,501.9125,0,1,left,0.3774,,501.9131,502.9708,1,1,right,502.9713,502.9717,,1,,0,502.9717,502.9717,502.972,504.474,0,37,37,37,1,0.2,0.8,0.6,0.4,,,,,,,,,,,,,,,0.5061,,0.8,0.2,0.2,0.8,0.2,0.8,0.6,0.4,1,0,,,,,,,,,,,,
,,66d9ae66f6f721f4db56007c,66fc98426145664b605f1941,2024-10-01_17h49.28.199,mdp,2024.2.1,Win32,20,66fa4ebf79326e780c390304,,,,,,,,,,,,,,,,,,,,,504.4742,504.4742,504.4749,505.7628,0,1,left,0.6902,,505.7634,506.8779,0,0,left,506.8786,506.8788,,1,,1,506.8788,506.8788,506.8791,508.3342,0,38,38,38,1,0.2,0.8,0.6,0.4,,,,,,,,,,,,,,,0.5055,,0.8,0.2,0.2,0.8,0.2,0.8,0.6,0.4,1,0,,,,,,,,,,,,
,,66d9ae66f6f721f4db56007c,66fc98426145664b605f1941,2024-10-01_17h49.28.199,mdp,2024.2.1,Win32,20,66fa4ebf79326e780c390304,,,,,,,,,,,,,,,,,,,,,508.3344,508.3344,508.3349,509.4578,0,1,left,0.5591,,509.4584,510.5148,0,1,left,510.5153,510.5156,,1,,0,510.5157,510.5157,510.516,512.0203,0,39,39,39,1,0.2,0.8,0.6,0.4,,,,,,,,,,,,,,,0.4479,,0.8,0.2,0.2,0.8,0.2,0.8,0.6,0.4,1,0,,,,,,,,,,,,
,,66d9ae66f6f721f4db56007c,66fc98426145664b605f1941,2024-10-01_17h49.28.199,mdp,2024.2.1,Win32,20,66fa4ebf79326e780c390304,,,,,,,,,,,,,,,,,,,,,512.0205,512.0205,512.0211,513.0449,1,0,right,0.4674,,513.0458,515.29,0,0,left,515.2905,515.2908,,0,,1,515.2908,515.2908,515.2911,516.7457,0,40,40,40,1,0.2,0.8,0.6,0.4,,,,,,,,,,,,,,,1.626,,0.8,0.2,0.2,0.8,0.2,0.8,0.6,0.4,1,0,,,,,,,,,,,,
,,66d9ae66f6f721f4db56007c,66fc98426145664b605f1941,2024-10-01_17h49.28.199,mdp,2024.2.1,Win32,20,66fa4ebf79326e780c390304,,,,,,,,,,,,,,,,,,,,,516.7459,516.7459,516.7466,517.9305,1,1,right,0.5757,,517.931,519.4763,1,0,right,519.4769,519.4771,,1,,1,519.4771,519.4771,519.4774,520.9658,0,41,41,41,1,0.2,0.8,0.6,0.4,,,,,,,,,,,,,,,0.9495,,0.8,0.2,0.2,0.8,0.2,0.8,0.6,0.4,1,0,,,,,,,,,,,,
,,66d9ae66f6f721f4db56007c,66fc98426145664b605f1941,2024-10-01_17h49.28.199,mdp,2024.2.1,Win32,20,66fa4ebf79326e780c390304,,,,,,,,,,,,,,,,,,,,,520.966,520.966,520.9667,522.0092,1,1,right,0.4414,,522.0098,523.7995,1,0,right,523.8002,523.8006,,0,,1,523.8006,523.8006,523.8009,525.2844,0,42,42,42,1,0.2,0.8,0.6,0.4,,,,,,,,,,,,,,,1.1753,,0.8,0.2,0.2,0.8,0.2,0.8,0.6,0.4,1,0,,,,,,,,,,,,
,,66d9ae66f6f721f4db56007c,66fc98426145664b605f1941,2024-10-01_17h49.28.199,mdp,2024.2.1,Win32,20,66fa4ebf79326e780c390304,,,,,,,,,,,,,,,,,,,,,525.2846,525.2846,525.2851,526.5236,1,0,right,0.6411,,526.5242,527.7054,0,0,left,527.706,527.7063,,0,,1,527.7063,527.7063,527.7066,529.1841,0,43,43,43,1,0.4,0.6,0.8,0.2,,,,,,,,,,,,,,,0.5712,,0.8,0.2,0.2,0.8,0.2,0.8,0.6,0.4,1,0,,,,,,,,,,,,
,,66d9ae66f6f721f4db56007c,66fc98426145664b605f1941,2024-10-01_17h49.28.199,mdp,2024.2.1,Win32,20,66fa4ebf79326e780c390304,,,,,,,,,,,,,,,,,,,,,529.1843,529.1843,529.1848,530.3658,1,1,right,0.6261,,530.3665,531.7273,1,1,right,531.7278,531.7281,,0,,0,531.7281,531.7281,531.7284,533.1813,0,44,44,44,1,0.4,0.6,0.8,0.2,,,,,,,,,,,,,,,0.7505,,0.8,0.2,0.2,0.8,0.2,0.8,0.6,0.4,1,0,,,,,,,,,,,,
,,66d9ae66f6f721f4db56007c,66fc98426145664b605f1941,2024-10-01_17h49.28.199,mdp,2024.2.1,Win32,20,66fa4ebf79326e780c390304,,,,,,,,,,,,,,,,,,,,,533.1815,533.1815,533.1821,534.1807,0,1,left,0.3787,,534.1812,536.1103,0,1,left,536.1108,536.1112,,1,,0,536.1112,536.1112,536.1114,537.5729,0,45,45,45,1,0.4,0.6,0.8,0.2,,,,,,,,,,,,,,,1.323,,0.8,0.2,0.2,0.8,0.2,0.8,0.6,0.4,1,0,,,,,,,,,,,,
,,66d9ae66f6f721f4db56007c,66fc98426145664b605f1941,2024-10-01_17h49.28.199,mdp,2024.2.1,Win32,20,66fa4ebf79326e780c390304,,,,,,,,,,,,,,,,,,,,,537.5732,537.5732,537.5739,538.6843,1,0,right,0.5053,,538.685,541.0988,0,0,left,541.0994,541.0997,,1,,1,541.0997,541.0997,541.1,542.5989,0,46,46,46,1,0.4,0.6,0.8,0.2,,,,,,,,,,,,,,,1.8017,,0.6,0.4,0.4,0.6,0.2,0.8,0.6,0.4,1,0,,,,,,,,,,,,
,,66d9ae66f6f721f4db56007c,66fc98426145664b605f1941,2024-10-01_17h49.28.199,mdp,2024.2.1,Win32,20,66fa4ebf79326e780c390304,,,,,,,,,,,,,,,,,,,,,542.5991,542.5991,542.5997,543.7738,1,0,right,0.5668,,543.7743,545.2088,0,0,left,545.2093,545.2096,,1,,1,545.2096,545.2096,545.2098,546.6802,0,47,47,47,1,0.4,0.6,0.8,0.2,,,,,,,,,,,,,,,0.8332,,0.6,0.4,0.4,0.6,0.2,0.8,0.6,0.4,1,0,,,,,,,,,,,,
,,66d9ae66f6f721f4db56007c,66fc98426145664b605f1941,2024-10-01_17h49.28.199,mdp,2024.2.1,Win32,20,66fa4ebf79326e780c390304,,,,,,,,,,,,,,,,,,,,,546.6804,546.6804,546.6811,547.8487,1,0,right,0.5586,,547.8491,548.9765,0,1,left,548.9771,548.9774,,1,,0,548.9774,548.9774,548.9777,550.4668,0,48,48,48,1,0.4,0.6,0.8,0.2,,,,,,,,,,,,,,,0.5713,,0.6,0.4,0.4,0.6,0.2,0.8,0.6,0.4,1,0,,,,,,,,,,,,
,,66d9ae66f6f721f4db56007c,66fc98426145664b605f1941,2024-10-01_17h49.28.199,mdp,2024.2.1,Win32,20,66fa4ebf79326e780c390304,,,,,,,,,,,,,,,,,,,,,550.4669,550.4669,550.4675,551.8025,1,0,right,0.7169,,551.803,552.733,1,0,right,552.7337,552.7339,,0,,1,552.7339,552.7339,552.7342,554.2231,0,49,49,49,1,0.6,0.4,0.4,0.6,,,,,,,,,,,,,,,0.375,,0.6,0.4,0.4,0.6,0.2,0.8,0.6,0.4,1,0,,,,,,,,,,,,
,,66d9ae66f6f721f4db56007c,66fc98426145664b605f1941,2024-10-01_17h49.28.199,mdp,2024.2.1,Win32,20,66fa4ebf79326e780c390304,,,,,,,,,,,,,,,,,,,,,,,,,,,,,,,,,,,,,,,,,,,,,,,,,,,,,,,,554.2232,612.7897,0,1,1,7,1,imgs/dog.png,imgs/goat.png,imgs/elephant.png,imgs/rabbit.png,imgs/kangaroo.png,,,,,,,,,,,,,,,,,,,,,,,,
,,66d9ae66f6f721f4db56007c,66fc98426145664b605f1941,2024-10-01_17h49.28.199,mdp,2024.2.1,Win32,20,66fa4ebf79326e780c390304,,,,,,,,,,,,,,3,seqs/st3seq49.csv,612.7903,622.4764,space,9.0733,,622.4801,622.4802,622.4806,623.9935,0,1,left,0.8942,,623.9941,625.5165,0,1,left,625.517,626.8369,0,1,left,0,626.837,626.837,626.8378,628.3201,0,0,0,0,1,0.2,0.8,0.6,0.4,,,,,,,,,,,,,,,0.9148,,0.6,0.4,0.6,0.4,0.2,0.8,0.6,0.4,,,0.7009,,0.2,0.8,0.2,0.8,0.6,0.4,0.2,0.8,1,0
,,66d9ae66f6f721f4db56007c,66fc98426145664b605f1941,2024-10-01_17h49.28.199,mdp,2024.2.1,Win32,20,66fa4ebf79326e780c390304,,,,,,,,,,,,,,,,,,,,,628.3204,628.3204,628.3208,629.5258,0,1,left,0.6027,,629.5265,630.6507,1,0,right,630.6516,632.6382,1,1,right,0,632.6382,632.6382,632.6388,634.1406,0,1,1,1,1,0.2,0.8,0.6,0.4,,,,,,,,,,,,,,,0.5138,,0.6,0.4,0.6,0.4,0.2,0.8,0.6,0.4,,,1.3885,,0.2,0.8,0.2,0.8,0.6,0.4,0.2,0.8,1,0
,,66d9ae66f6f721f4db56007c,66fc98426145664b605f1941,2024-10-01_17h49.28.199,mdp,2024.2.1,Win32,20,66fa4ebf79326e780c390304,,,,,,,,,,,,,,,,,,,,,634.1409,634.1409,634.1415,635.4331,0,1,left,0.6863,,635.4339,637.2845,1,1,right,637.285,639.7387,1,1,right,0,639.7388,639.7388,639.7393,641.2019,0,2,2,2,1,0.2,0.8,0.6,0.4,,,,,,,,,,,,,,,1.242,,0.6,0.4,0.6,0.4,0.4,0.6,0.2,0.8,,,1.8549,,0.2,0.8,0.2,0.8,0.6,0.4,0.2,0.8,1,0
,,66d9ae66f6f721f4db56007c,66fc98426145664b605f1941,2024-10-01_17h49.28.199,mdp,2024.2.1,Win32,20,66fa4ebf79326e780c390304,,,,,,,,,,,,,,,,,,,,,641.2022,641.2022,641.2026,642.191,0,1,left,0.3769,,642.1915,643.1621,0,1,left,643.1628,644.3957,1,1,right,0,644.3958,644.3958,644.3963,645.8897,0,3,3,3,1,0.2,0.8,0.6,0.4,,,,,,,,,,,,,,,0.3805,,0.6,0.4,0.6,0.4,0.4,0.6,0.2,0.8,,,0.6255,,0.2,0.8,0.2,0.8,0.6,0.4,0.2,0.8,1,0
,,66d9ae66f6f721f4db56007c,66fc98426145664b605f1941,2024-10-01_17h49.28.199,mdp,2024.2.1,Win32,20,66fa4ebf79326e780c390304,,,,,,,,,,,,,,,,,,,,,645.89,645.89,645.8906,646.8603,1,0,right,0.3725,,646.8609,649.1675,0,0,left,649.1681,651.6408,0,1,left,0,651.6409,651.6409,651.6414,653.123,0,4,4,4,1,0.2,0.8,0.6,0.4,,,,,,,,,,,,,,,1.7017,,0.6,0.4,0.6,0.4,0.4,0.6,0.2,0.8,,,1.8496,,0.2,0.8,0.2,0.8,0.6,0.4,0.2,0.8,1,0
,,66d9ae66f6f721f4db56007c,66fc98426145664b605f1941,2024-10-01_17h49.28.199,mdp,2024.2.1,Win32,20,66fa4ebf79326e780c390304,,,,,,,,,,,,,,,,,,,,,653.1233,653.1233,653.1238,654.1008,1,0,right,0.3832,,654.1014,655.3298,1,1,right,655.3304,657.2263,0,0,left,1,657.2263,657.2263,657.2268,658.7137,0,5,5,5,1,0.2,0.8,0.6,0.4,,,,,,,,,,,,,,,0.6205,,0.6,0.4,0.6,0.4,0.4,0.6,0.2,0.8,,,1.3058,,0.2,0.8,0.2,0.8,0.6,0.4,0.2,0.8,1,0
,,66d9ae66f6f721f4db56007c,66fc98426145664b605f1941,2024-10-01_17h49.28.199,mdp,2024.2.1,Win32,20,66fa4ebf79326e780c390304,,,,,,,,,,,,,,,,,,,,,658.7139,658.7139,658.7145,659.8984,1,0,right,0.5783,,659.899,661.0737,1,0,right,661.0744,662.5915,1,1,right,0,662.5916,662.5916,662.5921,664.0767,0,6,6,6,1,0.2,0.8,0.6,0.4,,,,,,,,,,,,,,,0.5666,,0.6,0.4,0.6,0.4,0.4,0.6,0.2,0.8,,,0.9306,,0.2,0.8,0.2,0.8,0.6,0.4,0.2,0.8,1,0
,,66d9ae66f6f721f4db56007c,66fc98426145664b605f1941,2024-10-01_17h49.28.199,mdp,2024.2.1,Win32,20,66fa4ebf79326e780c390304,,,,,,,,,,,,,,,,,,,,,664.0769,664.0769,664.0776,665.2394,1,1,right,0.5642,,665.2399,666.9201,0,1,left,666.9207,668.6016,0,0,left,1,668.6016,668.6016,668.6021,670.0572,0,7,7,7,1,0.2,0.8,0.6,0.4,,,,,,,,,,,,,,,1.0731,,0.6,0.4,0.6,0.4,0.4,0.6,0.2,0.8,,,1.0666,,0.2,0.8,0.2,0.8,0.6,0.4,0.2,0.8,1,0
,,66d9ae66f6f721f4db56007c,66fc98426145664b605f1941,2024-10-01_17h49.28.199,mdp,2024.2.1,Win32,20,66fa4ebf79326e780c390304,,,,,,,,,,,,,,,,,,,,,670.0574,670.0574,670.0581,671.2874,1,1,right,0.6236,,671.2881,672.5702,0,1,left,672.5707,673.6687,0,0,left,1,673.6688,673.6688,673.6693,675.1403,0,8,8,8,1,0.2,0.8,0.6,0.4,,,,,,,,,,,,,,,0.6822,,0.6,0.4,0.6,0.4,0.4,0.6,0.2,0.8,,,0.5015,,0.2,0.8,0.2,0.8,0.6,0.4,0.2,0.8,1,0
,,66d9ae66f6f721f4db56007c,66fc98426145664b605f1941,2024-10-01_17h49.28.199,mdp,2024.2.1,Win32,20,66fa4ebf79326e780c390304,,,,,,,,,,,,,,,,,,,,,675.1405,675.1405,675.1412,676.5016,1,0,right,0.755,,676.5022,679.685,1,1,right,679.6855,681.5261,1,0,right,1,681.5262,681.5262,681.5268,683.0174,0,9,9,9,1,0.2,0.8,0.6,0.4,,,,,,,,,,,,,,,2.6233,,0.6,0.4,0.6,0.4,0.4,0.6,0.2,0.8,,,1.2353,,0.2,0.8,0.2,0.8,0.6,0.4,0.2,0.8,1,0
,,66d9ae66f6f721f4db56007c,66fc98426145664b605f1941,2024-10-01_17h49.28.199,mdp,2024.2.1,Win32,20,66fa4ebf79326e780c390304,,,,,,,,,,,,,,,,,,,,,683.0176,683.0176,683.0181,684.5112,1,0,right,0.9395,,684.5118,685.9268,1,0,right,685.9273,687.6622,0,0,left,1,687.6622,687.6622,687.6627,689.1451,0,10,10,10,1,0.2,0.8,0.6,0.4,,,,,,,,,,,,,,,0.8104,,0.6,0.4,0.6,0.4,0.4,0.6,0.2,0.8,,,1.175,,0.2,0.8,0.2,0.8,0.6,0.4,0.2,0.8,1,0
,,66d9ae66f6f721f4db56007c,66fc98426145664b605f1941,2024-10-01_17h49.28.199,mdp,2024.2.1,Win32,20,66fa4ebf79326e780c390304,,,,,,,,,,,,,,,,,,,,,689.1453,689.1453,689.1459,690.3538,1,1,right,0.5925,,690.3543,691.8233,0,0,left,691.8239,694.4862,1,1,right,0,694.4862,694.4862,694.4868,695.9877,0,11,11,11,1,0.2,0.8,0.6,0.4,,,,,,,,,,,,,,,0.8751,,0.6,0.4,0.6,0.4,0.4,0.6,0.2,0.8,,,2.0672,,0.2,0.8,0.2,0.8,0.6,0.4,0.2,0.8,1,0
,,66d9ae66f6f721f4db56007c,66fc98426145664b605f1941,2024-10-01_17h49.28.199,mdp,2024.2.1,Win32,20,66fa4ebf79326e780c390304,,,,,,,,,,,,,,,,,,,,,695.988,695.988,695.9889,697.3281,1,0,right,0.7432,,697.3287,698.9617,1,0,right,698.9623,703.1241,0,1,left,0,703.1241,703.1241,703.1246,704.5908,0,12,12,12,1,0.2,0.8,0.6,0.4,,,,,,,,,,,,,,,1.0131,,0.6,0.4,0.6,0.4,0.8,0.2,0.4,0.6,,,3.603,,0.2,0.8,0.2,0.8,0.6,0.4,0.2,0.8,1,0
,,66d9ae66f6f721f4db56007c,66fc98426145664b605f1941,2024-10-01_17h49.28.199,mdp,2024.2.1,Win32,20,66fa4ebf79326e780c390304,,,,,,,,,,,,,,,,,,,,,704.5911,704.5911,704.5916,705.6963,0,1,left,0.494,,705.6968,708.5508,0,0,left,708.5514,712.2714,1,1,right,0,712.2714,712.2714,712.2719,713.7505,0,13,13,13,1,0.2,0.8,0.6,0.4,,,,,,,,,,,,,,,2.2448,,0.6,0.4,0.6,0.4,0.8,0.2,0.4,0.6,,,3.1138,,0.2,0.8,0.2,0.8,0.6,0.4,0.2,0.8,1,0
,,66d9ae66f6f721f4db56007c,66fc98426145664b605f1941,2024-10-01_17h49.28.199,mdp,2024.2.1,Win32,20,66fa4ebf79326e780c390304,,,,,,,,,,,,,,,,,,,,,713.7506,713.7507,713.7512,714.7412,1,0,right,0.385,,714.7418,718.1933,1,1,right,718.194,720.1767,1,1,right,0,720.1767,720.1767,720.1773,721.6573,0,14,14,14,1,0.2,0.8,0.6,0.4,,,,,,,,,,,,,,,2.8443,,0.6,0.4,0.6,0.4,0.8,0.2,0.4,0.6,,,1.3722,,0.2,0.8,0.2,0.8,0.4,0.6,0.6,0.4,1,0
,,66d9ae66f6f721f4db56007c,66fc98426145664b605f1941,2024-10-01_17h49.28.199,mdp,2024.2.1,Win32,20,66fa4ebf79326e780c390304,,,,,,,,,,,,,,,,,,,,,721.6575,721.6575,721.6581,722.8937,0,0,left,0.6352,,722.8944,724.3285,0,0,left,724.3291,726.6365,1,1,right,0,726.6366,726.6366,726.6371,728.1149,0,15,15,15,1,0.2,0.8,0.6,0.4,,,,,,,,,,,,,,,0.8745,,0.6,0.4,0.6,0.4,0.8,0.2,0.4,0.6,,,1.7054,,0.2,0.8,0.2,0.8,0.4,0.6,0.6,0.4,1,0
,,66d9ae66f6f721f4db56007c,66fc98426145664b605f1941,2024-10-01_17h49.28.199,mdp,2024.2.1,Win32,20,66fa4ebf79326e780c390304,,,,,,,,,,,,,,,,,,,,,728.1152,728.1152,728.1157,729.0996,0,1,left,0.3854,,729.1002,731.0943,0,0,left,731.095,734.5489,1,0,right,1,734.549,734.549,734.5496,736.0282,0,16,16,16,1,0.2,0.8,0.6,0.4,,,,,,,,,,,,,,,1.3834,,0.6,0.4,0.6,0.4,0.8,0.2,0.4,0.6,,,2.8686,,0.2,0.8,0.2,0.8,0.4,0.6,0.6,0.4,1,0
,,66d9ae66f6f721f4db56007c,66fc98426145664b605f1941,2024-10-01_17h49.28.199,mdp,2024.2.1,Win32,20,66fa4ebf79326e780c390304,,,,,,,,,,,,,,,,,,,,,736.0284,736.0284,736.0291,737.0958,0,1,left,0.4725,,737.0966,738.5444,0,1,left,738.5451,740.0687,0,1,left,0,740.0688,740.0688,740.0696,741.5244,0,17,17,17,1,0.2,0.8,0.6,0.4,,,,,,,,,,,,,,,0.8624,,0.6,0.4,0.6,0.4,0.8,0.2,0.4,0.6,,,0.9352,,0.2,0.8,0.2,0.8,0.4,0.6,0.6,0.4,1,0
,,66d9ae66f6f721f4db56007c,66fc98426145664b605f1941,2024-10-01_17h49.28.199,mdp,2024.2.1,Win32,20,66fa4ebf79326e780c390304,,,,,,,,,,,,,,,,,,,,,741.5247,741.5247,741.5255,742.7768,0,1,left,0.6614,,742.7774,744.6443,0,0,left,744.6449,746.8006,1,1,right,0,746.8006,746.8006,746.8011,748.2781,0,18,18,18,1,0.2,0.8,0.6,0.4,,,,,,,,,,,,,,,1.2574,,0.6,0.4,0.6,0.4,0.8,0.2,0.4,0.6,,,1.5459,,0.2,0.8,0.2,0.8,0.4,0.6,0.6,0.4,1,0
,,66d9ae66f6f721f4db56007c,66fc98426145664b605f1941,2024-10-01_17h49.28.199,mdp,2024.2.1,Win32,20,66fa4ebf79326e780c390304,,,,,,,,,,,,,,,,,,,,,748.2783,748.2783,748.279,749.4111,1,1,right,0.5687,,749.4119,750.621,1,0,right,750.6217,753.3425,0,1,left,0,753.3425,753.3425,753.343,754.837,0,19,19,19,1,0.2,0.8,0.6,0.4,,,,,,,,,,,,,,,0.6045,,0.6,0.4,0.6,0.4,0.8,0.2,0.4,0.6,,,2.1216,,0.2,0.8,0.2,0.8,0.4,0.6,0.6,0.4,1,0
,,66d9ae66f6f721f4db56007c,66fc98426145664b605f1941,2024-10-01_17h49.28.199,mdp,2024.2.1,Win32,20,66fa4ebf79326e780c390304,,,,,,,,,,,,,,,,,,,,,754.8373,754.8374,754.8382,756.1353,0,0,left,0.6805,,756.1359,759.5228,1,1,right,759.5234,761.5926,0,0,left,1,761.5926,761.5926,761.5932,763.0991,0,20,20,20,1,0.2,0.8,0.6,0.4,,,,,,,,,,,,,,,2.7767,,0.6,0.4,0.6,0.4,0.8,0.2,0.4,0.6,,,1.5076,,0.2,0.8,0.2,0.8,0.4,0.6,0.6,0.4,1,0
,,66d9ae66f6f721f4db56007c,66fc98426145664b605f1941,2024-10-01_17h49.28.199,mdp,2024.2.1,Win32,20,66fa4ebf79326e780c390304,,,,,,,,,,,,,,,,,,,,,763.0995,763.0995,763.1003,764.2049,0,1,left,0.5123,,764.2055,766.6688,0,0,left,766.6694,769.4415,1,1,right,0,769.4416,769.4416,769.4422,770.9341,0,21,21,21,1,0.2,0.8,0.6,0.4,,,,,,,,,,,,,,,1.8598,,0.6,0.4,0.6,0.4,0.6,0.4,0.2,0.8,,,2.1657,,0.2,0.8,0.2,0.8,0.4,0.6,0.6,0.4,1,0
,,66d9ae66f6f721f4db56007c,66fc98426145664b605f1941,2024-10-01_17h49.28.199,mdp,2024.2.1,Win32,20,66fa4ebf79326e780c390304,,,,,,,,,,,,,,,,,,,,,770.9344,770.9344,770.9349,772.1618,0,1,left,0.6221,,772.1626,776.483,0,0,left,776.4836,779.2283,1,1,right,0,779.2284,779.2284,779.229,780.7148,0,22,22,22,1,0.2,0.8,0.6,0.4,,,,,,,,,,,,,,,3.718,,0.6,0.4,0.6,0.4,0.6,0.4,0.2,0.8,,,2.1628,,0.2,0.8,0.2,0.8,0.8,0.2,0.2,0.8,1,0
,,66d9ae66f6f721f4db56007c,66fc98426145664b605f1941,2024-10-01_17h49.28.199,mdp,2024.2.1,Win32,20,66fa4ebf79326e780c390304,,,,,,,,,,,,,,,,,,,,,780.7151,780.7151,780.7157,782.5598,1,1,right,1.2479,,782.5605,783.8055,1,1,right,783.806,785.7859,1,1,right,0,785.7859,785.7859,785.7867,787.2807,0,23,23,23,1,0.2,0.8,0.6,0.4,,,,,,,,,,,,,,,0.6297,,0.6,0.4,0.6,0.4,0.6,0.4,0.2,0.8,,,1.3754,,0.2,0.8,0.2,0.8,0.8,0.2,0.2,0.8,1,0
,,66d9ae66f6f721f4db56007c,66fc98426145664b605f1941,2024-10-01_17h49.28.199,mdp,2024.2.1,Win32,20,66fa4ebf79326e780c390304,,,,,,,,,,,,,,,,,,,,,787.2808,787.2808,787.2814,788.5811,0,1,left,0.6918,,788.5818,789.7019,0,0,left,789.7027,791.6882,1,1,right,0,791.6882,791.6882,791.6888,793.1708,0,24,24,24,1,0.2,0.8,0.6,0.4,,,,,,,,,,,,,,,0.5116,,0.6,0.4,0.6,0.4,0.6,0.4,0.2,0.8,,,1.3668,,0.2,0.8,0.2,0.8,0.8,0.2,0.2,0.8,1,0
,,66d9ae66f6f721f4db56007c,66fc98426145664b605f1941,2024-10-01_17h49.28.199,mdp,2024.2.1,Win32,20,66fa4ebf79326e780c390304,,,,,,,,,,,,,,,,,,,,,793.1712,793.1712,793.1718,794.2949,0,1,left,0.5662,,794.2955,795.1715,1,1,right,795.172,798.8107,0,0,left,1,798.8108,798.8108,798.8112,800.3164,0,25,25,25,1,0.2,0.8,0.6,0.4,,,,,,,,,,,,,,,0.3116,,0.6,0.4,0.6,0.4,0.6,0.4,0.2,0.8,,,3.0427,,0.2,0.8,0.2,0.8,0.8,0.2,0.2,0.8,1,0
,,66d9ae66f6f721f4db56007c,66fc98426145664b605f1941,2024-10-01_17h49.28.199,mdp,2024.2.1,Win32,20,66fa4ebf79326e780c390304,,,,,,,,,,,,,,,,,,,,,800.3166,800.3166,800.3171,801.6122,0,0,left,0.6899,,801.6127,802.6555,1,0,right,802.656,804.0142,1,1,right,0,804.0142,804.0142,804.0149,805.4991,0,26,26,26,1,0.2,0.8,0.6,0.4,,,,,,,,,,,,,,,0.4285,9.99999E-05,0.6,0.4,0.6,0.4,0.6,0.4,0.2,0.8,,,0.7536,,0.2,0.8,0.2,0.8,0.8,0.2,0.2,0.8,1,0
,,66d9ae66f6f721f4db56007c,66fc98426145664b605f1941,2024-10-01_17h49.28.199,mdp,2024.2.1,Win32,20,66fa4ebf79326e780c390304,,,,,,,,,,,,,,,,,,,,,805.4993,805.4993,805.4999,806.7996,0,1,left,0.6902,,806.8002,808.781,1,1,right,808.7816,810.1405,0,0,left,1,810.1406,810.1406,810.1413,811.6472,0,27,27,27,1,0.2,0.8,0.6,0.4,,,,,,,,,,,,,,,1.3777,,0.6,0.4,0.6,0.4,0.6,0.4,0.2,0.8,,,0.7502,,0.2,0.8,0.2,0.8,0.8,0.2,0.2,0.8,1,0
,,66d9ae66f6f721f4db56007c,66fc98426145664b605f1941,2024-10-01_17h49.28.199,mdp,2024.2.1,Win32,20,66fa4ebf79326e780c390304,,,,,,,,,,,,,,,,,,,,,811.6474,811.6474,811.648,813.1537,0,1,left,0.9376,,813.1543,814.7244,1,1,right,814.725,817.1129,0,0,left,1,817.1129,817.1129,817.1135,818.6124,0,28,28,28,1,0.2,0.8,0.6,0.4,,,,,,,,,,,,,,,0.9553,,0.6,0.4,0.6,0.4,0.6,0.4,0.2,0.8,,,1.7811,,0.2,0.8,0.2,0.8,0.8,0.2,0.2,0.8,1,0
,,66d9ae66f6f721f4db56007c,66fc98426145664b605f1941,2024-10-01_17h49.28.199,mdp,2024.2.1,Win32,20,66fa4ebf79326e780c390304,,,,,,,,,,,,,,,,,,,,,818.6126,818.6126,818.6132,820.1011,0,1,left,0.8838,,820.1017,821.2863,1,1,right,821.2869,822.396,0,1,left,0,822.396,822.396,822.3966,823.8908,0,29,29,29,1,0.2,0.8,0.6,0.4,,,,,,,,,,,,,,,0.5737,,0.6,0.4,0.6,0.4,0.2,0.8,0.4,0.6,,,0.4978,,0.2,0.8,0.2,0.8,0.8,0.2,0.2,0.8,1,0
,,66d9ae66f6f721f4db56007c,66fc98426145664b605f1941,2024-10-01_17h49.28.199,mdp,2024.2.1,Win32,20,66fa4ebf79326e780c390304,,,,,,,,,,,,,,,,,,,,,823.891,823.891,823.8915,825.1723,0,0,left,0.6777,,825.1729,826.8999,0,0,left,826.9004,828.6037,1,1,right,0,828.6038,828.6038,828.6043,830.0999,0,30,30,30,1,0.8,0.2,0.2,0.8,,,,,,,,,,,,,,,1.1224,,0.6,0.4,0.6,0.4,0.2,0.8,0.4,0.6,,,1.1417,,0.2,0.8,0.2,0.8,0.8,0.2,0.2,0.8,1,0
,,66d9ae66f6f721f4db56007c,66fc98426145664b605f1941,2024-10-01_17h49.28.199,mdp,2024.2.1,Win32,20,66fa4ebf79326e780c390304,,,,,,,,,,,,,,,,,,,,,830.1001,830.1001,830.1005,831.2782,1,1,right,0.5773,,831.2788,832.9287,1,0,right,832.9293,834.9749,0,1,left,0,834.9749,834.9749,834.9755,836.4445,0,31,31,31,1,0.8,0.2,0.2,0.8,,,,,,,,,,,,,,,1.0573,,0.6,0.4,0.6,0.4,0.2,0.8,0.4,0.6,,,1.443,,0.2,0.8,0.2,0.8,0.8,0.2,0.2,0.8,1,0
,,66d9ae66f6f721f4db56007c,66fc98426145664b605f1941,2024-10-01_17h49.28.199,mdp,2024.2.1,Win32,20,66fa4ebf79326e780c390304,,,,,,,,,,,,,,,,,,,,,836.4447,836.4447,836.4454,837.575,0,0,left,0.5157,,837.5756,839.3007,0,0,left,839.3013,841.8578,0,1,left,0,841.8579,841.8579,841.8584,843.3114,0,32,32,32,1,0.8,0.2,0.2,0.8,,,,,,,,,,,,,,,1.1508,,0.6,0.4,0.6,0.4,0.2,0.8,0.4,0.6,,,1.9941,,0.2,0.8,0.2,0.8,0.8,0.2,0.2,0.8,1,0
,,66d9ae66f6f721f4db56007c,66fc98426145664b605f1941,2024-10-01_17h49.28.199,mdp,2024.2.1,Win32,20,66fa4ebf79326e780c390304,,,,,,,,,,,,,,,,,,,,,843.3117,843.3117,843.3122,844.5294,1,1,right,0.6241,,844.53,847.0216,0,1,left,847.0224,848.9973,1,1,right,0,848.9973,848.9973,848.9979,850.4669,0,33,33,33,1,0.8,0.2,0.2,0.8,,,,,,,,,,,,,,,1.8845,,0.6,0.4,0.6,0.4,0.2,0.8,0.4,0.6,,,1.3644,,0.2,0.8,0.2,0.8,0.8,0.2,0.2,0.8,1,0
,,66d9ae66f6f721f4db56007c,66fc98426145664b605f1941,2024-10-01_17h49.28.199,mdp,2024.2.1,Win32,20,66fa4ebf79326e780c390304,,,,,,,,,,,,,,,,,,,,,850.4671,850.4671,850.4675,851.4502,0,1,left,0.371,,851.4507,852.7018,1,1,right,852.7024,854.1816,0,0,left,1,854.1816,854.1816,854.1822,855.659,0,34,34,34,1,0.4,0.6,0.6,0.4,,,,,,,,,,,,,,,0.7029,,0.6,0.4,0.6,0.4,0.2,0.8,0.4,0.6,,,0.8772,,0.2,0.8,0.2,0.8,0.8,0.2,0.2,0.8,1,0
,,66d9ae66f6f721f4db56007c,66fc98426145664b605f1941,2024-10-01_17h49.28.199,mdp,2024.2.1,Win32,20,66fa4ebf79326e780c390304,,,,,,,,,,,,,,,,,,,,,855.6593,855.6593,855.6598,856.7247,0,1,left,0.5031,,856.7253,857.9538,1,0,right,857.9544,859.58,1,1,right,0,859.5801,859.5801,859.5806,861.0817,0,35,35,35,1,0.4,0.6,0.6,0.4,,,,,,,,,,,,,,,0.6779,,0.6,0.4,0.6,0.4,0.2,0.8,0.4,0.6,,,1.0108,,0.2,0.8,0.2,0.8,0.8,0.2,0.2,0.8,1,0
,,66d9ae66f6f721f4db56007c,66fc98426145664b605f1941,2024-10-01_17h49.28.199,mdp,2024.2.1,Win32,20,66fa4ebf79326e780c390304,,,,,,,,,,,,,,,,,,,,,861.0819,861.0819,861.0826,862.3791,0,0,left,0.7295,,862.3796,865.3402,0,1,left,865.3409,869.2862,0,0,left,1,869.2862,869.2862,869.2868,870.7616,0,36,36,36,1,0.6,0.4,0.2,0.8,,,,,,,,,,,,,,,2.3859,,0.6,0.4,0.6,0.4,0.2,0.8,0.4,0.6,,,3.3456,,0.2,0.8,0.2,0.8,0.8,0.2,0.2,0.8,1,0
,,66d9ae66f6f721f4db56007c,66fc98426145664b605f1941,2024-10-01_17h49.28.199,mdp,2024.2.1,Win32,20,66fa4ebf79326e780c390304,,,,,,,,,,,,,,,,,,,,,870.7618,870.7618,870.7624,871.7936,0,0,left,0.4578,,871.7941,873.2645,0,1,left,873.265,874.3531,0,0,left,1,874.3531,874.3531,874.3537,875.826,0,37,37,37,1,0.6,0.4,0.2,0.8,,,,,,,,,,,,,,,0.8662,,0.6,0.4,0.6,0.4,0.2,0.8,0.4,0.6,,,0.5186,,0.2,0.8,0.2,0.8,0.8,0.2,0.2,0.8,1,0
,,66d9ae66f6f721f4db56007c,66fc98426145664b605f1941,2024-10-01_17h49.28.199,mdp,2024.2.1,Win32,20,66fa4ebf79326e780c390304,,,,,,,,,,,,,,,,,,,,,875.8261,875.8261,875.8267,876.8045,0,0,left,0.3739,,876.8051,877.795,0,1,left,877.7955,879.0179,0,0,left,1,879.0179,879.0179,879.0186,880.4921,0,38,38,38,1,0.6,0.4,0.2,0.8,,,,,,,,,,,,,,,0.3825,,0.6,0.4,0.6,0.4,0.2,0.8,0.4,0.6,,,0.6265,,0.2,0.8,0.2,0.8,0.8,0.2,0.2,0.8,1,0
,,66d9ae66f6f721f4db56007c,66fc98426145664b605f1941,2024-10-01_17h49.28.199,mdp,2024.2.1,Win32,20,66fa4ebf79326e780c390304,,,,,,,,,,,,,,,,,,,,,880.4923,880.4923,880.4929,881.4358,0,1,left,0.382,,881.4363,882.9083,1,1,right,882.9089,886.5412,0,0,left,1,886.5412,886.5412,886.5417,888.0473,0,39,39,39,1,0.6,0.4,0.2,0.8,,,,,,,,,,,,,,,0.8527,,0.6,0.4,0.6,0.4,0.2,0.8,0.4,0.6,,,3.0295,,0.2,0.8,0.2,0.8,0.8,0.2,0.2,0.8,1,0
,,66d9ae66f6f721f4db56007c,66fc98426145664b605f1941,2024-10-01_17h49.28.199,mdp,2024.2.1,Win32,20,66fa4ebf79326e780c390304,,,,,,,,,,,,,,,,,,,,,888.0476,888.0476,888.0482,889.0562,0,0,left,0.4474,,889.0568,890.6636,1,0,right,890.6641,892.1455,1,1,right,0,892.1455,892.1455,892.146,893.6362,0,40,40,40,1,0.6,0.4,0.2,0.8,,,,,,,,,,,,,,,1.0021,,0.6,0.4,0.6,0.4,0.2,0.8,0.4,0.6,,,0.8726,,0.2,0.8,0.2,0.8,0.8,0.2,0.2,0.8,1,0
,,66d9ae66f6f721f4db56007c,66fc98426145664b605f1941,2024-10-01_17h49.28.199,mdp,2024.2.1,Win32,20,66fa4ebf79326e780c390304,,,,,,,,,,,,,,,,,,,,,893.6364,893.6364,893.6372,894.8083,0,0,left,0.5826,,894.8088,896.5866,0,0,left,896.5872,898.1228,1,1,right,0,898.1229,898.1229,898.1234,899.6198,0,41,41,41,1,0.6,0.4,0.2,0.8,,,,,,,,,,,,,,,1.167,,0.6,0.4,0.6,0.4,0.2,0.8,0.4,0.6,,,0.9338,,0.2,0.8,0.2,0.8,0.8,0.2,0.2,0.8,1,0
,,66d9ae66f6f721f4db56007c,66fc98426145664b605f1941,2024-10-01_17h49.28.199,mdp,2024.2.1,Win32,20,66fa4ebf79326e780c390304,,,,,,,,,,,,,,,,,,,,,899.62,899.62,899.6205,900.8645,0,1,left,0.6372,,900.865,902.7116,1,0,right,902.712,905.2334,1,0,right,1,905.2334,905.2334,905.2343,906.7202,0,42,42,42,1,0.6,0.4,0.2,0.8,,,,,,,,,,,,,,,1.2345,,0.6,0.4,0.6,0.4,0.2,0.8,0.4,0.6,,,1.9182,,0.2,0.8,0.2,0.8,0.8,0.2,0.2,0.8,1,0
,,66d9ae66f6f721f4db56007c,66fc98426145664b605f1941,2024-10-01_17h49.28.199,mdp,2024.2.1,Win32,20,66fa4ebf79326e780c390304,,,,,,,,,,,,,,,,,,,,,906.7205,906.7205,906.7211,908.0429,0,0,left,0.7542,,908.0435,911.1294,0,0,left,911.13,913.4355,0,0,left,1,913.4355,913.4355,913.436,914.9246,0,43,43,43,1,0.6,0.4,0.2,0.8,,,,,,,,,,,,,,,2.4813,,0.6,0.4,0.6,0.4,0.2,0.8,0.4,0.6,,,1.751,,0.2,0.8,0.2,0.8,0.8,0.2,0.2,0.8,1,0
,,66d9ae66f6f721f4db56007c,66fc98426145664b605f1941,2024-10-01_17h49.28.199,mdp,2024.2.1,Win32,20,66fa4ebf79326e780c390304,,,,,,,,,,,,,,,,,,,,,914.9251,914.9251,914.926,916.5237,0,1,left,1.0473,,916.5243,918.019,1,0,right,918.0196,919.4391,1,0,right,1,919.4392,919.4392,919.4397,920.9223,0,44,44,44,1,0.6,0.4,0.2,0.8,,,,,,,,,,,,,,,0.9376,,0.6,0.4,0.6,0.4,0.2,0.8,0.4,0.6,,,0.8167,,0.4,0.6,0.8,0.2,0.8,0.2,0.2,0.8,1,0
,,66d9ae66f6f721f4db56007c,66fc98426145664b605f1941,2024-10-01_17h49.28.199,mdp,2024.2.1,Win32,20,66fa4ebf79326e780c390304,,,,,,,,,,,,,,,,,,,,,920.9224,920.9224,920.923,922.0974,0,0,left,0.567,,922.0979,924.8838,0,1,left,924.8844,926.4188,1,1,right,0,926.4189,926.4189,926.4195,927.8996,0,45,45,45,1,0.6,0.4,0.2,0.8,,,,,,,,,,,,,,,2.1676,,0.6,0.4,0.6,0.4,0.2,0.8,0.4,0.6,,,0.9334,,0.4,0.6,0.8,0.2,0.8,0.2,0.2,0.8,1,0
,,66d9ae66f6f721f4db56007c,66fc98426145664b605f1941,2024-10-01_17h49.28.199,mdp,2024.2.1,Win32,20,66fa4ebf79326e780c390304,,,,,,,,,,,,,,,,,,,,,927.8999,927.8999,927.9005,929.9074,0,1,left,1.4418,,929.9081,931.4597,1,1,right,931.4605,934.8732,0,1,left,0,934.8733,934.8733,934.8739,936.3533,0,46,46,46,1,0.6,0.4,0.2,0.8,,,,,,,,,,,,,,,0.9909,,0.6,0.4,0.6,0.4,0.2,0.8,0.4,0.6,,,2.8359,,0.4,0.6,0.8,0.2,0.4,0.6,0.6,0.4,1,0
,,66d9ae66f6f721f4db56007c,66fc98426145664b605f1941,2024-10-01_17h49.28.199,mdp,2024.2.1,Win32,20,66fa4ebf79326e780c390304,,,,,,,,,,,,,,,,,,,,,936.3535,936.3535,936.3541,937.2723,1,1,right,0.3162,,937.2728,938.9137,0,1,left,938.9142,940.8284,1,0,right,1,940.8285,940.8285,940.829,942.2889,0,47,47,47,1,0.6,0.4,0.2,0.8,,,,,,,,,,,,,,,1.0506,,0.6,0.4,0.6,0.4,0.2,0.8,0.4,0.6,,,1.2932,,0.4,0.6,0.8,0.2,0.4,0.6,0.6,0.4,1,0
,,66d9ae66f6f721f4db56007c,66fc98426145664b605f1941,2024-10-01_17h49.28.199,mdp,2024.2.1,Win32,20,66fa4ebf79326e780c390304,,,,,,,,,,,,,,,,,,,,,942.2891,942.2892,942.2896,944.0331,1,0,right,1.1352,,944.0337,945.9378,1,0,right,945.9383,948.2847,1,1,right,0,948.2848,948.2848,948.2853,949.7634,0,48,48,48,1,0.6,0.4,0.2,0.8,,,,,,,,,,,,,,,1.2996,,0.6,0.4,0.6,0.4,0.4,0.6,0.8,0.2,,,1.7287,,0.4,0.6,0.8,0.2,0.4,0.6,0.6,0.4,1,0
,,66d9ae66f6f721f4db56007c,66fc98426145664b605f1941,2024-10-01_17h49.28.199,mdp,2024.2.1,Win32,20,66fa4ebf79326e780c390304,,,,,,,,,,,,,,,,,,,,,949.7636,949.7637,949.7642,950.887,1,0,right,0.5266,,950.8877,952.1497,0,0,left,952.1504,953.4998,0,0,left,1,953.4999,953.4999,953.5004,954.9738,0,49,49,49,1,0.6,0.4,0.2,0.8,,,,,,,,,,,,,,,0.6569,,0.6,0.4,0.6,0.4,0.4,0.6,0.8,0.2,,,0.7508,,0.4,0.6,0.8,0.2,0.4,0.6,0.6,0.4,1,0
,,66d9ae66f6f721f4db56007c,66fc98426145664b605f1941,2024-10-01_17h49.28.199,mdp,2024.2.1,Win32,20,66fa4ebf79326e780c390304,,,,,,,,,,,,,,,,,,,,,,,,,,,,,,,,,,,,,,,,,,,,,,,,,,,,,,,,954.9738,1013.5352,0,2,2,2,1,imgs/dog.png,imgs/pig.png,imgs/cat.png,imgs/squirrel.png,imgs/goat.png,,,,,,,,,,,,,,,,,,,,,,,,
,,66d9ae66f6f721f4db56007c,66fc98426145664b605f1941,2024-10-01_17h49.28.199,mdp,2024.2.1,Win32,20,66fa4ebf79326e780c390304,,,,,,,,,,,,,,3,seqs/st3seq6.csv,1013.5355,1015.9672,space,1.8219,,1015.9704,1015.9704,1015.9709,1018.3863,1,1,right,1.8034,,1018.3868,1020.8604,1,0,right,1020.861,1022.8597,1,1,right,0,1022.8597,1022.8597,1022.8602,1024.3468,0,0,0,0,1,0.6,0.4,0.4,0.6,,,,,,,,,,,,,,,1.9146,,0.2,0.8,0.8,0.2,0.8,0.2,0.8,0.2,,,1.382,,0.8,0.2,0.4,0.6,0.2,0.8,0.8,0.2,1,0
,,66d9ae66f6f721f4db56007c,66fc98426145664b605f1941,2024-10-01_17h49.28.199,mdp,2024.2.1,Win32,20,66fa4ebf79326e780c390304,,,,,,,,,,,,,,,,,,,,,1024.347,1024.347,1024.3476,1025.4126,1,1,right,0.5112,,1025.4132,1026.9685,0,1,left,1026.969,1030.8283,0,0,left,1,1030.8283,1030.8283,1030.8289,1032.3185,0,1,1,1,1,0.6,0.4,0.4,0.6,,,,,,,,,,,,,,,0.9413,,0.2,0.8,0.8,0.2,0.8,0.2,0.8,0.2,,,3.2472,,0.8,0.2,0.4,0.6,0.2,0.8,0.8,0.2,1,0
,,66d9ae66f6f721f4db56007c,66fc98426145664b605f1941,2024-10-01_17h49.28.199,mdp,2024.2.1,Win32,20,66fa4ebf79326e780c390304,,,,,,,,,,,,,,,,,,,,,1032.3187,1032.3187,1032.3192,1034.0499,1,0,right,1.1354,,1034.0504,1035.7103,1,0,right,1035.7109,1038.0592,0,0,left,1,1038.0593,1038.0593,1038.0598,1039.5427,0,2,2,2,1,0.6,0.4,0.4,0.6,,,,,,,,,,,,,,,1.1059,,0.2,0.8,0.8,0.2,0.8,0.2,0.8,0.2,,,1.7409,,0.8,0.2,0.4,0.6,0.2,0.8,0.8,0.2,1,0
,,66d9ae66f6f721f4db56007c,66fc98426145664b605f1941,2024-10-01_17h49.28.199,mdp,2024.2.1,Win32,20,66fa4ebf79326e780c390304,,,,,,,,,,,,,,,,,,,,,1039.5429,1039.5429,1039.5435,1040.9621,1,1,right,0.8196,,1040.9628,1045.1415,0,0,left,1045.1421,1052.2923,0,0,left,1,1052.2923,1052.2923,1052.2929,1053.7953,0,3,3,3,1,0.6,0.4,0.4,0.6,,,,,,,,,,,,,,,3.5724,,0.2,0.8,0.8,0.2,0.8,0.2,0.8,0.2,,,6.5406,,0.8,0.2,0.4,0.6,0.2,0.8,0.8,0.2,1,0
,,66d9ae66f6f721f4db56007c,66fc98426145664b605f1941,2024-10-01_17h49.28.199,mdp,2024.2.1,Win32,20,66fa4ebf79326e780c390304,,,,,,,,,,,,,,,,,,,,,1053.7955,1053.7955,1053.796,1055.1586,1,1,right,0.7555,,1055.1591,1056.4664,0,1,left,1056.467,1057.9594,1,0,right,1,1057.9594,1057.9594,1057.96,1059.437,0,4,4,4,1,0.6,0.4,0.4,0.6,,,,,,,,,,,,,,,0.6971,,0.2,0.8,0.8,0.2,0.8,0.2,0.8,0.2,,,0.8737,,0.8,0.2,0.4,0.6,0.2,0.8,0.8,0.2,1,0
,,66d9ae66f6f721f4db56007c,66fc98426145664b605f1941,2024-10-01_17h49.28.199,mdp,2024.2.1,Win32,20,66fa4ebf79326e780c390304,,,,,,,,,,,,,,,,,,,,,1059.4372,1059.4372,1059.4377,1060.6547,1,1,right,0.6121,,1060.6553,1061.9503,0,0,left,1061.9509,1063.6682,0,0,left,1,1063.6683,1063.6683,1063.6688,1065.1725,0,5,5,5,1,0.6,0.4,0.4,0.6,,,,,,,,,,,,,,,0.6803,,0.2,0.8,0.8,0.2,0.8,0.2,0.8,0.2,,,1.1094,,0.8,0.2,0.4,0.6,0.2,0.8,0.8,0.2,1,0
,,66d9ae66f6f721f4db56007c,66fc98426145664b605f1941,2024-10-01_17h49.28.199,mdp,2024.2.1,Win32,20,66fa4ebf79326e780c390304,,,,,,,,,,,,,,,,,,,,,1065.1727,1065.1727,1065.1732,1066.4828,1,1,right,0.7073,,1066.4833,1067.661,0,0,left,1067.6618,1069.943,1,1,right,0,1069.943,1069.943,1069.9435,1071.4412,0,6,6,6,1,0.6,0.4,0.4,0.6,,,,,,,,,,,,,,,0.5761,,0.2,0.8,0.8,0.2,0.8,0.2,0.8,0.2,,,1.693,,0.8,0.2,0.4,0.6,0.2,0.8,0.8,0.2,1,0
,,66d9ae66f6f721f4db56007c,66fc98426145664b605f1941,2024-10-01_17h49.28.199,mdp,2024.2.1,Win32,20,66fa4ebf79326e780c390304,,,,,,,,,,,,,,,,,,,,,1071.4413,1071.4413,1071.4419,1077.4999,1,1,right,5.4458,,1077.5005,1078.6423,0,0,left,1078.6429,1080.3036,0,1,left,0,1080.3036,1080.3036,1080.3041,1081.79,0,7,7,7,1,0.6,0.4,0.4,0.6,,,,,,,,,,,,,,,0.5471,,0.2,0.8,0.8,0.2,0.8,0.2,0.8,0.2,,,1.0546,,0.4,0.6,0.2,0.8,0.2,0.8,0.8,0.2,1,0
,,66d9ae66f6f721f4db56007c,66fc98426145664b605f1941,2024-10-01_17h49.28.199,mdp,2024.2.1,Win32,20,66fa4ebf79326e780c390304,,,,,,,,,,,,,,,,,,,,,1081.7902,1081.7902,1081.7907,1082.8271,0,0,left,0.4447,,1082.8277,1084.7095,0,1,left,1084.7101,1088.5575,0,1,left,0,1088.5575,1088.5575,1088.5582,1090.0398,0,8,8,8,1,0.6,0.4,0.4,0.6,,,,,,,,,,,,,,,1.31,,0.2,0.8,0.8,0.2,0.2,0.8,0.2,0.8,,,3.2873,,0.4,0.6,0.2,0.8,0.2,0.8,0.8,0.2,1,0
,,66d9ae66f6f721f4db56007c,66fc98426145664b605f1941,2024-10-01_17h49.28.199,mdp,2024.2.1,Win32,20,66fa4ebf79326e780c390304,,,,,,,,,,,,,,,,,,,,,1090.04,1090.0401,1090.0407,1091.0819,0,0,left,0.4284,,1091.0824,1094.188,0,0,left,1094.1888,1096.7781,0,1,left,0,1096.7781,1096.7781,1096.7786,1098.2755,0,9,9,9,1,0.6,0.4,0.4,0.6,,,,,,,,,,,,,,,2.541,,0.2,0.8,0.8,0.2,0.2,0.8,0.2,0.8,,,1.998,,0.4,0.6,0.2,0.8,0.2,0.8,0.8,0.2,1,0
,,66d9ae66f6f721f4db56007c,66fc98426145664b605f1941,2024-10-01_17h49.28.199,mdp,2024.2.1,Win32,20,66fa4ebf79326e780c390304,,,,,,,,,,,,,,,,,,,,,1098.2757,1098.2758,1098.2763,1099.5617,1,1,right,0.6838,,1099.5623,1101.2475,0,0,left,1101.2481,1109.8387,0,0,left,1,1109.8387,1109.8387,1109.8393,1111.3064,0,10,10,10,1,0.6,0.4,0.4,0.6,,,,,,,,,,,,,,,1.0813,,0.2,0.8,0.8,0.2,0.2,0.8,0.2,0.8,,,8.0373,,0.4,0.6,0.2,0.8,0.2,0.8,0.8,0.2,1,0
,,66d9ae66f6f721f4db56007c,66fc98426145664b605f1941,2024-10-01_17h49.28.199,mdp,2024.2.1,Win32,20,66fa4ebf79326e780c390304,,,,,,,,,,,,,,,,,,,,,1111.3066,1111.3066,1111.3071,1112.8481,1,1,right,0.9369,,1112.8487,1113.9859,0,1,left,1113.9866,1115.5479,1,0,right,1,1115.5479,1115.5479,1115.5484,1117.0178,0,11,11,11,1,0.6,0.4,0.4,0.6,,,,,,,,,,,,,,,0.5669,,0.2,0.8,0.8,0.2,0.2,0.8,0.2,0.8,,,0.9424,,0.4,0.6,0.2,0.8,0.2,0.8,0.8,0.2,1,0
,,66d9ae66f6f721f4db56007c,66fc98426145664b605f1941,2024-10-01_17h49.28.199,mdp,2024.2.1,Win32,20,66fa4ebf79326e780c390304,,,,,,,,,,,,,,,,,,,,,1117.0181,1117.0181,1117.0186,1118.3245,1,0,right,0.7078,,1118.3251,1120.1819,1,0,right,1120.1826,1125.2801,1,0,right,1,1125.2801,1125.2801,1125.2808,1126.7472,0,12,12,12,1,0.6,0.4,0.4,0.6,,,,,,,,,,,,,,,1.2625,,0.2,0.8,0.8,0.2,0.2,0.8,0.2,0.8,,,4.4811,,0.4,0.6,0.2,0.8,0.2,0.8,0.8,0.2,1,0
,,66d9ae66f6f721f4db56007c,66fc98426145664b605f1941,2024-10-01_17h49.28.199,mdp,2024.2.1,Win32,20,66fa4ebf79326e780c390304,,,,,,,,,,,,,,,,,,,,,1126.7474,1126.7474,1126.748,1128.4482,1,0,right,1.1055,,1128.4487,1130.3092,1,0,right,1130.3097,1131.6151,1,0,right,1,1131.6151,1131.6151,1131.6156,1133.103,0,13,13,13,1,0.6,0.4,0.4,0.6,,,,,,,,,,,,,,,1.2428,,0.2,0.8,0.8,0.2,0.2,0.8,0.2,0.8,,,0.697,,0.6,0.4,0.8,0.2,0.2,0.8,0.8,0.2,1,0
,,66d9ae66f6f721f4db56007c,66fc98426145664b605f1941,2024-10-01_17h49.28.199,mdp,2024.2.1,Win32,20,66fa4ebf79326e780c390304,,,,,,,,,,,,,,,,,,,,,1133.1033,1133.1034,1133.1039,1134.4044,1,1,right,0.6874,,1134.4051,1135.9553,0,1,left,1135.9558,1137.6041,0,1,left,0,1137.6042,1137.6042,1137.6049,1139.116,0,14,14,14,1,0.6,0.4,0.4,0.6,,,,,,,,,,,,,,,0.9404,,0.8,0.2,0.6,0.4,0.2,0.8,0.2,0.8,,,1.0445,,0.6,0.4,0.8,0.2,0.2,0.8,0.8,0.2,1,0
,,66d9ae66f6f721f4db56007c,66fc98426145664b605f1941,2024-10-01_17h49.28.199,mdp,2024.2.1,Win32,20,66fa4ebf79326e780c390304,,,,,,,,,,,,,,,,,,,,,1139.1162,1139.1162,1139.1168,1140.6908,1,0,right,1.0068,,1140.6915,1142.3561,1,1,right,1142.3568,1146.1055,0,1,left,0,1146.1055,1146.1055,1146.106,1147.5999,0,15,15,15,1,0.6,0.4,0.4,0.6,,,,,,,,,,,,,,,1.0499,,0.8,0.2,0.6,0.4,0.2,0.8,0.2,0.8,,,3.1545,,0.6,0.4,0.8,0.2,0.2,0.8,0.8,0.2,1,0
,,66d9ae66f6f721f4db56007c,66fc98426145664b605f1941,2024-10-01_17h49.28.199,mdp,2024.2.1,Win32,20,66fa4ebf79326e780c390304,,,,,,,,,,,,,,,,,,,,,1147.6,1147.6,1147.6006,1148.8962,1,1,right,0.6919,,1148.8968,1150.3294,0,1,left,1150.3299,1152.8857,1,0,right,1,1152.8858,1152.8858,1152.8863,1154.4047,0,16,16,16,1,0.6,0.4,0.4,0.6,,,,,,,,,,,,,,,0.869,,0.8,0.2,0.6,0.4,0.2,0.8,0.2,0.8,,,1.9451,,0.6,0.4,0.8,0.2,0.2,0.8,0.8,0.2,1,0
,,66d9ae66f6f721f4db56007c,66fc98426145664b605f1941,2024-10-01_17h49.28.199,mdp,2024.2.1,Win32,20,66fa4ebf79326e780c390304,,,,,,,,,,,,,,,,,,,,,1154.405,1154.405,1154.4055,1155.3809,1,1,right,0.3748,,1155.3818,1156.7917,0,0,left,1156.7922,1159.2365,0,1,left,0,1159.2366,1159.2366,1159.2371,1160.7255,0,17,17,17,1,0.6,0.4,0.4,0.6,,,,,,,,,,,,,,,0.8086,,0.8,0.2,0.6,0.4,0.2,0.8,0.2,0.8,,,1.8896,,0.6,0.4,0.8,0.2,0.2,0.8,0.8,0.2,1,0
,,66d9ae66f6f721f4db56007c,66fc98426145664b605f1941,2024-10-01_17h49.28.199,mdp,2024.2.1,Win32,20,66fa4ebf79326e780c390304,,,,,,,,,,,,,,,,,,,,,1160.7257,1160.7257,1160.7262,1161.7061,0,0,left,0.3749,,1161.7066,1165.0844,1,0,right,1165.085,1167.6883,1,0,right,1,1167.6884,1167.6884,1167.6891,1169.1759,0,18,18,18,1,0.6,0.4,0.4,0.6,,,,,,,,,,,,,,,2.7714,,0.8,0.2,0.6,0.4,0.2,0.8,0.2,0.8,,,1.9957,,0.6,0.4,0.8,0.2,0.2,0.8,0.8,0.2,1,0
,,66d9ae66f6f721f4db56007c,66fc98426145664b605f1941,2024-10-01_17h49.28.199,mdp,2024.2.1,Win32,20,66fa4ebf79326e780c390304,,,,,,,,,,,,,,,,,,,,,1169.1763,1169.1763,1169.1768,1170.1715,0,1,left,0.3851,,1170.1721,1171.9499,1,1,right,1171.9505,1174.9581,0,1,left,0,1174.9582,1174.9582,1174.9587,1176.4413,0,19,19,19,1,0.6,0.4,0.4,0.6,,,,,,,,,,,,,,,1.166,,0.8,0.2,0.6,0.4,0.2,0.8,0.2,0.8,,,2.405,,0.6,0.4,0.8,0.2,0.2,0.8,0.8,0.2,1,0
,,66d9ae66f6f721f4db56007c,66fc98426145664b605f1941,2024-10-01_17h49.28.199,mdp,2024.2.1,Win32,20,66fa4ebf79326e780c390304,,,,,,,,,,,,,,,,,,,,,1176.4416,1176.4416,1176.4421,1177.6055,0,0,left,0.5633,,1177.606,1182.558,0,0,left,1182.5585,1184.9092,0,1,left,0,1184.9093,1184.9093,1184.9098,1186.3854,0,20,20,20,1,0.6,0.4,0.4,0.6,,,,,,,,,,,,,,,4.3516,,0.8,0.2,0.6,0.4,0.8,0.2,0.4,0.6,,,1.7542,,0.6,0.4,0.8,0.2,0.2,0.8,0.8,0.2,1,0
,,66d9ae66f6f721f4db56007c,66fc98426145664b605f1941,2024-10-01_17h49.28.199,mdp,2024.2.1,Win32,20,66fa4ebf79326e780c390304,,,,,,,,,,,,,,,,,,,,,1186.3856,1186.3856,1186.3861,1188.0258,1,0,right,1.085,,1188.0268,1191.2563,1,0,right,1191.257,1193.0536,1,0,right,1,1193.0536,1193.0536,1193.0541,1194.5333,0,21,21,21,1,0.6,0.4,0.4,0.6,,,,,,,,,,,,,,,2.6794,,0.8,0.2,0.6,0.4,0.8,0.2,0.4,0.6,,,1.1874,,0.6,0.4,0.8,0.2,0.2,0.8,0.8,0.2,1,0
,,66d9ae66f6f721f4db56007c,66fc98426145664b605f1941,2024-10-01_17h49.28.199,mdp,2024.2.1,Win32,20,66fa4ebf79326e780c390304,,,,,,,,,,,,,,,,,,,,,1194.5335,1194.5335,1194.534,1195.4996,1,0,right,0.374,,1195.5002,1197.1931,1,1,right,1197.1937,1200.0087,0,1,left,0,1200.0087,1200.0087,1200.0096,1201.4906,0,22,22,22,1,0.6,0.4,0.4,0.6,,,,,,,,,,,,,,,1.0927,,0.8,0.2,0.6,0.4,0.8,0.2,0.4,0.6,,,2.2021,,0.6,0.4,0.8,0.2,0.2,0.8,0.8,0.2,1,0
,,66d9ae66f6f721f4db56007c,66fc98426145664b605f1941,2024-10-01_17h49.28.199,mdp,2024.2.1,Win32,20,66fa4ebf79326e780c390304,,,,,,,,,,,,,,,,,,,,,1201.4908,1201.4908,1201.4913,1202.6554,1,0,right,0.5657,,1202.656,1203.9888,1,0,right,1203.9893,1205.6697,1,0,right,1,1205.6697,1205.6698,1205.6703,1207.1324,0,23,23,23,1,0.6,0.4,0.4,0.6,,,,,,,,,,,,,,,0.7719,,0.8,0.2,0.6,0.4,0.8,0.2,0.4,0.6,,,1.0697,,0.4,0.6,0.6,0.4,0.2,0.8,0.8,0.2,1,0
,,66d9ae66f6f721f4db56007c,66fc98426145664b605f1941,2024-10-01_17h49.28.199,mdp,2024.2.1,Win32,20,66fa4ebf79326e780c390304,,,,,,,,,,,,,,,,,,,,,1207.1326,1207.1326,1207.1331,1207.991,1,0,right,0.2603,,1207.9915,1209.2271,1,1,right,1209.2277,1211.8812,1,0,right,1,1211.8812,1211.8812,1211.8817,1213.3763,0,24,24,24,1,0.6,0.4,0.4,0.6,,,,,,,,,,,,,,,0.6739,,0.8,0.2,0.6,0.4,0.8,0.2,0.4,0.6,,,2.0451,,0.4,0.6,0.6,0.4,0.2,0.8,0.8,0.2,1,0
,,66d9ae66f6f721f4db56007c,66fc98426145664b605f1941,2024-10-01_17h49.28.199,mdp,2024.2.1,Win32,20,66fa4ebf79326e780c390304,,,,,,,,,,,,,,,,,,,,,1213.3766,1213.3767,1213.3771,1214.4099,1,1,right,0.4387,,1214.4104,1215.8993,0,0,left,1215.9,1217.5149,0,1,left,0,1217.515,1217.515,1217.5155,1218.9982,0,25,25,25,1,0.6,0.4,0.4,0.6,,,,,,,,,,,,,,,0.881,,0.8,0.2,0.6,0.4,0.8,0.2,0.4,0.6,,,1.0601,,0.4,0.6,0.6,0.4,0.2,0.8,0.8,0.2,1,0
,,66d9ae66f6f721f4db56007c,66fc98426145664b605f1941,2024-10-01_17h49.28.199,mdp,2024.2.1,Win32,20,66fa4ebf79326e780c390304,,,,,,,,,,,,,,,,,,,,,1218.9983,1218.9983,1218.9989,1220.0554,0,0,left,0.4934,,1220.0561,1226.8709,0,0,left,1226.8715,1236.7664,0,1,left,0,1236.7665,1236.7665,1236.767,1238.2643,0,26,26,26,1,0.6,0.4,0.4,0.6,,,,,,,,,,,,,,,6.2425,,0.8,0.2,0.6,0.4,0.8,0.2,0.4,0.6,,,9.3003,,0.4,0.6,0.6,0.4,0.2,0.8,0.8,0.2,1,0
,,66d9ae66f6f721f4db56007c,66fc98426145664b605f1941,2024-10-01_17h49.28.199,mdp,2024.2.1,Win32,20,66fa4ebf79326e780c390304,,,,,,,,,,,,,,,,,,,,,1238.2646,1238.2646,1238.2651,1239.548,1,1,right,0.6889,,1239.5486,1241.0921,0,0,left,1241.0927,1242.7529,0,1,left,0,1242.753,1242.753,1242.7536,1244.2354,0,27,27,27,1,0.6,0.4,0.4,0.6,,,,,,,,,,,,,,,0.9343,,0.8,0.2,0.6,0.4,0.8,0.2,0.4,0.6,,,1.062,,0.2,0.8,0.2,0.8,0.2,0.8,0.8,0.2,1,0
,,66d9ae66f6f721f4db56007c,66fc98426145664b605f1941,2024-10-01_17h49.28.199,mdp,2024.2.1,Win32,20,66fa4ebf79326e780c390304,,,,,,,,,,,,,,,,,,,,,1244.2357,1244.2357,1244.2362,1245.3478,0,0,left,0.5111,,1245.3483,1248.2081,0,1,left,1248.2087,1253.7755,1,0,right,1,1253.7756,1253.7756,1253.7761,1255.2708,0,28,28,28,1,0.6,0.4,0.4,0.6,,,,,,,,,,,,,,,2.2606,,0.8,0.2,0.6,0.4,0.8,0.2,0.4,0.6,,,4.9712,,0.2,0.8,0.2,0.8,0.2,0.8,0.8,0.2,1,0
,,66d9ae66f6f721f4db56007c,66fc98426145664b605f1941,2024-10-01_17h49.28.199,mdp,2024.2.1,Win32,20,66fa4ebf79326e780c390304,,,,,,,,,,,,,,,,,,,,,1255.2712,1255.2712,1255.2717,1256.2612,0,0,left,0.3765,,1256.2618,1261.7834,0,0,left,1261.784,1265.4808,0,1,left,0,1265.4809,1265.4809,1265.4814,1266.9688,0,29,29,29,1,0.6,0.4,0.4,0.6,,,,,,,,,,,,,,,4.9063,,0.8,0.2,0.6,0.4,0.8,0.2,0.4,0.6,,,3.0953,,0.2,0.8,0.2,0.8,0.2,0.8,0.8,0.2,1,0
,,66d9ae66f6f721f4db56007c,66fc98426145664b605f1941,2024-10-01_17h49.28.199,mdp,2024.2.1,Win32,20,66fa4ebf79326e780c390304,,,,,,,,,,,,,,,,,,,,,1266.969,1266.969,1266.9696,1268.2119,0,0,left,0.6289,,1268.2127,1269.8174,1,1,right,1269.818,1272.6514,0,0,left,1,1272.6514,1272.6514,1272.6519,1274.1241,0,30,30,30,1,0.6,0.4,0.4,0.6,,,,,,,,,,,,,,,1.0054,,0.8,0.2,0.6,0.4,0.8,0.2,0.4,0.6,,,2.2159,,0.2,0.8,0.2,0.8,0.2,0.8,0.8,0.2,1,0
,,66d9ae66f6f721f4db56007c,66fc98426145664b605f1941,2024-10-01_17h49.28.199,mdp,2024.2.1,Win32,20,66fa4ebf79326e780c390304,,,,,,,,,,,,,,,,,,,,,1274.1243,1274.1243,1274.1248,1275.3523,0,0,left,0.6202,,1275.3528,1277.0468,1,1,right,1277.0474,1280.1109,0,1,left,0,1280.1109,1280.1109,1280.1115,1281.616,0,31,31,31,1,0.6,0.4,0.4,0.6,,,,,,,,,,,,,,,1.0838,,0.8,0.2,0.6,0.4,0.8,0.2,0.4,0.6,,,2.4488,,0.2,0.8,0.2,0.8,0.2,0.8,0.8,0.2,1,0
,,66d9ae66f6f721f4db56007c,66fc98426145664b605f1941,2024-10-01_17h49.28.199,mdp,2024.2.1,Win32,20,66fa4ebf79326e780c390304,,,,,,,,,,,,,,,,,,,,,1281.6162,1281.6162,1281.6168,1283.199,1,0,right,0.9876,,1283.1995,1289.9894,1,0,right,1289.9902,1291.53,1,1,right,0,1291.5301,1291.5301,1291.5308,1292.9999,0,32,32,32,1,0.6,0.4,0.4,0.6,,,,,,,,,,,,,,,6.183,,0.8,0.2,0.6,0.4,0.8,0.2,0.4,0.6,,,0.9391,,0.2,0.8,0.2,0.8,0.2,0.8,0.8,0.2,1,0
,,66d9ae66f6f721f4db56007c,66fc98426145664b605f1941,2024-10-01_17h49.28.199,mdp,2024.2.1,Win32,20,66fa4ebf79326e780c390304,,,,,,,,,,,,,,,,,,,,,1293.0001,1293.0002,1293.0007,1295.2562,1,1,right,1.6505,,1295.2569,1296.4884,0,1,left,1296.4893,1298.9879,1,1,right,0,1298.9879,1298.988,1298.9887,1300.4919,0,33,33,33,1,0.6,0.4,0.4,0.6,,,,,,,,,,,,,,,0.6233,,0.8,0.2,0.6,0.4,0.8,0.2,0.4,0.6,,,1.9143,,0.4,0.6,0.6,0.4,0.2,0.8,0.8,0.2,1,0
,,66d9ae66f6f721f4db56007c,66fc98426145664b605f1941,2024-10-01_17h49.28.199,mdp,2024.2.1,Win32,20,66fa4ebf79326e780c390304,,,,,,,,,,,,,,,,,,,,,1300.4921,1300.4922,1300.4926,1301.5984,0,0,left,0.5126,,1301.599,1306.2334,0,0,left,1306.2339,1308.0423,0,0,left,1,1308.0423,1308.0423,1308.0432,1309.5516,0,34,34,34,1,0.6,0.4,0.4,0.6,,,,,,,,,,,,,,,4.0291,,0.8,0.2,0.6,0.4,0.8,0.2,0.4,0.6,,,1.2174,,0.4,0.6,0.6,0.4,0.6,0.4,0.2,0.8,1,0
,,66d9ae66f6f721f4db56007c,66fc98426145664b605f1941,2024-10-01_17h49.28.199,mdp,2024.2.1,Win32,20,66fa4ebf79326e780c390304,,,,,,,,,,,,,,,,,,,,,1309.5518,1309.5518,1309.5525,1310.4882,0,1,left,0.3749,,1310.4887,1311.9198,1,0,right,1311.9202,1314.0214,1,0,right,1,1314.0214,1314.0214,1314.0219,1315.4968,0,35,35,35,1,0.6,0.4,0.4,0.6,,,,,,,,,,,,,,,0.8115,,0.8,0.2,0.6,0.4,0.8,0.2,0.4,0.6,,,1.5389,,0.4,0.6,0.6,0.4,0.6,0.4,0.2,0.8,1,0
,,66d9ae66f6f721f4db56007c,66fc98426145664b605f1941,2024-10-01_17h49.28.199,mdp,2024.2.1,Win32,20,66fa4ebf79326e780c390304,,,,,,,,,,,,,,,,,,,,,1315.497,1315.497,1315.4976,1316.5384,0,1,left,0.4456,,1316.539,1317.8576,1,1,right,1317.8582,1319.7985,0,0,left,1,1319.7985,1319.7985,1319.7991,1321.3097,0,36,36,36,1,0.6,0.4,0.4,0.6,,,,,,,,,,,,,,,0.7662,,0.8,0.2,0.6,0.4,0.8,0.2,0.4,0.6,,,1.3152,,0.4,0.6,0.6,0.4,0.6,0.4,0.2,0.8,1,0
,,66d9ae66f6f721f4db56007c,66fc98426145664b605f1941,2024-10-01_17h49.28.199,mdp,2024.2.1,Win32,20,66fa4ebf79326e780c390304,,,,,,,,,,,,,,,,,,,,,1321.3099,1321.3099,1321.3105,1322.35,0,0,left,0.4373,,1322.3508,1324.4354,0,0,left,1324.436,1326.1356,0,0,left,1,1326.1356,1326.1356,1326.1362,1327.6186,0,37,37,37,1,0.6,0.4,0.4,0.6,,,,,,,,,,,,,,,1.4693,,0.8,0.2,0.6,0.4,0.8,0.2,0.4,0.6,,,1.0812,,0.4,0.6,0.6,0.4,0.6,0.4,0.2,0.8,1,0
,,66d9ae66f6f721f4db56007c,66fc98426145664b605f1941,2024-10-01_17h49.28.199,mdp,2024.2.1,Win32,20,66fa4ebf79326e780c390304,,,,,,,,,,,,,,,,,,,,,1327.6188,1327.6188,1327.6195,1328.8014,0,0,left,0.625,,1328.8019,1331.614,0,0,left,1331.6146,1333.658,0,1,left,0,1333.6581,1333.6581,1333.6587,1335.1256,0,38,38,38,1,0.6,0.4,0.4,0.6,,,,,,,,,,,,,,,2.2566,,0.8,0.2,0.6,0.4,0.8,0.2,0.4,0.6,,,1.4306,,0.6,0.4,0.8,0.2,0.6,0.4,0.2,0.8,1,0
,,66d9ae66f6f721f4db56007c,66fc98426145664b605f1941,2024-10-01_17h49.28.199,mdp,2024.2.1,Win32,20,66fa4ebf79326e780c390304,,,,,,,,,,,,,,,,,,,,,1335.1258,1335.1258,1335.1264,1339.1088,0,0,left,3.3801,,1339.1094,1341.0171,1,0,right,1341.0176,1342.4694,1,0,right,1,1342.4694,1342.4695,1342.4701,1343.9543,0,39,39,39,1,0.6,0.4,0.4,0.6,,,,,,,,,,,,,,,1.3005,,0.8,0.2,0.6,0.4,0.8,0.2,0.4,0.6,,,0.8839,,0.6,0.4,0.8,0.2,0.6,0.4,0.2,0.8,1,0
,,66d9ae66f6f721f4db56007c,66fc98426145664b605f1941,2024-10-01_17h49.28.199,mdp,2024.2.1,Win32,20,66fa4ebf79326e780c390304,,,,,,,,,,,,,,,,,,,,,1343.9545,1343.9545,1343.955,1345.3499,0,0,left,0.7951,,1345.3505,1346.6395,1,0,right,1346.6401,1349.6706,1,0,right,1,1349.6707,1349.6707,1349.6714,1351.1666,0,40,40,40,1,0.6,0.4,0.4,0.6,,,,,,,,,,,,,,,0.69,,0.8,0.2,0.6,0.4,0.8,0.2,0.4,0.6,,,2.4224,,0.6,0.4,0.8,0.2,0.6,0.4,0.2,0.8,1,0
,,66d9ae66f6f721f4db56007c,66fc98426145664b605f1941,2024-10-01_17h49.28.199,mdp,2024.2.1,Win32,20,66fa4ebf79326e780c390304,,,,,,,,,,,,,,,,,,,,,1351.1668,1351.1668,1351.1673,1352.3356,0,1,left,0.5672,,1352.3362,1353.8554,1,0,right,1353.8562,1355.5495,1,0,right,1,1355.5495,1355.5495,1355.55,1357.0234,0,41,41,41,1,0.6,0.4,0.4,0.6,,,,,,,,,,,,,,,0.9592,,0.8,0.2,0.6,0.4,0.8,0.2,0.4,0.6,,,1.0897,,0.6,0.4,0.8,0.2,0.6,0.4,0.2,0.8,1,0
,,66d9ae66f6f721f4db56007c,66fc98426145664b605f1941,2024-10-01_17h49.28.199,mdp,2024.2.1,Win32,20,66fa4ebf79326e780c390304,,,,,,,,,,,,,,,,,,,,,1357.0236,1357.0236,1357.0244,1358.2636,0,0,left,0.6313,,1358.2641,1360.1785,1,1,right,1360.179,1361.3372,0,0,left,1,1361.3372,1361.3372,1361.3377,1362.8348,0,42,42,42,1,0.6,0.4,0.4,0.6,,,,,,,,,,,,,,,1.3067,,0.8,0.2,0.6,0.4,0.8,0.2,0.4,0.6,,,0.5577,,0.6,0.4,0.8,0.2,0.6,0.4,0.2,0.8,1,0
,,66d9ae66f6f721f4db56007c,66fc98426145664b605f1941,2024-10-01_17h49.28.199,mdp,2024.2.1,Win32,20,66fa4ebf79326e780c390304,,,,,,,,,,,,,,,,,,,,,1362.835,1362.835,1362.8356,1363.8553,0,0,left,0.4479,,1363.8561,1365.8901,1,0,right,1365.8906,1367.4178,1,1,right,0,1367.4178,1367.4178,1367.4183,1368.8881,0,43,43,43,1,0.6,0.4,0.4,0.6,,,,,,,,,,,,,,,1.4304,,0.8,0.2,0.6,0.4,0.8,0.2,0.4,0.6,,,0.9203,,0.6,0.4,0.8,0.2,0.6,0.4,0.2,0.8,1,0
,,66d9ae66f6f721f4db56007c,66fc98426145664b605f1941,2024-10-01_17h49.28.199,mdp,2024.2.1,Win32,20,66fa4ebf79326e780c390304,,,,,,,,,,,,,,,,,,,,,1368.8883,1368.8883,1368.8889,1371.6711,1,1,right,2.2283,,1371.6717,1373.4462,0,0,left,1373.447,1375.1254,0,0,left,1,1375.1254,1375.1254,1375.126,1376.618,0,44,44,44,1,0.6,0.4,0.4,0.6,,,,,,,,,,,,,,,1.1675,,0.8,0.2,0.6,0.4,0.8,0.2,0.4,0.6,,,1.077,,0.6,0.4,0.8,0.2,0.6,0.4,0.2,0.8,1,0
,,66d9ae66f6f721f4db56007c,66fc98426145664b605f1941,2024-10-01_17h49.28.199,mdp,2024.2.1,Win32,20,66fa4ebf79326e780c390304,,,,,,,,,,,,,,,,,,,,,1376.6183,1376.6183,1376.6187,1377.6641,1,1,right,0.4354,,1377.6647,1379.139,0,1,left,1379.1395,1380.733,1,1,right,0,1380.733,1380.733,1380.7336,1382.2214,0,45,45,45,1,0.6,0.4,0.4,0.6,,,,,,,,,,,,,,,0.871,,0.8,0.2,0.6,0.4,0.8,0.2,0.4,0.6,,,0.9858,,0.6,0.4,0.8,0.2,0.6,0.4,0.2,0.8,1,0
,,66d9ae66f6f721f4db56007c,66fc98426145664b605f1941,2024-10-01_17h49.28.199,mdp,2024.2.1,Win32,20,66fa4ebf79326e780c390304,,,,,,,,,,,,,,,,,,,,,1382.2216,1382.2216,1382.2222,1387.5961,0,1,left,4.7808,,1387.5967,1388.896,1,0,right,1388.8965,1390.4003,1,1,right,0,1390.4003,1390.4003,1390.4009,1391.903,0,46,46,46,1,0.6,0.4,0.4,0.6,,,,,,,,,,,,,,,0.697,,0.8,0.2,0.6,0.4,0.8,0.2,0.4,0.6,,,0.8859,,0.6,0.4,0.8,0.2,0.6,0.4,0.2,0.8,1,0
,,66d9ae66f6f721f4db56007c,66fc98426145664b605f1941,2024-10-01_17h49.28.199,mdp,2024.2.1,Win32,20,66fa4ebf79326e780c390304,,,,,,,,,,,,,,,,,,,,,1391.9033,1391.9033,1391.9038,1393.3843,1,1,right,0.9214,,1393.3848,1394.7327,0,1,left,1394.7332,1396.8148,0,0,left,1,1396.8148,1396.8148,1396.8154,1398.328,0,47,47,47,1,0.6,0.4,0.4,0.6,,,,,,,,,,,,,,,0.7536,,0.8,0.2,0.6,0.4,0.8,0.2,0.4,0.6,,,1.4729,,0.6,0.4,0.8,0.2,0.6,0.4,0.2,0.8,1,0
,,66d9ae66f6f721f4db56007c,66fc98426145664b605f1941,2024-10-01_17h49.28.199,mdp,2024.2.1,Win32,20,66fa4ebf79326e780c390304,,,,,,,,,,,,,,,,,,,,,1398.3282,1398.3282,1398.3288,1400.9802,1,1,right,2.0424,,1400.9809,1402.3172,0,0,left,1402.3178,1404.3618,0,0,left,1,1404.3618,1404.3618,1404.3626,1405.8442,0,48,48,48,1,0.6,0.4,0.4,0.6,,,,,,,,,,,,,,,0.7447,,0.2,0.8,0.2,0.8,0.8,0.2,0.4,0.6,,,1.4373,,0.6,0.4,0.8,0.2,0.6,0.4,0.2,0.8,1,0
,,66d9ae66f6f721f4db56007c,66fc98426145664b605f1941,2024-10-01_17h49.28.199,mdp,2024.2.1,Win32,20,66fa4ebf79326e780c390304,,,,,,,,,,,,,,,,,,,,,1405.8444,1405.8445,1405.845,1407.0254,1,1,right,0.5708,,1407.0259,1408.3171,0,0,left,1408.3176,1409.9973,0,0,left,1,1409.9974,1409.9974,1409.9979,1411.4936,0,49,49,49,1,0.6,0.4,0.4,0.6,,,,,,,,,,,,,,,0.6827,,0.2,0.8,0.2,0.8,0.8,0.2,0.4,0.6,,,1.1267,,0.6,0.4,0.8,0.2,0.6,0.4,0.2,0.8,1,0
,,66d9ae66f6f721f4db56007c,66fc98426145664b605f1941,2024-10-01_17h49.28.199,mdp,2024.2.1,Win32,20,66fa4ebf79326e780c390304,,,,,,,,,,,,,,,,,,,,,,,,,,,,,,,,,,,,,,,,,,,,,,,,,,,,,,,,1411.4936,1470.0196,0,3,3,5,1,imgs/kangaroo.png,imgs/goat.png,imgs/rabbit.png,imgs/horse.png,imgs/pig.png,,,,,,,,,,,,,,,,,,,,,,,,
,,66d9ae66f6f721f4db56007c,66fc98426145664b605f1941,2024-10-01_17h49.28.199,mdp,2024.2.1,Win32,20,66fa4ebf79326e780c390304,,,,,,,,,,,,,,1,seqs/st1seq47.csv,1470.0205,1473.636,space,3.0048,,1473.6382,1473.6382,1473.6386,1475.3228,1,0,right,1.1181,,1475.3234,1475.3238,0,0,,1475.324,1475.3242,0,1,,1,1475.3242,1475.3242,1475.3245,1476.849,0,0,0,0,1,0.8,0.2,0.4,0.6,1,0,,,,,,,,,,,,,,,,,,,,,,,,,,,,,,,,,,,,
,,66d9ae66f6f721f4db56007c,66fc98426145664b605f1941,2024-10-01_17h49.28.199,mdp,2024.2.1,Win32,20,66fa4ebf79326e780c390304,,,,,,,,,,,,,,,,,,,,,1476.8492,1476.8492,1476.8498,1478.0131,1,0,right,0.5573,,1478.0136,1478.014,0,0,,1478.0142,1478.0144,0,0,,1,1478.0144,1478.0144,1478.0147,1479.512,0,1,1,1,1,0.8,0.2,0.4,0.6,1,0,,,,,,,,,,,,,,,,,,,,,,,,,,,,,,,,,,,,
,,66d9ae66f6f721f4db56007c,66fc98426145664b605f1941,2024-10-01_17h49.28.199,mdp,2024.2.1,Win32,20,66fa4ebf79326e780c390304,,,,,,,,,,,,,,,,,,,,,1479.5121,1479.5121,1479.5126,1480.7517,1,1,right,0.629,,1480.7523,1480.7526,0,0,,1480.7528,1480.753,0,1,,0,1480.753,1480.753,1480.7533,1482.2692,0,2,2,2,1,0.8,0.2,0.4,0.6,1,0,,,,,,,,,,,,,,,,,,,,,,,,,,,,,,,,,,,,
,,66d9ae66f6f721f4db56007c,66fc98426145664b605f1941,2024-10-01_17h49.28.199,mdp,2024.2.1,Win32,20,66fa4ebf79326e780c390304,,,,,,,,,,,,,,,,,,,,,1482.2695,1482.2695,1482.27,1483.1996,0,0,left,0.3249,,1483.2002,1483.2005,0,1,,1483.2008,1483.201,0,0,,1,1483.201,1483.201,1483.2012,1484.6808,0,3,3,3,1,0.8,0.2,0.4,0.6,1,0,,,,,,,,,,,,,,,,,,,,,,,,,,,,,,,,,,,,
,,66d9ae66f6f721f4db56007c,66fc98426145664b605f1941,2024-10-01_17h49.28.199,mdp,2024.2.1,Win32,20,66fa4ebf79326e780c390304,,,,,,,,,,,,,,,,,,,,,1484.6811,1484.6811,1484.6816,1485.6596,0,1,left,0.375,,1485.6603,1485.6605,0,0,,1485.6608,1485.661,0,0,,0,1485.661,1485.661,1485.6612,1487.1565,0,4,4,4,1,0.8,0.2,0.4,0.6,1,0,,,,,,,,,,,,,,,,,,,,,,,,,,,,,,,,,,,,
,,66d9ae66f6f721f4db56007c,66fc98426145664b605f1941,2024-10-01_17h49.28.199,mdp,2024.2.1,Win32,20,66fa4ebf79326e780c390304,,,,,,,,,,,,,,,,,,,,,1487.1567,1487.1567,1487.1573,1488.0433,1,0,right,0.2791,,1488.0441,1488.0445,0,1,,1488.0447,1488.045,0,0,,1,1488.045,1488.045,1488.0452,1489.5589,0,5,5,5,1,0.8,0.2,0.4,0.6,1,0,,,,,,,,,,,,,,,,,,,,,,,,,,,,,,,,,,,,
,,66d9ae66f6f721f4db56007c,66fc98426145664b605f1941,2024-10-01_17h49.28.199,mdp,2024.2.1,Win32,20,66fa4ebf79326e780c390304,,,,,,,,,,,,,,,,,,,,,1489.5591,1489.5591,1489.5596,1490.5334,1,1,right,0.3767,,1490.534,1490.5343,0,1,,1490.5345,1490.5347,0,1,,0,1490.5348,1490.5348,1490.5349,1492.0173,0,6,6,6,1,0.8,0.2,0.4,0.6,1,0,,,,,,,,,,,,,,,,,,,,,,,,,,,,,,,,,,,,
,,66d9ae66f6f721f4db56007c,66fc98426145664b605f1941,2024-10-01_17h49.28.199,mdp,2024.2.1,Win32,20,66fa4ebf79326e780c390304,,,,,,,,,,,,,,,,,,,,,1492.0175,1492.0175,1492.0178,1493.451,0,1,left,0.8204,,1493.4516,1493.4519,0,0,,1493.4522,1493.4524,0,0,,0,1493.4524,1493.4524,1493.4526,1494.9136,0,7,7,7,1,0.8,0.2,0.4,0.6,1,0,,,,,,,,,,,,,,,,,,,,,,,,,,,,,,,,,,,,
,,66d9ae66f6f721f4db56007c,66fc98426145664b605f1941,2024-10-01_17h49.28.199,mdp,2024.2.1,Win32,20,66fa4ebf79326e780c390304,,,,,,,,,,,,,,,,,,,,,1494.9139,1494.9139,1494.9144,1495.9298,0,0,left,0.397,,1495.9304,1495.9306,0,0,,1495.9309,1495.931,0,0,,1,1495.9311,1495.9311,1495.9313,1497.4092,0,8,8,8,1,0.6,0.4,0.8,0.2,1,0,,,,,,,,,,,,,,,,,,,,,,,,,,,,,,,,,,,,
,,66d9ae66f6f721f4db56007c,66fc98426145664b605f1941,2024-10-01_17h49.28.199,mdp,2024.2.1,Win32,20,66fa4ebf79326e780c390304,,,,,,,,,,,,,,,,,,,,,1497.4094,1497.4094,1497.41,1498.457,0,0,left,0.4403,,1498.4575,1498.4578,0,1,,1498.4581,1498.4583,0,1,,1,1498.4583,1498.4583,1498.4585,1499.956,0,9,9,9,1,0.6,0.4,0.8,0.2,1,0,,,,,,,,,,,,,,,,,,,,,,,,,,,,,,,,,,,,
,,66d9ae66f6f721f4db56007c,66fc98426145664b605f1941,2024-10-01_17h49.28.199,mdp,2024.2.1,Win32,20,66fa4ebf79326e780c390304,,,,,,,,,,,,,,,,,,,,,1499.9563,1499.9563,1499.9569,1500.9418,0,0,left,0.3757,,1500.9423,1500.9426,0,0,,1500.9429,1500.943,0,1,,1,1500.9431,1500.9431,1500.9433,1502.4343,0,10,10,10,1,0.8,0.2,0.4,0.6,1,0,,,,,,,,,,,,,,,,,,,,,,,,,,,,,,,,,,,,
,,66d9ae66f6f721f4db56007c,66fc98426145664b605f1941,2024-10-01_17h49.28.199,mdp,2024.2.1,Win32,20,66fa4ebf79326e780c390304,,,,,,,,,,,,,,,,,,,,,1502.4344,1502.4344,1502.4349,1503.4675,0,0,left,0.4291,,1503.4681,1503.4684,0,1,,1503.4687,1503.4689,0,0,,1,1503.4689,1503.4689,1503.4691,1504.9867,0,11,11,11,1,0.8,0.2,0.4,0.6,1,0,,,,,,,,,,,,,,,,,,,,,,,,,,,,,,,,,,,,
,,66d9ae66f6f721f4db56007c,66fc98426145664b605f1941,2024-10-01_17h49.28.199,mdp,2024.2.1,Win32,20,66fa4ebf79326e780c390304,,,,,,,,,,,,,,,,,,,,,1504.9869,1504.9869,1504.9874,1506.0364,0,1,left,0.4436,,1506.037,1506.0373,0,0,,1506.0376,1506.0378,0,0,,0,1506.0378,1506.0378,1506.0381,1507.5207,0,12,12,12,1,0.8,0.2,0.4,0.6,1,0,,,,,,,,,,,,,,,,,,,,,,,,,,,,,,,,,,,,
,,66d9ae66f6f721f4db56007c,66fc98426145664b605f1941,2024-10-01_17h49.28.199,mdp,2024.2.1,Win32,20,66fa4ebf79326e780c390304,,,,,,,,,,,,,,,,,,,,,1507.521,1507.521,1507.5217,1508.5601,1,1,right,0.4376,,1508.5607,1508.5609,0,1,,1508.5613,1508.5614,0,0,,0,1508.5614,1508.5614,1508.5616,1510.0329,0,13,13,13,1,0.8,0.2,0.4,0.6,1,0,,,,,,,,,,,,,,,,,,,,,,,,,,,,,,,,,,,,
,,66d9ae66f6f721f4db56007c,66fc98426145664b605f1941,2024-10-01_17h49.28.199,mdp,2024.2.1,Win32,20,66fa4ebf79326e780c390304,,,,,,,,,,,,,,,,,,,,,1510.0331,1510.0331,1510.0336,1511.0059,1,1,right,0.38,,1511.0067,1511.007,0,0,,1511.0072,1511.0074,0,1,,0,1511.0074,1511.0074,1511.0076,1512.4902,0,14,14,14,1,0.8,0.2,0.4,0.6,1,0,,,,,,,,,,,,,,,,,,,,,,,,,,,,,,,,,,,,
,,66d9ae66f6f721f4db56007c,66fc98426145664b605f1941,2024-10-01_17h49.28.199,mdp,2024.2.1,Win32,20,66fa4ebf79326e780c390304,,,,,,,,,,,,,,,,,,,,,1512.4904,1512.4904,1512.4909,1514.0836,0,0,left,0.9964,,1514.0843,1514.0846,0,0,,1514.0849,1514.0851,0,0,,1,1514.0851,1514.0851,1514.0853,1515.5581,0,15,15,15,1,0.8,0.2,0.4,0.6,1,0,,,,,,,,,,,,,,,,,,,,,,,,,,,,,,,,,,,,
,,66d9ae66f6f721f4db56007c,66fc98426145664b605f1941,2024-10-01_17h49.28.199,mdp,2024.2.1,Win32,20,66fa4ebf79326e780c390304,,,,,,,,,,,,,,,,,,,,,1515.5584,1515.5584,1515.5589,1516.6707,0,0,left,0.5022,,1516.6712,1516.6715,0,1,,1516.6717,1516.672,0,1,,1,1516.672,1516.672,1516.6721,1518.1588,0,16,16,16,1,0.8,0.2,0.4,0.6,1,0,,,,,,,,,,,,,,,,,,,,,,,,,,,,,,,,,,,,
,,66d9ae66f6f721f4db56007c,66fc98426145664b605f1941,2024-10-01_17h49.28.199,mdp,2024.2.1,Win32,20,66fa4ebf79326e780c390304,,,,,,,,,,,,,,,,,,,,,1518.159,1518.159,1518.1596,1519.226,0,0,left,0.4488,,1519.2269,1519.2271,0,0,,1519.2274,1519.2276,0,0,,1,1519.2276,1519.2276,1519.2278,1520.711,0,17,17,17,1,0.8,0.2,0.4,0.6,1,0,,,,,,,,,,,,,,,,,,,,,,,,,,,,,,,,,,,,
,,66d9ae66f6f721f4db56007c,66fc98426145664b605f1941,2024-10-01_17h49.28.199,mdp,2024.2.1,Win32,20,66fa4ebf79326e780c390304,,,,,,,,,,,,,,,,,,,,,1520.7113,1520.7113,1520.7118,1521.7397,0,0,left,0.4253,,1521.7402,1521.7405,0,0,,1521.7408,1521.741,0,0,,1,1521.741,1521.741,1521.7412,1523.2263,0,18,18,18,1,0.8,0.2,0.4,0.6,1,0,,,,,,,,,,,,,,,,,,,,,,,,,,,,,,,,,,,,
,,66d9ae66f6f721f4db56007c,66fc98426145664b605f1941,2024-10-01_17h49.28.199,mdp,2024.2.1,Win32,20,66fa4ebf79326e780c390304,,,,,,,,,,,,,,,,,,,,,1523.2265,1523.2265,1523.227,1524.1492,0,1,left,0.3155,,1524.1498,1524.1502,0,1,,1524.1505,1524.1507,0,1,,0,1524.1508,1524.1508,1524.151,1525.641,0,19,19,19,1,0.6,0.4,0.6,0.4,1,0,,,,,,,,,,,,,,,,,,,,,,,,,,,,,,,,,,,,
,,66d9ae66f6f721f4db56007c,66fc98426145664b605f1941,2024-10-01_17h49.28.199,mdp,2024.2.1,Win32,20,66fa4ebf79326e780c390304,,,,,,,,,,,,,,,,,,,,,1525.6411,1525.6411,1525.6417,1526.6989,1,1,right,0.448,,1526.6998,1526.7001,0,0,,1526.7005,1526.7006,0,0,,0,1526.7006,1526.7006,1526.7008,1528.1788,0,20,20,20,1,0.6,0.4,0.6,0.4,1,0,,,,,,,,,,,,,,,,,,,,,,,,,,,,,,,,,,,,
,,66d9ae66f6f721f4db56007c,66fc98426145664b605f1941,2024-10-01_17h49.28.199,mdp,2024.2.1,Win32,20,66fa4ebf79326e780c390304,,,,,,,,,,,,,,,,,,,,,1528.1789,1528.1789,1528.1797,1529.1829,1,0,right,0.4491,,1529.1834,1529.1838,0,0,,1529.184,1529.1842,0,1,,1,1529.1842,1529.1842,1529.1844,1530.6656,0,21,21,21,1,0.6,0.4,0.6,0.4,1,0,,,,,,,,,,,,,,,,,,,,,,,,,,,,,,,,,,,,
,,66d9ae66f6f721f4db56007c,66fc98426145664b605f1941,2024-10-01_17h49.28.199,mdp,2024.2.1,Win32,20,66fa4ebf79326e780c390304,,,,,,,,,,,,,,,,,,,,,1530.6658,1530.6658,1530.6663,1531.6417,1,0,right,0.4103,,1531.6422,1531.6425,0,0,,1531.6428,1531.6429,0,0,,1,1531.6429,1531.6429,1531.6432,1533.1248,0,22,22,22,1,0.8,0.2,0.8,0.2,1,0,,,,,,,,,,,,,,,,,,,,,,,,,,,,,,,,,,,,
,,66d9ae66f6f721f4db56007c,66fc98426145664b605f1941,2024-10-01_17h49.28.199,mdp,2024.2.1,Win32,20,66fa4ebf79326e780c390304,,,,,,,,,,,,,,,,,,,,,1533.1249,1533.1249,1533.1255,1534.0885,1,0,right,0.371,,1534.0891,1534.0894,0,0,,1534.0897,1534.09,0,1,,1,1534.09,1534.09,1534.0901,1535.5713,0,23,23,23,1,0.8,0.2,0.8,0.2,1,0,,,,,,,,,,,,,,,,,,,,,,,,,,,,,,,,,,,,
,,66d9ae66f6f721f4db56007c,66fc98426145664b605f1941,2024-10-01_17h49.28.199,mdp,2024.2.1,Win32,20,66fa4ebf79326e780c390304,,,,,,,,,,,,,,,,,,,,,1535.5716,1535.5716,1535.5722,1536.5925,1,0,right,0.3988,,1536.593,1536.5934,0,0,,1536.5936,1536.5938,0,0,,1,1536.5938,1536.5938,1536.5941,1538.0793,0,24,24,24,1,0.8,0.2,0.8,0.2,1,0,,,,,,,,,,,,,,,,,,,,,,,,,,,,,,,,,,,,
,,66d9ae66f6f721f4db56007c,66fc98426145664b605f1941,2024-10-01_17h49.28.199,mdp,2024.2.1,Win32,20,66fa4ebf79326e780c390304,,,,,,,,,,,,,,,,,,,,,1538.0796,1538.0796,1538.0804,1539.1308,1,1,right,0.4443,,1539.1313,1539.1316,0,0,,1539.1318,1539.1321,0,0,,0,1539.1321,1539.1321,1539.1323,1540.6131,0,25,25,25,1,0.8,0.2,0.8,0.2,1,0,,,,,,,,,,,,,,,,,,,,,,,,,,,,,,,,,,,,
,,66d9ae66f6f721f4db56007c,66fc98426145664b605f1941,2024-10-01_17h49.28.199,mdp,2024.2.1,Win32,20,66fa4ebf79326e780c390304,,,,,,,,,,,,,,,,,,,,,1540.6133,1540.6133,1540.6138,1541.5965,0,0,left,0.3727,,1541.597,1541.5972,0,0,,1541.5975,1541.5978,0,0,,1,1541.5978,1541.5978,1541.598,1543.0742,0,26,26,26,1,0.8,0.2,0.8,0.2,1,0,,,,,,,,,,,,,,,,,,,,,,,,,,,,,,,,,,,,
,,66d9ae66f6f721f4db56007c,66fc98426145664b605f1941,2024-10-01_17h49.28.199,mdp,2024.2.1,Win32,20,66fa4ebf79326e780c390304,,,,,,,,,,,,,,,,,,,,,1543.0744,1543.0744,1543.075,1544.0654,0,1,left,0.3778,,1544.0661,1544.0665,0,0,,1544.0669,1544.0671,0,0,,0,1544.0671,1544.0671,1544.0673,1545.5459,0,27,27,27,1,0.6,0.4,0.2,0.8,1,0,,,,,,,,,,,,,,,,,,,,,,,,,,,,,,,,,,,,
,,66d9ae66f6f721f4db56007c,66fc98426145664b605f1941,2024-10-01_17h49.28.199,mdp,2024.2.1,Win32,20,66fa4ebf79326e780c390304,,,,,,,,,,,,,,,,,,,,,1545.5461,1545.5461,1545.5467,1546.5316,1,1,right,0.3796,,1546.5321,1546.5324,0,1,,1546.5327,1546.5329,0,1,,0,1546.5329,1546.5329,1546.5332,1548.0345,0,28,28,28,1,0.6,0.4,0.2,0.8,1,0,,,,,,,,,,,,,,,,,,,,,,,,,,,,,,,,,,,,
,,66d9ae66f6f721f4db56007c,66fc98426145664b605f1941,2024-10-01_17h49.28.199,mdp,2024.2.1,Win32,20,66fa4ebf79326e780c390304,,,,,,,,,,,,,,,,,,,,,1548.0348,1548.0348,1548.0354,1549.0572,1,1,right,0.437,,1549.0577,1549.0581,0,1,,1549.0583,1549.0585,0,0,,0,1549.0585,1549.0585,1549.0588,1550.5115,0,29,29,29,1,0.6,0.4,0.2,0.8,1,0,,,,,,,,,,,,,,,,,,,,,,,,,,,,,,,,,,,,
,,66d9ae66f6f721f4db56007c,66fc98426145664b605f1941,2024-10-01_17h49.28.199,mdp,2024.2.1,Win32,20,66fa4ebf79326e780c390304,,,,,,,,,,,,,,,,,,,,,1550.5117,1550.5117,1550.5123,1551.5081,0,1,left,0.3874,,1551.5087,1551.5091,0,0,,1551.5094,1551.5097,0,1,,0,1551.5097,1551.5097,1551.5101,1552.9936,0,30,30,30,1,0.2,0.8,0.6,0.4,1,0,,,,,,,,,,,,,,,,,,,,,,,,,,,,,,,,,,,,
,,66d9ae66f6f721f4db56007c,66fc98426145664b605f1941,2024-10-01_17h49.28.199,mdp,2024.2.1,Win32,20,66fa4ebf79326e780c390304,,,,,,,,,,,,,,,,,,,,,1552.9938,1552.9938,1552.9944,1558.3195,0,0,left,4.7099,,1558.3201,1558.3204,0,0,,1558.3207,1558.3209,0,1,,1,1558.3209,1558.3209,1558.3211,1559.7803,0,31,31,31,1,0.4,0.6,0.8,0.2,1,0,,,,,,,,,,,,,,,,,,,,,,,,,,,,,,,,,,,,
,,66d9ae66f6f721f4db56007c,66fc98426145664b605f1941,2024-10-01_17h49.28.199,mdp,2024.2.1,Win32,20,66fa4ebf79326e780c390304,,,,,,,,,,,,,,,,,,,,,1559.7805,1559.7805,1559.7811,1560.7791,0,0,left,0.3852,,1560.7796,1560.7799,0,0,,1560.7802,1560.7804,0,0,,1,1560.7804,1560.7804,1560.7806,1562.2506,0,32,32,32,1,0.6,0.4,0.4,0.6,1,0,,,,,,,,,,,,,,,,,,,,,,,,,,,,,,,,,,,,
,,66d9ae66f6f721f4db56007c,66fc98426145664b605f1941,2024-10-01_17h49.28.199,mdp,2024.2.1,Win32,20,66fa4ebf79326e780c390304,,,,,,,,,,,,,,,,,,,,,1562.2508,1562.2508,1562.2513,1563.2469,0,0,left,0.3791,,1563.2474,1563.2477,0,0,,1563.248,1563.2482,0,1,,1,1563.2482,1563.2482,1563.2484,1564.7217,0,33,33,33,1,0.6,0.4,0.4,0.6,1,0,,,,,,,,,,,,,,,,,,,,,,,,,,,,,,,,,,,,
,,66d9ae66f6f721f4db56007c,66fc98426145664b605f1941,2024-10-01_17h49.28.199,mdp,2024.2.1,Win32,20,66fa4ebf79326e780c390304,,,,,,,,,,,,,,,,,,,,,1564.7219,1564.722,1564.7225,1565.703,0,0,left,0.3771,,1565.7036,1565.7041,0,0,,1565.7044,1565.7047,0,0,,1,1565.7047,1565.7047,1565.7049,1567.1891,0,34,34,34,1,0.6,0.4,0.4,0.6,1,0,,,,,,,,,,,,,,,,,,,,,,,,,,,,,,,,,,,,
,,66d9ae66f6f721f4db56007c,66fc98426145664b605f1941,2024-10-01_17h49.28.199,mdp,2024.2.1,Win32,20,66fa4ebf79326e780c390304,,,,,,,,,,,,,,,,,,,,,1567.1892,1567.1893,1567.1902,1568.1612,0,0,left,0.3784,,1568.1618,1568.162,0,1,,1568.1623,1568.1625,0,0,,1,1568.1625,1568.1625,1568.1628,1569.6339,0,35,35,35,1,0.6,0.4,0.4,0.6,1,0,,,,,,,,,,,,,,,,,,,,,,,,,,,,,,,,,,,,
,,66d9ae66f6f721f4db56007c,66fc98426145664b605f1941,2024-10-01_17h49.28.199,mdp,2024.2.1,Win32,20,66fa4ebf79326e780c390304,,,,,,,,,,,,,,,,,,,,,1569.6341,1569.6341,1569.6347,1570.6183,0,0,left,0.375,,1570.6189,1570.6191,0,0,,1570.6194,1570.6195,0,0,,1,1570.6196,1570.6196,1570.6198,1572.1087,0,36,36,36,1,0.6,0.4,0.4,0.6,1,0,,,,,,,,,,,,,,,,,,,,,,,,,,,,,,,,,,,,
,,66d9ae66f6f721f4db56007c,66fc98426145664b605f1941,2024-10-01_17h49.28.199,mdp,2024.2.1,Win32,20,66fa4ebf79326e780c390304,,,,,,,,,,,,,,,,,,,,,1572.1089,1572.1089,1572.1095,1573.1589,0,1,left,0.4283,,1573.1595,1573.1597,0,1,,1573.16,1573.1602,0,0,,0,1573.1602,1573.1602,1573.1605,1574.6642,0,37,37,37,1,0.6,0.4,0.4,0.6,1,0,,,,,,,,,,,,,,,,,,,,,,,,,,,,,,,,,,,,
,,66d9ae66f6f721f4db56007c,66fc98426145664b605f1941,2024-10-01_17h49.28.199,mdp,2024.2.1,Win32,20,66fa4ebf79326e780c390304,,,,,,,,,,,,,,,,,,,,,1574.6644,1574.6644,1574.6649,1575.6529,1,1,right,0.3838,,1575.6535,1575.6538,0,1,,1575.6541,1575.6543,0,0,,0,1575.6543,1575.6543,1575.6546,1577.121,0,38,38,38,1,0.6,0.4,0.4,0.6,1,0,,,,,,,,,,,,,,,,,,,,,,,,,,,,,,,,,,,,
,,66d9ae66f6f721f4db56007c,66fc98426145664b605f1941,2024-10-01_17h49.28.199,mdp,2024.2.1,Win32,20,66fa4ebf79326e780c390304,,,,,,,,,,,,,,,,,,,,,1577.1212,1577.1212,1577.1217,1578.1261,1,0,right,0.3935,,1578.1267,1578.127,0,0,,1578.1272,1578.1274,0,0,,1,1578.1274,1578.1274,1578.1277,1579.6134,0,39,39,39,1,0.6,0.4,0.4,0.6,1,0,,,,,,,,,,,,,,,,,,,,,,,,,,,,,,,,,,,,
,,66d9ae66f6f721f4db56007c,66fc98426145664b605f1941,2024-10-01_17h49.28.199,mdp,2024.2.1,Win32,20,66fa4ebf79326e780c390304,,,,,,,,,,,,,,,,,,,,,1579.6136,1579.6136,1579.6141,1580.5894,1,1,right,0.3738,,1580.5899,1580.5901,0,1,,1580.5904,1580.5906,0,1,,0,1580.5906,1580.5906,1580.5908,1582.1066,0,40,40,40,1,0.6,0.4,0.4,0.6,1,0,,,,,,,,,,,,,,,,,,,,,,,,,,,,,,,,,,,,
,,66d9ae66f6f721f4db56007c,66fc98426145664b605f1941,2024-10-01_17h49.28.199,mdp,2024.2.1,Win32,20,66fa4ebf79326e780c390304,,,,,,,,,,,,,,,,,,,,,1582.1069,1582.1069,1582.1075,1583.0215,0,1,left,0.3193,,1583.022,1583.0223,0,0,,1583.0226,1583.0228,0,1,,0,1583.0228,1583.0228,1583.023,1584.509,0,41,41,41,1,0.2,0.8,0.8,0.2,1,0,,,,,,,,,,,,,,,,,,,,,,,,,,,,,,,,,,,,
,,66d9ae66f6f721f4db56007c,66fc98426145664b605f1941,2024-10-01_17h49.28.199,mdp,2024.2.1,Win32,20,66fa4ebf79326e780c390304,,,,,,,,,,,,,,,,,,,,,1584.5091,1584.5091,1584.5097,1585.428,0,1,left,0.3168,,1585.4285,1585.4288,0,1,,1585.429,1585.4292,0,0,,0,1585.4292,1585.4292,1585.4294,1586.9144,0,42,42,42,1,0.2,0.8,0.8,0.2,1,0,,,,,,,,,,,,,,,,,,,,,,,,,,,,,,,,,,,,
,,66d9ae66f6f721f4db56007c,66fc98426145664b605f1941,2024-10-01_17h49.28.199,mdp,2024.2.1,Win32,20,66fa4ebf79326e780c390304,,,,,,,,,,,,,,,,,,,,,1586.9146,1586.9146,1586.9151,1587.839,1,0,right,0.3158,,1587.8395,1587.8397,0,0,,1587.84,1587.8401,0,0,,1,1587.8402,1587.8402,1587.8404,1589.3024,0,43,43,43,1,0.2,0.8,0.8,0.2,1,0,,,,,,,,,,,,,,,,,,,,,,,,,,,,,,,,,,,,
,,66d9ae66f6f721f4db56007c,66fc98426145664b605f1941,2024-10-01_17h49.28.199,mdp,2024.2.1,Win32,20,66fa4ebf79326e780c390304,,,,,,,,,,,,,,,,,,,,,1589.3025,1589.3025,1589.303,1590.2469,1,0,right,0.3802,,1590.2474,1590.2478,0,0,,1590.248,1590.2482,0,0,,1,1590.2482,1590.2482,1590.2485,1591.7433,0,44,44,44,1,0.2,0.8,0.8,0.2,1,0,,,,,,,,,,,,,,,,,,,,,,,,,,,,,,,,,,,,
,,66d9ae66f6f721f4db56007c,66fc98426145664b605f1941,2024-10-01_17h49.28.199,mdp,2024.2.1,Win32,20,66fa4ebf79326e780c390304,,,,,,,,,,,,,,,,,,,,,1591.7436,1591.7436,1591.7442,1592.6027,1,0,right,0.2749,,1592.6034,1592.6038,0,0,,1592.6041,1592.6043,0,0,,1,1592.6043,1592.6043,1592.6045,1594.1009,0,45,45,45,1,0.2,0.8,0.8,0.2,1,0,,,,,,,,,,,,,,,,,,,,,,,,,,,,,,,,,,,,
,,66d9ae66f6f721f4db56007c,66fc98426145664b605f1941,2024-10-01_17h49.28.199,mdp,2024.2.1,Win32,20,66fa4ebf79326e780c390304,,,,,,,,,,,,,,,,,,,,,1594.1011,1594.1011,1594.1017,1595.0091,1,1,right,0.3367,,1595.0099,1595.0103,0,0,,1595.0107,1595.011,0,0,,0,1595.0111,1595.0111,1595.0114,1596.5085,0,46,46,46,1,0.2,0.8,0.8,0.2,1,0,,,,,,,,,,,,,,,,,,,,,,,,,,,,,,,,,,,,
