init_exp.started,init_exp.stopped,participant,session,date,expName,psychopyVersion,OS,frameRate,study_id,disp_instruction.started,disp_instruction.stopped,instruction.thisRepN,instruction.thisTrialN,instruction.thisN,instruction.thisIndex,instruction.ran,instimg_path,consent.started,consent.stopped,key_resp_3.keys,key_resp_3.rt,key_resp_3.duration,n_steps,sequence_path,init_block.started,init_block.stopped,key_resp.keys,key_resp.rt,key_resp.duration,init_trials.started,init_trials.stopped,step0.started,step0.stopped,act0,s1,res0.keys,res0.rt,res0.duration,step1.started,step1.stopped,act1,s2,res1.keys,step2.started,step2.stopped,act2,s3,res2.keys,rew,reward_comp.started,reward_comp.stopped,reward_disp.started,reward_disp.stopped,trials.thisRepN,trials.thisTrialN,trials.thisN,trials.thisIndex,trials.ran,s00a0s10,s00a0s11,s00a1s10,s00a1s11,rew10,rew11,break_block.started,break_block.stopped,block.thisRepN,block.thisTrialN,block.thisN,block.thisIndex,block.ran,s00path,s10path,s11path,s20path,s21path,res1.rt,res1.duration,s10a0s20,s10a0s21,s10a1s20,s10a1s21,s11a0s20,s11a0s21,s11a1s20,s11a1s21,rew20,rew21,res2.rt,res2.duration,s20a0s30,s20a0s31,s20a1s30,s20a1s31,s21a0s30,s21a0s31,s21a1s30,s21a1s31,rew30,rew31
0.0005,0.0028,66dae86be0d77b33d6805623,66daf5bab92947885aefac0b,2024-09-06_14h30.40.497,mdp,2024.2.1,Win32,59.88023952,66d7945b1baad48e845df3ce,,,,,,,,,,,,,,,,,,,,,,,,,,,,,,,,,,,,,,,,,,,,,,,,,,,,,,,,,,,,,,,,,,,,,,,,,,,,,,,,,,,,,,,,,,,
,,66dae86be0d77b33d6805623,66daf5bab92947885aefac0b,2024-09-06_14h30.40.497,mdp,2024.2.1,Win32,59.88023952,66d7945b1baad48e845df3ce,0.0085,35.035,0,0,0,0,1,rlnn_exp/rlnn_exp.001.png,,,,,,,,,,,,,,,,,,,,,,,,,,,,,,,,,,,,,,,,,,,,,,,,,,,,,,,,,,,,,,,,,,,,,,,,,,,,,,,,,,,
,,66dae86be0d77b33d6805623,66daf5bab92947885aefac0b,2024-09-06_14h30.40.497,mdp,2024.2.1,Win32,59.88023952,66d7945b1baad48e845df3ce,35.0358,55.9502,0,1,1,1,1,rlnn_exp/rlnn_exp.002.png,,,,,,,,,,,,,,,,,,,,,,,,,,,,,,,,,,,,,,,,,,,,,,,,,,,,,,,,,,,,,,,,,,,,,,,,,,,,,,,,,,,
,,66dae86be0d77b33d6805623,66daf5bab92947885aefac0b,2024-09-06_14h30.40.497,mdp,2024.2.1,Win32,59.88023952,66d7945b1baad48e845df3ce,55.9602,77.5497,0,2,2,2,1,rlnn_exp/rlnn_exp.003.png,,,,,,,,,,,,,,,,,,,,,,,,,,,,,,,,,,,,,,,,,,,,,,,,,,,,,,,,,,,,,,,,,,,,,,,,,,,,,,,,,,,
,,66dae86be0d77b33d6805623,66daf5bab92947885aefac0b,2024-09-06_14h30.40.497,mdp,2024.2.1,Win32,59.88023952,66d7945b1baad48e845df3ce,77.5601,88.2495,0,3,3,3,1,rlnn_exp/rlnn_exp.004.png,,,,,,,,,,,,,,,,,,,,,,,,,,,,,,,,,,,,,,,,,,,,,,,,,,,,,,,,,,,,,,,,,,,,,,,,,,,,,,,,,,,
,,66dae86be0d77b33d6805623,66daf5bab92947885aefac0b,2024-09-06_14h30.40.497,mdp,2024.2.1,Win32,59.88023952,66d7945b1baad48e845df3ce,,,,,,,,,88.2596,108.1662,y,9.8854,,,,,,,,,,,,,,,,,,,,,,,,,,,,,,,,,,,,,,,,,,,,,,,,,,,,,,,,,,,,,,,,,,,,,,,,,,,,,,,
,,66dae86be0d77b33d6805623,66daf5bab92947885aefac0b,2024-09-06_14h30.40.497,mdp,2024.2.1,Win32,59.88023952,66d7945b1baad48e845df3ce,,,,,,,,,,,,,,1,seqs/st1seq28.csv,108.1802,110.9993,space,2.3008,,111.0113,111.0115,111.0118,113.6492,0,0,left,2.1143,,113.6498,113.6513,,0,,113.6517,113.6526,,1,,1,113.6527,113.6528,113.6531,115.149,0,0,0,0,1,0.8,0.2,0.8,0.2,1,0,,,,,,,,,,,,,,,,,,,,,,,,,,,,,,,,,,,,
,,66dae86be0d77b33d6805623,66daf5bab92947885aefac0b,2024-09-06_14h30.40.497,mdp,2024.2.1,Win32,59.88023952,66d7945b1baad48e845df3ce,,,,,,,,,,,,,,,,,,,,,115.1495,115.1495,115.1504,118.4153,1,0,right,2.7345,,118.4253,118.4261,,0,,118.4268,118.4272,,0,,1,118.4272,118.4272,118.4276,119.9153,0,1,1,1,1,0.8,0.2,0.8,0.2,1,0,,,,,,,,,,,,,,,,,,,,,,,,,,,,,,,,,,,,
,,66dae86be0d77b33d6805623,66daf5bab92947885aefac0b,2024-09-06_14h30.40.497,mdp,2024.2.1,Win32,59.88023952,66d7945b1baad48e845df3ce,,,,,,,,,,,,,,,,,,,,,119.9157,119.9157,119.917,122.8153,0,0,left,2.375,,122.8251,122.8259,,1,,122.8264,122.8268,,1,,1,122.8269,122.8269,122.8272,124.3151,0,2,2,2,1,0.8,0.2,0.8,0.2,1,0,,,,,,,,,,,,,,,,,,,,,,,,,,,,,,,,,,,,
,,66dae86be0d77b33d6805623,66daf5bab92947885aefac0b,2024-09-06_14h30.40.497,mdp,2024.2.1,Win32,59.88023952,66d7945b1baad48e845df3ce,,,,,,,,,,,,,,,,,,,,,124.3155,124.3155,124.3166,126.5319,0,0,left,1.6877,,126.533,126.5337,,0,,126.5345,126.535,,0,,1,126.535,126.535,126.5355,128.0318,0,3,3,3,1,0.8,0.2,0.8,0.2,1,0,,,,,,,,,,,,,,,,,,,,,,,,,,,,,,,,,,,,
,,66dae86be0d77b33d6805623,66daf5bab92947885aefac0b,2024-09-06_14h30.40.497,mdp,2024.2.1,Win32,59.88023952,66d7945b1baad48e845df3ce,,,,,,,,,,,,,,,,,,,,,128.0321,128.0321,128.0332,129.4985,1,0,right,0.9348,,129.4996,129.5003,,0,,129.5009,129.5015,,1,,1,129.5015,129.5015,129.5019,130.9985,0,4,4,4,1,0.8,0.2,0.8,0.2,1,0,,,,,,,,,,,,,,,,,,,,,,,,,,,,,,,,,,,,
,,66dae86be0d77b33d6805623,66daf5bab92947885aefac0b,2024-09-06_14h30.40.497,mdp,2024.2.1,Win32,59.88023952,66d7945b1baad48e845df3ce,,,,,,,,,,,,,,,,,,,,,130.9987,130.9988,131.0001,132.1817,0,0,left,0.6521,,132.183,132.1837,,0,,132.1843,132.1848,,0,,1,132.1848,132.1848,132.1851,133.6816,0,5,5,5,1,0.8,0.2,0.8,0.2,1,0,,,,,,,,,,,,,,,,,,,,,,,,,,,,,,,,,,,,
,,66dae86be0d77b33d6805623,66daf5bab92947885aefac0b,2024-09-06_14h30.40.497,mdp,2024.2.1,Win32,59.88023952,66d7945b1baad48e845df3ce,,,,,,,,,,,,,,,,,,,,,133.682,133.682,133.6833,134.8649,0,1,left,0.6458,,134.8662,134.8672,,1,,134.8677,134.8681,,1,,0,134.8681,134.8681,134.8686,136.3649,0,6,6,6,1,0.6,0.4,0.2,0.8,1,0,,,,,,,,,,,,,,,,,,,,,,,,,,,,,,,,,,,,
,,66dae86be0d77b33d6805623,66daf5bab92947885aefac0b,2024-09-06_14h30.40.497,mdp,2024.2.1,Win32,59.88023952,66d7945b1baad48e845df3ce,,,,,,,,,,,,,,,,,,,,,136.3652,136.3652,136.3665,138.0484,0,1,left,1.156,,138.0495,138.0503,,1,,138.051,138.0516,,0,,0,138.0517,138.0517,138.0522,139.548,0,7,7,7,1,0.6,0.4,0.2,0.8,1,0,,,,,,,,,,,,,,,,,,,,,,,,,,,,,,,,,,,,
,,66dae86be0d77b33d6805623,66daf5bab92947885aefac0b,2024-09-06_14h30.40.497,mdp,2024.2.1,Win32,59.88023952,66d7945b1baad48e845df3ce,,,,,,,,,,,,,,,,,,,,,139.5485,139.5485,139.5497,141.1647,1,1,right,1.0908,,141.1657,141.1663,,0,,141.167,141.1675,,1,,0,141.1675,141.1675,141.1679,142.6647,0,8,8,8,1,0.8,0.2,0.4,0.6,1,0,,,,,,,,,,,,,,,,,,,,,,,,,,,,,,,,,,,,
,,66dae86be0d77b33d6805623,66daf5bab92947885aefac0b,2024-09-06_14h30.40.497,mdp,2024.2.1,Win32,59.88023952,66d7945b1baad48e845df3ce,,,,,,,,,,,,,,,,,,,,,142.6652,142.6652,142.6662,145.2648,0,0,left,2.0733,,145.2657,145.2664,,0,,145.267,145.2674,,1,,1,145.2675,145.2675,145.2679,146.7645,0,9,9,9,1,0.8,0.2,0.4,0.6,1,0,,,,,,,,,,,,,,,,,,,,,,,,,,,,,,,,,,,,
,,66dae86be0d77b33d6805623,66daf5bab92947885aefac0b,2024-09-06_14h30.40.497,mdp,2024.2.1,Win32,59.88023952,66d7945b1baad48e845df3ce,,,,,,,,,,,,,,,,,,,,,146.7649,146.7649,146.7659,148.348,0,0,left,1.057,,148.3491,148.3498,,0,,148.3504,148.3508,,0,,1,148.3509,148.3509,148.3512,149.848,0,10,10,10,1,0.8,0.2,0.4,0.6,1,0,,,,,,,,,,,,,,,,,,,,,,,,,,,,,,,,,,,,
,,66dae86be0d77b33d6805623,66daf5bab92947885aefac0b,2024-09-06_14h30.40.497,mdp,2024.2.1,Win32,59.88023952,66d7945b1baad48e845df3ce,,,,,,,,,,,,,,,,,,,,,149.8484,149.8484,149.8494,150.898,1,0,right,0.5172,,150.8994,150.9002,,1,,150.9008,150.9013,,1,,1,150.9014,150.9014,150.9019,152.3979,0,11,11,11,1,0.8,0.2,0.4,0.6,1,0,,,,,,,,,,,,,,,,,,,,,,,,,,,,,,,,,,,,
,,66dae86be0d77b33d6805623,66daf5bab92947885aefac0b,2024-09-06_14h30.40.497,mdp,2024.2.1,Win32,59.88023952,66d7945b1baad48e845df3ce,,,,,,,,,,,,,,,,,,,,,152.3984,152.3984,152.3994,153.2979,1,0,right,0.378,,153.2989,153.2996,,0,,153.3002,153.3007,,1,,1,153.3007,153.3007,153.3012,154.7978,0,12,12,12,1,0.8,0.2,0.4,0.6,1,0,,,,,,,,,,,,,,,,,,,,,,,,,,,,,,,,,,,,
,,66dae86be0d77b33d6805623,66daf5bab92947885aefac0b,2024-09-06_14h30.40.497,mdp,2024.2.1,Win32,59.88023952,66d7945b1baad48e845df3ce,,,,,,,,,,,,,,,,,,,,,154.7982,154.7982,154.7992,155.6812,0,0,left,0.3458,,155.6825,155.6832,,0,,155.6838,155.6842,,0,,1,155.6843,155.6843,155.6847,157.1812,0,13,13,13,1,0.8,0.2,0.4,0.6,1,0,,,,,,,,,,,,,,,,,,,,,,,,,,,,,,,,,,,,
,,66dae86be0d77b33d6805623,66daf5bab92947885aefac0b,2024-09-06_14h30.40.497,mdp,2024.2.1,Win32,59.88023952,66d7945b1baad48e845df3ce,,,,,,,,,,,,,,,,,,,,,157.1815,157.1815,157.1826,158.0145,0,0,left,0.3065,,158.0155,158.0164,,0,,158.0169,158.0175,,0,,1,158.0175,158.0175,158.0179,159.5145,0,14,14,14,1,0.8,0.2,0.4,0.6,1,0,,,,,,,,,,,,,,,,,,,,,,,,,,,,,,,,,,,,
,,66dae86be0d77b33d6805623,66daf5bab92947885aefac0b,2024-09-06_14h30.40.497,mdp,2024.2.1,Win32,59.88023952,66d7945b1baad48e845df3ce,,,,,,,,,,,,,,,,,,,,,159.5151,159.5151,159.516,160.3312,1,1,right,0.2852,,160.3323,160.3331,,1,,160.3337,160.3341,,0,,0,160.3341,160.3341,160.3345,161.831,0,15,15,15,1,0.8,0.2,0.4,0.6,1,0,,,,,,,,,,,,,,,,,,,,,,,,,,,,,,,,,,,,
,,66dae86be0d77b33d6805623,66daf5bab92947885aefac0b,2024-09-06_14h30.40.497,mdp,2024.2.1,Win32,59.88023952,66d7945b1baad48e845df3ce,,,,,,,,,,,,,,,,,,,,,161.8314,161.8314,161.8324,162.7144,1,1,right,0.355,,162.7155,162.7161,,1,,162.7167,162.7171,,1,,0,162.7171,162.7171,162.7176,164.2143,0,16,16,16,1,0.8,0.2,0.4,0.6,1,0,,,,,,,,,,,,,,,,,,,,,,,,,,,,,,,,,,,,
,,66dae86be0d77b33d6805623,66daf5bab92947885aefac0b,2024-09-06_14h30.40.497,mdp,2024.2.1,Win32,59.88023952,66d7945b1baad48e845df3ce,,,,,,,,,,,,,,,,,,,,,164.2147,164.2148,164.2159,165.9311,1,0,right,1.1854,,165.9322,165.933,,0,,165.9335,165.9339,,0,,1,165.9339,165.9339,165.9344,167.4311,0,17,17,17,1,0.8,0.2,0.4,0.6,1,0,,,,,,,,,,,,,,,,,,,,,,,,,,,,,,,,,,,,
,,66dae86be0d77b33d6805623,66daf5bab92947885aefac0b,2024-09-06_14h30.40.497,mdp,2024.2.1,Win32,59.88023952,66d7945b1baad48e845df3ce,,,,,,,,,,,,,,,,,,,,,167.4315,167.4315,167.4327,168.3644,1,0,right,0.4135,,168.3656,168.3664,,1,,168.3669,168.3674,,0,,1,168.3674,168.3674,168.3679,169.8641,0,18,18,18,1,0.2,0.8,0.6,0.4,1,0,,,,,,,,,,,,,,,,,,,,,,,,,,,,,,,,,,,,
,,66dae86be0d77b33d6805623,66daf5bab92947885aefac0b,2024-09-06_14h30.40.497,mdp,2024.2.1,Win32,59.88023952,66d7945b1baad48e845df3ce,,,,,,,,,,,,,,,,,,,,,169.8644,169.8644,169.8654,170.5475,1,1,right,0.1519,,170.5485,170.5492,,1,,170.5499,170.5504,,1,,0,170.5504,170.5504,170.5509,172.0473,0,19,19,19,1,0.6,0.4,0.2,0.8,1,0,,,,,,,,,,,,,,,,,,,,,,,,,,,,,,,,,,,,
,,66dae86be0d77b33d6805623,66daf5bab92947885aefac0b,2024-09-06_14h30.40.497,mdp,2024.2.1,Win32,59.88023952,66d7945b1baad48e845df3ce,,,,,,,,,,,,,,,,,,,,,172.0476,172.0476,172.0485,173.3641,0,1,left,0.7851,,173.3652,173.3661,,1,,173.3667,173.3671,,0,,0,173.3671,173.3671,173.3675,174.8638,0,20,20,20,1,0.6,0.4,0.2,0.8,1,0,,,,,,,,,,,,,,,,,,,,,,,,,,,,,,,,,,,,
,,66dae86be0d77b33d6805623,66daf5bab92947885aefac0b,2024-09-06_14h30.40.497,mdp,2024.2.1,Win32,59.88023952,66d7945b1baad48e845df3ce,,,,,,,,,,,,,,,,,,,,,174.8642,174.8643,174.8652,175.7475,0,0,left,0.3506,,175.7486,175.7491,,1,,175.7498,175.7503,,1,,1,175.7503,175.7503,175.7507,177.2472,0,21,21,21,1,0.6,0.4,0.2,0.8,1,0,,,,,,,,,,,,,,,,,,,,,,,,,,,,,,,,,,,,
,,66dae86be0d77b33d6805623,66daf5bab92947885aefac0b,2024-09-06_14h30.40.497,mdp,2024.2.1,Win32,59.88023952,66d7945b1baad48e845df3ce,,,,,,,,,,,,,,,,,,,,,177.2475,177.2475,177.2485,178.1973,0,1,left,0.4226,,178.1984,178.1991,,1,,178.1996,178.2,,0,,0,178.2,178.2,178.2004,179.6972,0,22,22,22,1,0.6,0.4,0.2,0.8,1,0,,,,,,,,,,,,,,,,,,,,,,,,,,,,,,,,,,,,
,,66dae86be0d77b33d6805623,66daf5bab92947885aefac0b,2024-09-06_14h30.40.497,mdp,2024.2.1,Win32,59.88023952,66d7945b1baad48e845df3ce,,,,,,,,,,,,,,,,,,,,,179.6976,179.6976,179.6985,180.6972,0,0,left,0.4672,,180.6984,180.6991,,1,,180.6996,180.7,,1,,1,180.7,180.7,180.7004,182.1971,0,23,23,23,1,0.6,0.4,0.2,0.8,1,0,,,,,,,,,,,,,,,,,,,,,,,,,,,,,,,,,,,,
,,66dae86be0d77b33d6805623,66daf5bab92947885aefac0b,2024-09-06_14h30.40.497,mdp,2024.2.1,Win32,59.88023952,66d7945b1baad48e845df3ce,,,,,,,,,,,,,,,,,,,,,182.1974,182.1974,182.1983,182.7808,1,1,right,0.0535,,182.7818,182.7826,,1,,182.7831,182.7834,,1,,0,182.7834,182.7834,182.7839,184.2808,0,24,24,24,1,0.6,0.4,0.2,0.8,1,0,,,,,,,,,,,,,,,,,,,,,,,,,,,,,,,,,,,,
,,66dae86be0d77b33d6805623,66daf5bab92947885aefac0b,2024-09-06_14h30.40.497,mdp,2024.2.1,Win32,59.88023952,66d7945b1baad48e845df3ce,,,,,,,,,,,,,,,,,,,,,184.2811,184.2811,184.282,185.2139,1,1,right,0.4126,,185.2149,185.2155,,0,,185.2161,185.2164,,1,,0,185.2165,185.2165,185.2169,186.7137,0,25,25,25,1,0.6,0.4,0.2,0.8,1,0,,,,,,,,,,,,,,,,,,,,,,,,,,,,,,,,,,,,
,,66dae86be0d77b33d6805623,66daf5bab92947885aefac0b,2024-09-06_14h30.40.497,mdp,2024.2.1,Win32,59.88023952,66d7945b1baad48e845df3ce,,,,,,,,,,,,,,,,,,,,,186.7141,186.7141,186.715,188.3804,1,0,right,1.1365,,188.3816,188.3824,,1,,188.3831,188.3837,,1,,1,188.3838,188.3838,188.3844,189.8804,0,26,26,26,1,0.6,0.4,0.2,0.8,1,0,,,,,,,,,,,,,,,,,,,,,,,,,,,,,,,,,,,,
,,66dae86be0d77b33d6805623,66daf5bab92947885aefac0b,2024-09-06_14h30.40.497,mdp,2024.2.1,Win32,59.88023952,66d7945b1baad48e845df3ce,,,,,,,,,,,,,,,,,,,,,189.8807,189.8808,189.8819,191.0639,0,1,left,0.6581,,191.065,191.0659,,0,,191.0665,191.067,,0,,0,191.067,191.067,191.0675,192.5636,0,27,27,27,1,0.6,0.4,0.2,0.8,1,0,,,,,,,,,,,,,,,,,,,,,,,,,,,,,,,,,,,,
,,66dae86be0d77b33d6805623,66daf5bab92947885aefac0b,2024-09-06_14h30.40.497,mdp,2024.2.1,Win32,59.88023952,66d7945b1baad48e845df3ce,,,,,,,,,,,,,,,,,,,,,192.564,192.564,192.565,194.2304,0,0,left,1.1377,,194.2316,194.2322,,0,,194.2327,194.2332,,0,,1,194.2332,194.2332,194.2336,195.7303,0,28,28,28,1,0.6,0.4,0.2,0.8,1,0,,,,,,,,,,,,,,,,,,,,,,,,,,,,,,,,,,,,
,,66dae86be0d77b33d6805623,66daf5bab92947885aefac0b,2024-09-06_14h30.40.497,mdp,2024.2.1,Win32,59.88023952,66d7945b1baad48e845df3ce,,,,,,,,,,,,,,,,,,,,,195.7307,195.7307,195.7317,196.7137,0,0,left,0.4567,,196.7146,196.7153,,1,,196.7161,196.7166,,0,,1,196.7166,196.7166,196.7169,198.2135,0,29,29,29,1,0.6,0.4,0.2,0.8,1,0,,,,,,,,,,,,,,,,,,,,,,,,,,,,,,,,,,,,
,,66dae86be0d77b33d6805623,66daf5bab92947885aefac0b,2024-09-06_14h30.40.497,mdp,2024.2.1,Win32,59.88023952,66d7945b1baad48e845df3ce,,,,,,,,,,,,,,,,,,,,,198.214,198.214,198.215,199.1635,1,1,right,0.4172,,199.1644,199.1653,,1,,199.1658,199.1662,,1,,0,199.1662,199.1662,199.1665,200.6634,0,30,30,30,1,0.6,0.4,0.2,0.8,1,0,,,,,,,,,,,,,,,,,,,,,,,,,,,,,,,,,,,,
,,66dae86be0d77b33d6805623,66daf5bab92947885aefac0b,2024-09-06_14h30.40.497,mdp,2024.2.1,Win32,59.88023952,66d7945b1baad48e845df3ce,,,,,,,,,,,,,,,,,,,,,200.6638,200.6638,200.6648,201.9136,0,1,left,0.7233,,201.9144,201.915,,0,,201.9156,201.9163,,0,,0,201.9164,201.9164,201.9172,203.4134,0,31,31,31,1,0.6,0.4,0.2,0.8,1,0,,,,,,,,,,,,,,,,,,,,,,,,,,,,,,,,,,,,
,,66dae86be0d77b33d6805623,66daf5bab92947885aefac0b,2024-09-06_14h30.40.497,mdp,2024.2.1,Win32,59.88023952,66d7945b1baad48e845df3ce,,,,,,,,,,,,,,,,,,,,,203.4137,203.4137,203.4146,204.6801,1,0,right,0.7458,,204.6813,204.6819,,1,,204.6824,204.6829,,0,,1,204.6829,204.683,204.6835,206.18,0,32,32,32,1,0.4,0.6,0.6,0.4,1,0,,,,,,,,,,,,,,,,,,,,,,,,,,,,,,,,,,,,
,,66dae86be0d77b33d6805623,66daf5bab92947885aefac0b,2024-09-06_14h30.40.497,mdp,2024.2.1,Win32,59.88023952,66d7945b1baad48e845df3ce,,,,,,,,,,,,,,,,,,,,,206.1804,206.1804,206.1814,207.9634,1,1,right,1.2507,,207.9644,207.9651,,0,,207.9657,207.9661,,0,,0,207.9661,207.9661,207.9665,209.4633,0,33,33,33,1,0.4,0.6,0.6,0.4,1,0,,,,,,,,,,,,,,,,,,,,,,,,,,,,,,,,,,,,
,,66dae86be0d77b33d6805623,66daf5bab92947885aefac0b,2024-09-06_14h30.40.497,mdp,2024.2.1,Win32,59.88023952,66d7945b1baad48e845df3ce,,,,,,,,,,,,,,,,,,,,,209.4637,209.4637,209.4647,210.18,0,1,left,0.1879,,210.1812,210.1819,,1,,210.1824,210.1827,,1,,0,210.1827,210.1827,210.1831,211.6799,0,34,34,34,1,0.4,0.6,0.6,0.4,1,0,,,,,,,,,,,,,,,,,,,,,,,,,,,,,,,,,,,,
,,66dae86be0d77b33d6805623,66daf5bab92947885aefac0b,2024-09-06_14h30.40.497,mdp,2024.2.1,Win32,59.88023952,66d7945b1baad48e845df3ce,,,,,,,,,,,,,,,,,,,,,211.6803,211.6803,211.6814,212.2799,1,0,right,0.0747,,212.2813,212.282,,0,,212.2826,212.283,,0,,1,212.283,212.283,212.2834,213.7799,0,35,35,35,1,0.4,0.6,0.6,0.4,1,0,,,,,,,,,,,,,,,,,,,,,,,,,,,,,,,,,,,,
,,66dae86be0d77b33d6805623,66daf5bab92947885aefac0b,2024-09-06_14h30.40.497,mdp,2024.2.1,Win32,59.88023952,66d7945b1baad48e845df3ce,,,,,,,,,,,,,,,,,,,,,213.7803,213.7804,213.7814,214.5133,1,0,right,0.2008,,214.5144,214.515,,1,,214.5156,214.516,,1,,1,214.516,214.516,214.5163,216.013,0,36,36,36,1,0.4,0.6,0.6,0.4,1,0,,,,,,,,,,,,,,,,,,,,,,,,,,,,,,,,,,,,
,,66dae86be0d77b33d6805623,66daf5bab92947885aefac0b,2024-09-06_14h30.40.497,mdp,2024.2.1,Win32,59.88023952,66d7945b1baad48e845df3ce,,,,,,,,,,,,,,,,,,,,,216.0134,216.0134,216.0143,217.2298,1,1,right,0.6844,,217.2309,217.2317,,0,,217.2322,217.2327,,1,,0,217.2327,217.2327,217.2329,218.7298,0,37,37,37,1,0.4,0.6,0.6,0.4,1,0,,,,,,,,,,,,,,,,,,,,,,,,,,,,,,,,,,,,
,,66dae86be0d77b33d6805623,66daf5bab92947885aefac0b,2024-09-06_14h30.40.497,mdp,2024.2.1,Win32,59.88023952,66d7945b1baad48e845df3ce,,,,,,,,,,,,,,,,,,,,,218.7302,218.7302,218.7311,219.4463,0,1,left,0.1908,,219.4474,219.4481,,1,,219.4487,219.4491,,0,,0,219.4492,219.4492,219.4496,220.9462,0,38,38,38,1,0.4,0.6,0.6,0.4,1,0,,,,,,,,,,,,,,,,,,,,,,,,,,,,,,,,,,,,
,,66dae86be0d77b33d6805623,66daf5bab92947885aefac0b,2024-09-06_14h30.40.497,mdp,2024.2.1,Win32,59.88023952,66d7945b1baad48e845df3ce,,,,,,,,,,,,,,,,,,,,,220.9466,220.9466,220.9478,221.8964,0,1,left,0.4315,,221.8974,221.898,,0,,221.8989,221.8994,,0,,0,221.8995,221.8995,221.8998,223.3962,0,39,39,39,1,0.4,0.6,0.6,0.4,1,0,,,,,,,,,,,,,,,,,,,,,,,,,,,,,,,,,,,,
,,66dae86be0d77b33d6805623,66daf5bab92947885aefac0b,2024-09-06_14h30.40.497,mdp,2024.2.1,Win32,59.88023952,66d7945b1baad48e845df3ce,,,,,,,,,,,,,,,,,,,,,223.3967,223.3967,223.3984,224.063,0,0,left,0.1422,,224.0641,224.0649,,1,,224.0654,224.0657,,0,,1,224.0657,224.0657,224.0661,225.5629,0,40,40,40,1,0.4,0.6,0.6,0.4,1,0,,,,,,,,,,,,,,,,,,,,,,,,,,,,,,,,,,,,
,,66dae86be0d77b33d6805623,66daf5bab92947885aefac0b,2024-09-06_14h30.40.497,mdp,2024.2.1,Win32,59.88023952,66d7945b1baad48e845df3ce,,,,,,,,,,,,,,,,,,,,,225.5632,225.5632,225.5643,226.1296,0,1,left,0.039,,226.1308,226.1315,,1,,226.132,226.1324,,0,,0,226.1324,226.1324,226.1328,227.6295,0,41,41,41,1,0.4,0.6,0.6,0.4,1,0,,,,,,,,,,,,,,,,,,,,,,,,,,,,,,,,,,,,
,,66dae86be0d77b33d6805623,66daf5bab92947885aefac0b,2024-09-06_14h30.40.497,mdp,2024.2.1,Win32,59.88023952,66d7945b1baad48e845df3ce,,,,,,,,,,,,,,,,,,,,,227.6298,227.6298,227.6309,228.6463,1,0,right,0.4858,,228.6472,228.6479,,0,,228.6485,228.6489,,0,,1,228.649,228.649,228.6493,230.146,0,42,42,42,1,0.4,0.6,0.6,0.4,1,0,,,,,,,,,,,,,,,,,,,,,,,,,,,,,,,,,,,,
,,66dae86be0d77b33d6805623,66daf5bab92947885aefac0b,2024-09-06_14h30.40.497,mdp,2024.2.1,Win32,59.88023952,66d7945b1baad48e845df3ce,,,,,,,,,,,,,,,,,,,,,230.1464,230.1464,230.1475,230.863,0,1,left,0.1795,,230.864,230.8647,,0,,230.8652,230.8658,,0,,0,230.8658,230.8658,230.8662,232.3627,0,43,43,43,1,0.4,0.6,0.6,0.4,1,0,,,,,,,,,,,,,,,,,,,,,,,,,,,,,,,,,,,,
,,66dae86be0d77b33d6805623,66daf5bab92947885aefac0b,2024-09-06_14h30.40.497,mdp,2024.2.1,Win32,59.88023952,66d7945b1baad48e845df3ce,,,,,,,,,,,,,,,,,,,,,232.3631,232.3631,232.3641,233.4128,0,0,left,0.519,,233.4137,233.4145,,0,,233.415,233.4155,,1,,1,233.4156,233.4156,233.4159,234.9126,0,44,44,44,1,0.4,0.6,0.6,0.4,1,0,,,,,,,,,,,,,,,,,,,,,,,,,,,,,,,,,,,,
,,66dae86be0d77b33d6805623,66daf5bab92947885aefac0b,2024-09-06_14h30.40.497,mdp,2024.2.1,Win32,59.88023952,66d7945b1baad48e845df3ce,,,,,,,,,,,,,,,,,,,,,234.9129,234.9129,234.914,235.6961,1,1,right,0.2534,,235.6972,235.6979,,0,,235.6984,235.6988,,1,,0,235.6988,235.6988,235.6991,237.1959,0,45,45,45,1,0.4,0.6,0.6,0.4,1,0,,,,,,,,,,,,,,,,,,,,,,,,,,,,,,,,,,,,
,,66dae86be0d77b33d6805623,66daf5bab92947885aefac0b,2024-09-06_14h30.40.497,mdp,2024.2.1,Win32,59.88023952,66d7945b1baad48e845df3ce,,,,,,,,,,,,,,,,,,,,,237.1963,237.1963,237.1973,237.9127,0,1,left,0.1844,,237.914,237.9145,,1,,237.9151,237.9155,,0,,0,237.9155,237.9155,237.9159,239.4126,0,46,46,46,1,0.4,0.6,0.6,0.4,1,0,,,,,,,,,,,,,,,,,,,,,,,,,,,,,,,,,,,,
,,66dae86be0d77b33d6805623,66daf5bab92947885aefac0b,2024-09-06_14h30.40.497,mdp,2024.2.1,Win32,59.88023952,66d7945b1baad48e845df3ce,,,,,,,,,,,,,,,,,,,,,239.4128,239.4128,239.4138,240.1292,1,0,right,0.1836,,240.1303,240.1311,,0,,240.1316,240.132,,1,,1,240.1321,240.1321,240.1324,241.6291,0,47,47,47,1,0.4,0.6,0.6,0.4,1,0,,,,,,,,,,,,,,,,,,,,,,,,,,,,,,,,,,,,
,,66dae86be0d77b33d6805623,66daf5bab92947885aefac0b,2024-09-06_14h30.40.497,mdp,2024.2.1,Win32,59.88023952,66d7945b1baad48e845df3ce,,,,,,,,,,,,,,,,,,,,,241.6294,241.6294,241.6303,242.4124,1,1,right,0.2583,,242.4135,242.4142,,0,,242.4148,242.4153,,1,,0,242.4153,242.4153,242.4157,243.9125,0,48,48,48,1,0.4,0.6,0.6,0.4,1,0,,,,,,,,,,,,,,,,,,,,,,,,,,,,,,,,,,,,
,,66dae86be0d77b33d6805623,66daf5bab92947885aefac0b,2024-09-06_14h30.40.497,mdp,2024.2.1,Win32,59.88023952,66d7945b1baad48e845df3ce,,,,,,,,,,,,,,,,,,,,,243.9127,243.9127,243.9136,244.8292,0,1,left,0.3944,,244.8303,244.8308,,0,,244.8315,244.8318,,1,,0,244.8318,244.8319,244.8322,246.3292,0,49,49,49,1,0.4,0.6,0.6,0.4,1,0,,,,,,,,,,,,,,,,,,,,,,,,,,,,,,,,,,,,
,,66dae86be0d77b33d6805623,66daf5bab92947885aefac0b,2024-09-06_14h30.40.497,mdp,2024.2.1,Win32,59.88023952,66d7945b1baad48e845df3ce,,,,,,,,,,,,,,,,,,,,,,,,,,,,,,,,,,,,,,,,,,,,,,,,,,,,,,,,246.3299,304.8454,0,0,0,2,1,imgs/goat.png,imgs/kangaroo.png,imgs/rabbit.png,imgs/lion.png,imgs/horse.png,,,,,,,,,,,,,,,,,,,,,,,,
,,66dae86be0d77b33d6805623,66daf5bab92947885aefac0b,2024-09-06_14h30.40.497,mdp,2024.2.1,Win32,59.88023952,66d7945b1baad48e845df3ce,,,,,,,,,,,,,,2,seqs/st2seq28.csv,304.8562,305.7778,space,0.4009,,305.7819,305.7819,305.7834,307.3111,0,0,left,1.0062,,307.3123,308.8777,1,1,right,308.879,308.8798,,1,,0,308.8798,308.8798,308.8803,310.3776,0,0,0,0,1,0.8,0.2,0.4,0.6,,,,,,,,,,,,,,,1.0381,,0.4,0.6,0.4,0.6,0.4,0.6,0.8,0.2,1,0,,,,,,,,,,,,
,,66dae86be0d77b33d6805623,66daf5bab92947885aefac0b,2024-09-06_14h30.40.497,mdp,2024.2.1,Win32,59.88023952,66d7945b1baad48e845df3ce,,,,,,,,,,,,,,,,,,,,,310.3781,310.3781,310.3792,311.5777,0,0,left,0.688,,311.5788,312.5778,0,1,left,312.5788,312.5796,,0,,0,312.5796,312.5796,312.5802,314.0774,0,1,1,1,1,0.8,0.2,0.4,0.6,,,,,,,,,,,,,,,0.4718,,0.4,0.6,0.4,0.6,0.4,0.6,0.8,0.2,1,0,,,,,,,,,,,,
,,66dae86be0d77b33d6805623,66daf5bab92947885aefac0b,2024-09-06_14h30.40.497,mdp,2024.2.1,Win32,59.88023952,66d7945b1baad48e845df3ce,,,,,,,,,,,,,,,,,,,,,314.0778,314.0778,314.0788,315.3777,1,1,right,0.7754,,315.3787,317.0943,0,0,left,317.0954,317.0961,,1,,1,317.0961,317.0961,317.0966,318.5941,0,2,2,2,1,0.8,0.2,0.4,0.6,,,,,,,,,,,,,,,1.1844,,0.4,0.6,0.4,0.6,0.4,0.6,0.8,0.2,1,0,,,,,,,,,,,,
,,66dae86be0d77b33d6805623,66daf5bab92947885aefac0b,2024-09-06_14h30.40.497,mdp,2024.2.1,Win32,59.88023952,66d7945b1baad48e845df3ce,,,,,,,,,,,,,,,,,,,,,318.5945,318.5945,318.5957,320.0275,1,1,right,0.9009,,320.0284,321.5276,0,0,left,321.5286,321.5293,,0,,1,321.5294,321.5294,321.5299,323.0273,0,3,3,3,1,0.8,0.2,0.4,0.6,,,,,,,,,,,,,,,0.9731,,0.4,0.6,0.4,0.6,0.4,0.6,0.8,0.2,1,0,,,,,,,,,,,,
,,66dae86be0d77b33d6805623,66daf5bab92947885aefac0b,2024-09-06_14h30.40.497,mdp,2024.2.1,Win32,59.88023952,66d7945b1baad48e845df3ce,,,,,,,,,,,,,,,,,,,,,323.0276,323.0276,323.0284,324.4108,1,1,right,0.8473,,324.412,325.9774,0,1,left,325.9783,325.9788,,1,,0,325.9788,325.9788,325.9794,327.4771,0,4,4,4,1,0.8,0.2,0.4,0.6,,,,,,,,,,,,,,,1.0409,,0.6,0.4,0.6,0.4,0.4,0.6,0.8,0.2,1,0,,,,,,,,,,,,
,,66dae86be0d77b33d6805623,66daf5bab92947885aefac0b,2024-09-06_14h30.40.497,mdp,2024.2.1,Win32,59.88023952,66d7945b1baad48e845df3ce,,,,,,,,,,,,,,,,,,,,,327.4775,327.4775,327.4785,328.794,1,0,right,0.7908,,328.7951,331.2606,1,0,right,331.2716,331.2723,,0,,1,331.2723,331.2723,331.2729,332.7603,0,5,5,5,1,0.8,0.2,0.4,0.6,,,,,,,,,,,,,,,1.9363,,0.6,0.4,0.6,0.4,0.4,0.6,0.8,0.2,1,0,,,,,,,,,,,,
,,66dae86be0d77b33d6805623,66daf5bab92947885aefac0b,2024-09-06_14h30.40.497,mdp,2024.2.1,Win32,59.88023952,66d7945b1baad48e845df3ce,,,,,,,,,,,,,,,,,,,,,332.7609,332.7609,332.7619,334.1605,1,1,right,0.8681,,334.1616,336.2103,0,0,left,336.2119,336.2126,,1,,1,336.2127,336.2127,336.2133,337.7103,0,6,6,6,1,0.8,0.2,0.4,0.6,,,,,,,,,,,,,,,1.523,,0.6,0.4,0.6,0.4,0.4,0.6,0.8,0.2,1,0,,,,,,,,,,,,
,,66dae86be0d77b33d6805623,66daf5bab92947885aefac0b,2024-09-06_14h30.40.497,mdp,2024.2.1,Win32,59.88023952,66d7945b1baad48e845df3ce,,,,,,,,,,,,,,,,,,,,,337.7109,337.7109,337.7121,338.8103,1,0,right,0.5705,,338.8118,340.1604,1,0,right,340.1616,340.1623,,1,,1,340.1623,340.1623,340.1629,341.6603,0,7,7,7,1,0.8,0.2,0.4,0.6,,,,,,,,,,,,,,,0.8211,,0.6,0.4,0.6,0.4,0.4,0.6,0.8,0.2,1,0,,,,,,,,,,,,
,,66dae86be0d77b33d6805623,66daf5bab92947885aefac0b,2024-09-06_14h30.40.497,mdp,2024.2.1,Win32,59.88023952,66d7945b1baad48e845df3ce,,,,,,,,,,,,,,,,,,,,,341.6608,341.6608,341.6619,342.7436,1,1,right,0.5581,,342.7447,344.0935,0,1,left,344.0946,344.0952,,1,,0,344.0953,344.0953,344.0959,345.5935,0,8,8,8,1,0.8,0.2,0.4,0.6,,,,,,,,,,,,,,,0.8144,,0.6,0.4,0.6,0.4,0.4,0.6,0.8,0.2,1,0,,,,,,,,,,,,
,,66dae86be0d77b33d6805623,66daf5bab92947885aefac0b,2024-09-06_14h30.40.497,mdp,2024.2.1,Win32,59.88023952,66d7945b1baad48e845df3ce,,,,,,,,,,,,,,,,,,,,,345.594,345.594,345.595,346.9936,1,0,right,0.8695,,346.9945,349.2269,1,0,right,349.2279,349.2286,,1,,1,349.2286,349.2286,349.2293,350.7266,0,9,9,9,1,0.8,0.2,0.4,0.6,,,,,,,,,,,,,,,1.6922,,0.6,0.4,0.6,0.4,0.4,0.6,0.8,0.2,1,0,,,,,,,,,,,,
,,66dae86be0d77b33d6805623,66daf5bab92947885aefac0b,2024-09-06_14h30.40.497,mdp,2024.2.1,Win32,59.88023952,66d7945b1baad48e845df3ce,,,,,,,,,,,,,,,,,,,,,350.727,350.727,350.7279,351.8434,1,1,right,0.587,,351.8444,353.8939,1,0,right,353.8948,353.8954,,0,,1,353.8955,353.8955,353.8959,355.3931,0,10,10,10,1,0.8,0.2,0.4,0.6,,,,,,,,,,,,,,,1.5253,,0.6,0.4,0.6,0.4,0.4,0.6,0.8,0.2,1,0,,,,,,,,,,,,
,,66dae86be0d77b33d6805623,66daf5bab92947885aefac0b,2024-09-06_14h30.40.497,mdp,2024.2.1,Win32,59.88023952,66d7945b1baad48e845df3ce,,,,,,,,,,,,,,,,,,,,,355.3935,355.3935,355.3947,356.4098,1,1,right,0.4863,,356.4107,357.6101,0,1,left,357.6112,357.612,,1,,0,357.612,357.612,357.6126,359.1098,0,11,11,11,1,0.8,0.2,0.4,0.6,,,,,,,,,,,,,,,0.6796,,0.6,0.4,0.6,0.4,0.4,0.6,0.8,0.2,1,0,,,,,,,,,,,,
,,66dae86be0d77b33d6805623,66daf5bab92947885aefac0b,2024-09-06_14h30.40.497,mdp,2024.2.1,Win32,59.88023952,66d7945b1baad48e845df3ce,,,,,,,,,,,,,,,,,,,,,359.1103,359.1103,359.1114,359.9933,1,1,right,0.354,,359.9942,363.4933,1,0,right,363.5032,363.5039,,0,,1,363.504,363.504,363.5045,364.9931,0,12,12,12,1,0.8,0.2,0.4,0.6,,,,,,,,,,,,,,,2.9677,,0.6,0.4,0.6,0.4,0.4,0.6,0.8,0.2,1,0,,,,,,,,,,,,
,,66dae86be0d77b33d6805623,66daf5bab92947885aefac0b,2024-09-06_14h30.40.497,mdp,2024.2.1,Win32,59.88023952,66d7945b1baad48e845df3ce,,,,,,,,,,,,,,,,,,,,,364.9935,364.9935,364.9942,365.9431,1,1,right,0.4261,,365.9441,367.0931,1,0,right,367.0943,367.0949,,0,,1,367.0949,367.0949,367.0954,368.593,0,13,13,13,1,0.8,0.2,0.4,0.6,,,,,,,,,,,,,,,0.6221,,0.6,0.4,0.6,0.4,0.8,0.2,0.6,0.4,1,0,,,,,,,,,,,,
,,66dae86be0d77b33d6805623,66daf5bab92947885aefac0b,2024-09-06_14h30.40.497,mdp,2024.2.1,Win32,59.88023952,66d7945b1baad48e845df3ce,,,,,,,,,,,,,,,,,,,,,368.5934,368.5934,368.5943,369.5431,1,1,right,0.4205,,369.5441,370.6764,1,1,right,370.6775,370.6784,,1,,0,370.6784,370.6784,370.679,372.1762,0,14,14,14,1,0.8,0.2,0.4,0.6,,,,,,,,,,,,,,,0.6039,,0.6,0.4,0.6,0.4,0.8,0.2,0.6,0.4,1,0,,,,,,,,,,,,
,,66dae86be0d77b33d6805623,66daf5bab92947885aefac0b,2024-09-06_14h30.40.497,mdp,2024.2.1,Win32,59.88023952,66d7945b1baad48e845df3ce,,,,,,,,,,,,,,,,,,,,,372.1765,372.1765,372.1772,373.3929,1,1,right,0.6944,,373.394,374.5429,0,0,left,374.544,374.5447,,0,,1,374.5447,374.5447,374.5452,376.0428,0,15,15,15,1,0.2,0.8,0.2,0.8,,,,,,,,,,,,,,,0.6258,,0.6,0.4,0.6,0.4,0.8,0.2,0.6,0.4,1,0,,,,,,,,,,,,
,,66dae86be0d77b33d6805623,66daf5bab92947885aefac0b,2024-09-06_14h30.40.497,mdp,2024.2.1,Win32,59.88023952,66d7945b1baad48e845df3ce,,,,,,,,,,,,,,,,,,,,,376.0432,376.0432,376.0441,377.0597,1,1,right,0.4876,,377.0606,378.0595,0,1,left,378.0608,378.0616,,0,,0,378.0618,378.0618,378.0623,379.5593,0,16,16,16,1,0.2,0.8,0.2,0.8,,,,,,,,,,,,,,,0.4723,,0.6,0.4,0.6,0.4,0.8,0.2,0.6,0.4,1,0,,,,,,,,,,,,
,,66dae86be0d77b33d6805623,66daf5bab92947885aefac0b,2024-09-06_14h30.40.497,mdp,2024.2.1,Win32,59.88023952,66d7945b1baad48e845df3ce,,,,,,,,,,,,,,,,,,,,,379.5598,379.5598,379.5608,380.4594,1,1,right,0.3784,,380.4603,381.6928,1,0,right,381.6938,381.6944,,0,,1,381.6944,381.6944,381.6949,383.1927,0,17,17,17,1,0.2,0.8,0.2,0.8,,,,,,,,,,,,,,,0.7082,,0.6,0.4,0.6,0.4,0.8,0.2,0.6,0.4,1,0,,,,,,,,,,,,
,,66dae86be0d77b33d6805623,66daf5bab92947885aefac0b,2024-09-06_14h30.40.497,mdp,2024.2.1,Win32,59.88023952,66d7945b1baad48e845df3ce,,,,,,,,,,,,,,,,,,,,,383.1931,383.1932,383.1941,384.176,1,1,right,0.4512,,384.1772,386.8761,1,1,right,386.8773,386.8778,,0,,0,386.8779,386.8779,386.8784,388.3759,0,18,18,18,1,0.2,0.8,0.2,0.8,,,,,,,,,,,,,,,2.176,,0.6,0.4,0.6,0.4,0.8,0.2,0.6,0.4,1,0,,,,,,,,,,,,
,,66dae86be0d77b33d6805623,66daf5bab92947885aefac0b,2024-09-06_14h30.40.497,mdp,2024.2.1,Win32,59.88023952,66d7945b1baad48e845df3ce,,,,,,,,,,,,,,,,,,,,,388.3762,388.3762,388.3771,389.3926,1,1,right,0.4909,,389.3936,392.0758,1,0,right,392.0769,392.0776,,0,,1,392.0777,392.0777,392.0782,393.5759,0,19,19,19,1,0.4,0.6,0.4,0.6,,,,,,,,,,,,,,,2.1594,,0.6,0.4,0.6,0.4,0.8,0.2,0.6,0.4,1,0,,,,,,,,,,,,
,,66dae86be0d77b33d6805623,66daf5bab92947885aefac0b,2024-09-06_14h30.40.497,mdp,2024.2.1,Win32,59.88023952,66d7945b1baad48e845df3ce,,,,,,,,,,,,,,,,,,,,,393.5763,393.5763,393.5774,394.5259,1,1,right,0.4294,,394.5269,395.7258,0,0,left,395.7269,395.7275,,0,,1,395.7275,395.7275,395.7281,397.2256,0,20,20,20,1,0.4,0.6,0.4,0.6,,,,,,,,,,,,,,,0.6636,,0.6,0.4,0.6,0.4,0.8,0.2,0.6,0.4,1,0,,,,,,,,,,,,
,,66dae86be0d77b33d6805623,66daf5bab92947885aefac0b,2024-09-06_14h30.40.497,mdp,2024.2.1,Win32,59.88023952,66d7945b1baad48e845df3ce,,,,,,,,,,,,,,,,,,,,,397.226,397.226,397.2269,398.2091,1,1,right,0.454,,398.21,400.559,0,0,left,400.5599,400.5607,,0,,1,400.5607,400.5607,400.5613,402.0589,0,21,21,21,1,0.4,0.6,0.4,0.6,,,,,,,,,,,,,,,1.8161,,0.6,0.4,0.6,0.4,0.8,0.2,0.6,0.4,1,0,,,,,,,,,,,,
,,66dae86be0d77b33d6805623,66daf5bab92947885aefac0b,2024-09-06_14h30.40.497,mdp,2024.2.1,Win32,59.88023952,66d7945b1baad48e845df3ce,,,,,,,,,,,,,,,,,,,,,402.0593,402.0593,402.0602,403.0257,1,1,right,0.4296,,403.0267,404.7923,1,1,right,404.7932,404.794,,1,,0,404.794,404.794,404.7945,406.2921,0,22,22,22,1,0.4,0.6,0.4,0.6,,,,,,,,,,,,,,,1.2373,,0.6,0.4,0.6,0.4,0.8,0.2,0.6,0.4,1,0,,,,,,,,,,,,
,,66dae86be0d77b33d6805623,66daf5bab92947885aefac0b,2024-09-06_14h30.40.497,mdp,2024.2.1,Win32,59.88023952,66d7945b1baad48e845df3ce,,,,,,,,,,,,,,,,,,,,,406.2924,406.2924,406.2934,407.6421,1,0,right,0.8192,,407.6433,409.6923,1,1,right,409.6933,409.6939,,0,,0,409.6939,409.6939,409.6946,411.192,0,23,23,23,1,0.4,0.6,0.4,0.6,,,,,,,,,,,,,,,1.5112,,0.6,0.4,0.6,0.4,0.8,0.2,0.6,0.4,1,0,,,,,,,,,,,,
,,66dae86be0d77b33d6805623,66daf5bab92947885aefac0b,2024-09-06_14h30.40.497,mdp,2024.2.1,Win32,59.88023952,66d7945b1baad48e845df3ce,,,,,,,,,,,,,,,,,,,,,411.1924,411.1924,411.1932,412.159,1,0,right,0.4394,,412.16,413.1589,0,0,left,413.1601,413.1609,,1,,1,413.1609,413.1609,413.1614,414.6602,0,24,24,24,1,0.4,0.6,0.4,0.6,,,,,,,,,,,,,,,0.4672,,0.6,0.4,0.6,0.4,0.8,0.2,0.6,0.4,1,0,,,,,,,,,,,,
,,66dae86be0d77b33d6805623,66daf5bab92947885aefac0b,2024-09-06_14h30.40.497,mdp,2024.2.1,Win32,59.88023952,66d7945b1baad48e845df3ce,,,,,,,,,,,,,,,,,,,,,414.6606,414.6607,414.6616,415.7253,1,0,right,0.5313,,415.7264,417.442,0,1,left,417.4429,417.4436,,0,,0,417.4436,417.4436,417.4441,418.9417,0,25,25,25,1,0.4,0.6,0.4,0.6,,,,,,,,,,,,,,,1.1896,,0.6,0.4,0.6,0.4,0.8,0.2,0.6,0.4,1,0,,,,,,,,,,,,
,,66dae86be0d77b33d6805623,66daf5bab92947885aefac0b,2024-09-06_14h30.40.497,mdp,2024.2.1,Win32,59.88023952,66d7945b1baad48e845df3ce,,,,,,,,,,,,,,,,,,,,,418.9421,418.9421,418.9431,419.8419,1,0,right,0.3744,,419.843,420.8587,1,1,right,420.8599,420.8605,,1,,0,420.8605,420.8606,420.8612,422.3585,0,26,26,26,1,0.4,0.6,0.4,0.6,,,,,,,,,,,,,,,0.484,,0.4,0.6,0.2,0.8,0.8,0.2,0.6,0.4,1,0,,,,,,,,,,,,
,,66dae86be0d77b33d6805623,66daf5bab92947885aefac0b,2024-09-06_14h30.40.497,mdp,2024.2.1,Win32,59.88023952,66d7945b1baad48e845df3ce,,,,,,,,,,,,,,,,,,,,,422.359,422.359,422.36,423.5085,1,0,right,0.6224,,423.5093,426.0918,0,1,left,426.0929,426.0934,,1,,0,426.0935,426.0935,426.0941,427.5915,0,27,27,27,1,0.4,0.6,0.4,0.6,,,,,,,,,,,,,,,2.0472,,0.4,0.6,0.2,0.8,0.8,0.2,0.6,0.4,1,0,,,,,,,,,,,,
,,66dae86be0d77b33d6805623,66daf5bab92947885aefac0b,2024-09-06_14h30.40.497,mdp,2024.2.1,Win32,59.88023952,66d7945b1baad48e845df3ce,,,,,,,,,,,,,,,,,,,,,427.5921,427.5921,427.5931,428.5083,1,0,right,0.3845,,428.5095,430.5751,1,1,right,430.5764,430.577,,1,,0,430.577,430.577,430.5777,432.0749,0,28,28,28,1,0.4,0.6,0.4,0.6,,,,,,,,,,,,,,,1.5546,,0.4,0.6,0.2,0.8,0.8,0.2,0.6,0.4,1,0,,,,,,,,,,,,
,,66dae86be0d77b33d6805623,66daf5bab92947885aefac0b,2024-09-06_14h30.40.497,mdp,2024.2.1,Win32,59.88023952,66d7945b1baad48e845df3ce,,,,,,,,,,,,,,,,,,,,,432.0753,432.0754,432.0763,433.1249,1,1,right,0.5165,,433.126,434.6082,0,0,left,434.6093,434.6099,,0,,1,434.61,434.61,434.6107,436.108,0,29,29,29,1,0.4,0.6,0.4,0.6,,,,,,,,,,,,,,,0.9509,,0.4,0.6,0.2,0.8,0.8,0.2,0.6,0.4,1,0,,,,,,,,,,,,
,,66dae86be0d77b33d6805623,66daf5bab92947885aefac0b,2024-09-06_14h30.40.497,mdp,2024.2.1,Win32,59.88023952,66d7945b1baad48e845df3ce,,,,,,,,,,,,,,,,,,,,,436.1083,436.1084,436.1093,436.9917,1,0,right,0.3455,,436.9928,438.3749,1,1,right,438.376,438.3765,,0,,0,438.3766,438.3766,438.3772,439.8746,0,30,30,30,1,0.4,0.6,0.4,0.6,,,,,,,,,,,,,,,0.8534,,0.4,0.6,0.2,0.8,0.8,0.2,0.6,0.4,1,0,,,,,,,,,,,,
,,66dae86be0d77b33d6805623,66daf5bab92947885aefac0b,2024-09-06_14h30.40.497,mdp,2024.2.1,Win32,59.88023952,66d7945b1baad48e845df3ce,,,,,,,,,,,,,,,,,,,,,439.875,439.875,439.8759,440.9249,1,0,right,0.5264,,440.9258,442.3747,0,1,left,442.3756,442.3762,,0,,0,442.3763,442.3763,442.3769,443.8744,0,31,31,31,1,0.4,0.6,0.4,0.6,,,,,,,,,,,,,,,0.9274,,0.4,0.6,0.2,0.8,0.8,0.2,0.6,0.4,1,0,,,,,,,,,,,,
,,66dae86be0d77b33d6805623,66daf5bab92947885aefac0b,2024-09-06_14h30.40.497,mdp,2024.2.1,Win32,59.88023952,66d7945b1baad48e845df3ce,,,,,,,,,,,,,,,,,,,,,443.8748,443.8748,443.8759,444.7914,1,1,right,0.3842,,444.7926,446.3247,0,0,left,446.3257,446.3264,,0,,1,446.3265,446.3265,446.3272,447.8245,0,32,32,32,1,0.4,0.6,0.4,0.6,,,,,,,,,,,,,,,1.0061,,0.4,0.6,0.2,0.8,0.8,0.2,0.6,0.4,1,0,,,,,,,,,,,,
,,66dae86be0d77b33d6805623,66daf5bab92947885aefac0b,2024-09-06_14h30.40.497,mdp,2024.2.1,Win32,59.88023952,66d7945b1baad48e845df3ce,,,,,,,,,,,,,,,,,,,,,447.8249,447.8249,447.8258,448.708,1,1,right,0.3552,,448.709,450.3578,0,0,left,450.359,450.3597,,0,,1,450.3598,450.3598,450.3605,451.8578,0,33,33,33,1,0.6,0.4,0.2,0.8,,,,,,,,,,,,,,,1.1179,,0.4,0.6,0.2,0.8,0.8,0.2,0.6,0.4,1,0,,,,,,,,,,,,
,,66dae86be0d77b33d6805623,66daf5bab92947885aefac0b,2024-09-06_14h30.40.497,mdp,2024.2.1,Win32,59.88023952,66d7945b1baad48e845df3ce,,,,,,,,,,,,,,,,,,,,,451.8582,451.8582,451.8593,452.658,1,1,right,0.2675,,452.6589,453.9745,0,0,left,453.9756,453.9761,,0,,1,453.9762,453.9762,453.9768,455.4743,0,34,34,34,1,0.6,0.4,0.2,0.8,,,,,,,,,,,,,,,0.7898,,0.4,0.6,0.2,0.8,0.8,0.2,0.6,0.4,1,0,,,,,,,,,,,,
,,66dae86be0d77b33d6805623,66daf5bab92947885aefac0b,2024-09-06_14h30.40.497,mdp,2024.2.1,Win32,59.88023952,66d7945b1baad48e845df3ce,,,,,,,,,,,,,,,,,,,,,455.4747,455.4747,455.4757,456.3577,1,1,right,0.3545,,456.3589,457.4744,1,1,right,457.4762,457.4768,,0,,0,457.4768,457.4768,457.4773,458.9744,0,35,35,35,1,0.6,0.4,0.2,0.8,,,,,,,,,,,,,,,0.5897,,0.4,0.6,0.2,0.8,0.8,0.2,0.6,0.4,1,0,,,,,,,,,,,,
,,66dae86be0d77b33d6805623,66daf5bab92947885aefac0b,2024-09-06_14h30.40.497,mdp,2024.2.1,Win32,59.88023952,66d7945b1baad48e845df3ce,,,,,,,,,,,,,,,,,,,,,458.9748,458.9748,458.9756,459.9576,1,1,right,0.4607,,459.9585,461.5745,0,0,left,461.5757,461.5763,,0,,1,461.5763,461.5764,461.5769,463.0741,0,36,36,36,1,0.6,0.4,0.2,0.8,,,,,,,,,,,,,,,1.086,,0.4,0.6,0.2,0.8,0.8,0.2,0.6,0.4,1,0,,,,,,,,,,,,
,,66dae86be0d77b33d6805623,66daf5bab92947885aefac0b,2024-09-06_14h30.40.497,mdp,2024.2.1,Win32,59.88023952,66d7945b1baad48e845df3ce,,,,,,,,,,,,,,,,,,,,,463.0744,463.0744,463.0755,464.2242,1,0,right,0.6241,,464.2252,465.6909,1,1,right,465.6919,465.693,,1,,0,465.693,465.693,465.6936,467.1908,0,37,37,37,1,0.6,0.4,0.2,0.8,,,,,,,,,,,,,,,0.9276,,0.4,0.6,0.2,0.8,0.8,0.2,0.6,0.4,1,0,,,,,,,,,,,,
,,66dae86be0d77b33d6805623,66daf5bab92947885aefac0b,2024-09-06_14h30.40.497,mdp,2024.2.1,Win32,59.88023952,66d7945b1baad48e845df3ce,,,,,,,,,,,,,,,,,,,,,467.1911,467.1912,467.1922,468.441,1,1,right,0.7269,,468.442,469.5741,0,0,left,469.575,469.5757,,1,,1,469.5757,469.5757,469.5763,471.0739,0,38,38,38,1,0.6,0.4,0.2,0.8,,,,,,,,,,,,,,,0.6004,,0.4,0.6,0.2,0.8,0.8,0.2,0.6,0.4,1,0,,,,,,,,,,,,
,,66dae86be0d77b33d6805623,66daf5bab92947885aefac0b,2024-09-06_14h30.40.497,mdp,2024.2.1,Win32,59.88023952,66d7945b1baad48e845df3ce,,,,,,,,,,,,,,,,,,,,,471.0744,471.0744,471.0753,472.174,1,1,right,0.5631,,472.1751,473.2406,0,0,left,473.2419,473.2427,,0,,1,473.2427,473.2427,473.2432,474.7405,0,39,39,39,1,0.6,0.4,0.2,0.8,,,,,,,,,,,,,,,0.5369,,0.6,0.4,0.6,0.4,0.8,0.2,0.6,0.4,1,0,,,,,,,,,,,,
,,66dae86be0d77b33d6805623,66daf5bab92947885aefac0b,2024-09-06_14h30.40.497,mdp,2024.2.1,Win32,59.88023952,66d7945b1baad48e845df3ce,,,,,,,,,,,,,,,,,,,,,474.7409,474.7409,474.742,475.6407,1,0,right,0.3803,,475.6418,476.9072,1,0,right,476.9082,476.9088,,1,,1,476.9088,476.9088,476.9095,478.407,0,40,40,40,1,0.2,0.8,0.8,0.2,,,,,,,,,,,,,,,0.7349,,0.6,0.4,0.6,0.4,0.8,0.2,0.6,0.4,1,0,,,,,,,,,,,,
,,66dae86be0d77b33d6805623,66daf5bab92947885aefac0b,2024-09-06_14h30.40.497,mdp,2024.2.1,Win32,59.88023952,66d7945b1baad48e845df3ce,,,,,,,,,,,,,,,,,,,,,478.4075,478.4075,478.4084,479.2739,1,0,right,0.3407,,479.2749,480.4072,1,1,right,480.4082,480.4087,,0,,0,480.4088,480.4088,480.4093,481.907,0,41,41,41,1,0.2,0.8,0.8,0.2,,,,,,,,,,,,,,,0.6086,,0.6,0.4,0.6,0.4,0.8,0.2,0.6,0.4,1,0,,,,,,,,,,,,
,,66dae86be0d77b33d6805623,66daf5bab92947885aefac0b,2024-09-06_14h30.40.497,mdp,2024.2.1,Win32,59.88023952,66d7945b1baad48e845df3ce,,,,,,,,,,,,,,,,,,,,,481.9073,481.9074,481.9084,482.8238,1,0,right,0.3814,,482.8249,483.9071,0,0,left,483.9083,483.9089,,0,,1,483.9089,483.9089,483.9094,485.407,0,42,42,42,1,0.2,0.8,0.8,0.2,,,,,,,,,,,,,,,0.5518,,0.6,0.4,0.6,0.4,0.8,0.2,0.6,0.4,1,0,,,,,,,,,,,,
,,66dae86be0d77b33d6805623,66daf5bab92947885aefac0b,2024-09-06_14h30.40.497,mdp,2024.2.1,Win32,59.88023952,66d7945b1baad48e845df3ce,,,,,,,,,,,,,,,,,,,,,485.4074,485.4074,485.4086,486.3906,1,0,right,0.4454,,486.3917,487.2403,0,0,left,487.2411,487.242,,0,,1,487.242,487.242,487.2425,488.7402,0,43,43,43,1,0.2,0.8,0.8,0.2,,,,,,,,,,,,,,,0.3167,,0.6,0.4,0.6,0.4,0.8,0.2,0.6,0.4,1,0,,,,,,,,,,,,
,,66dae86be0d77b33d6805623,66daf5bab92947885aefac0b,2024-09-06_14h30.40.497,mdp,2024.2.1,Win32,59.88023952,66d7945b1baad48e845df3ce,,,,,,,,,,,,,,,,,,,,,488.7406,488.7406,488.7416,489.8403,0,1,left,0.5698,,489.8416,491.4737,0,0,left,491.4747,491.4753,,1,,1,491.4754,491.4754,491.4759,492.9734,0,44,44,44,1,0.2,0.8,0.8,0.2,,,,,,,,,,,,,,,1.0991,,0.6,0.4,0.6,0.4,0.8,0.2,0.6,0.4,1,0,,,,,,,,,,,,
,,66dae86be0d77b33d6805623,66daf5bab92947885aefac0b,2024-09-06_14h30.40.497,mdp,2024.2.1,Win32,59.88023952,66d7945b1baad48e845df3ce,,,,,,,,,,,,,,,,,,,,,492.9737,492.9737,492.9746,493.8569,0,1,left,0.3536,,493.8578,494.6068,1,1,right,494.6078,494.6084,,0,,0,494.6084,494.6084,494.6089,496.1068,0,45,45,45,1,0.2,0.8,0.8,0.2,,,,,,,,,,,,,,,0.221,,0.6,0.4,0.6,0.4,0.8,0.2,0.6,0.4,1,0,,,,,,,,,,,,
,,66dae86be0d77b33d6805623,66daf5bab92947885aefac0b,2024-09-06_14h30.40.497,mdp,2024.2.1,Win32,59.88023952,66d7945b1baad48e845df3ce,,,,,,,,,,,,,,,,,,,,,496.1071,496.1071,496.1081,496.9402,1,1,right,0.2956,,496.9414,497.7236,0,0,left,497.7246,497.7252,,0,,1,497.7252,497.7252,497.7257,499.2235,0,46,46,46,1,0.2,0.8,0.8,0.2,,,,,,,,,,,,,,,0.2565,,0.6,0.4,0.6,0.4,0.8,0.2,0.6,0.4,1,0,,,,,,,,,,,,
,,66dae86be0d77b33d6805623,66daf5bab92947885aefac0b,2024-09-06_14h30.40.497,mdp,2024.2.1,Win32,59.88023952,66d7945b1baad48e845df3ce,,,,,,,,,,,,,,,,,,,,,499.2239,499.2239,499.2248,500.0236,1,1,right,0.2773,,500.0246,500.99,0,0,left,500.9911,500.9923,,1,,1,500.9923,500.9923,500.9929,502.4899,0,47,47,47,1,0.6,0.4,0.4,0.6,,,,,,,,,,,,,,,0.44,,0.6,0.4,0.6,0.4,0.8,0.2,0.6,0.4,1,0,,,,,,,,,,,,
,,66dae86be0d77b33d6805623,66daf5bab92947885aefac0b,2024-09-06_14h30.40.497,mdp,2024.2.1,Win32,59.88023952,66d7945b1baad48e845df3ce,,,,,,,,,,,,,,,,,,,,,502.4902,502.4902,502.4914,503.3399,1,0,right,0.3205,,503.341,504.14,0,1,left,504.141,504.1418,,0,,0,504.1418,504.1418,504.1424,505.6398,0,48,48,48,1,0.6,0.4,0.4,0.6,,,,,,,,,,,,,,,0.2623,,0.6,0.4,0.6,0.4,0.8,0.2,0.6,0.4,1,0,,,,,,,,,,,,
,,66dae86be0d77b33d6805623,66daf5bab92947885aefac0b,2024-09-06_14h30.40.497,mdp,2024.2.1,Win32,59.88023952,66d7945b1baad48e845df3ce,,,,,,,,,,,,,,,,,,,,,505.6402,505.6402,505.6411,506.44,1,1,right,0.2727,,506.4412,507.2899,1,1,right,507.2909,507.2919,,0,,0,507.2919,507.2919,507.2925,508.7898,0,49,49,49,1,0.6,0.4,0.4,0.6,,,,,,,,,,,,,,,0.3164,,0.6,0.4,0.6,0.4,0.8,0.2,0.6,0.4,1,0,,,,,,,,,,,,
,,66dae86be0d77b33d6805623,66daf5bab92947885aefac0b,2024-09-06_14h30.40.497,mdp,2024.2.1,Win32,59.88023952,66d7945b1baad48e845df3ce,,,,,,,,,,,,,,,,,,,,,,,,,,,,,,,,,,,,,,,,,,,,,,,,,,,,,,,,508.7898,567.3051,0,1,1,0,1,imgs/kangaroo.png,imgs/lion.png,imgs/horse.png,imgs/rabbit.png,imgs/bear.png,,,,,,,,,,,,,,,,,,,,,,,,
,,66dae86be0d77b33d6805623,66daf5bab92947885aefac0b,2024-09-06_14h30.40.497,mdp,2024.2.1,Win32,59.88023952,66d7945b1baad48e845df3ce,,,,,,,,,,,,,,3,seqs/st3seq22.csv,567.3159,575.0885,space,7.256,,575.1033,575.1033,575.1041,579.3715,0,1,left,3.7565,,579.3821,582.2549,1,0,right,582.2559,583.8882,0,1,left,0,583.8883,583.8883,583.8893,585.388,0,0,0,0,1,0.6,0.4,0.4,0.6,,,,,,,,,,,,,,,2.3494,,0.8,0.2,0.6,0.4,0.2,0.8,0.8,0.2,,,1.0988,,0.4,0.6,0.2,0.8,0.8,0.2,0.2,0.8,1,0
,,66dae86be0d77b33d6805623,66daf5bab92947885aefac0b,2024-09-06_14h30.40.497,mdp,2024.2.1,Win32,59.88023952,66d7945b1baad48e845df3ce,,,,,,,,,,,,,,,,,,,,,585.3886,585.3886,585.3895,587.272,0,0,left,1.3565,,587.2732,589.1214,0,0,left,589.1225,590.338,1,1,right,0,590.3381,590.3381,590.339,591.8378,0,1,1,1,1,0.6,0.4,0.4,0.6,,,,,,,,,,,,,,,1.3222,,0.8,0.2,0.6,0.4,0.2,0.8,0.8,0.2,,,0.6863,,0.4,0.6,0.2,0.8,0.8,0.2,0.2,0.8,1,0
,,66dae86be0d77b33d6805623,66daf5bab92947885aefac0b,2024-09-06_14h30.40.497,mdp,2024.2.1,Win32,59.88023952,66d7945b1baad48e845df3ce,,,,,,,,,,,,,,,,,,,,,591.8382,591.8383,591.8394,593.9212,0,1,left,1.5516,,593.9224,594.7548,0,1,left,594.7557,595.7213,0,0,left,1,595.7213,595.7213,595.7225,597.2212,0,2,2,2,1,0.6,0.4,0.4,0.6,,,,,,,,,,,,,,,0.3026,,0.8,0.2,0.6,0.4,0.2,0.8,0.8,0.2,,,0.4345,,0.4,0.6,0.2,0.8,0.8,0.2,0.2,0.8,1,0
,,66dae86be0d77b33d6805623,66daf5bab92947885aefac0b,2024-09-06_14h30.40.497,mdp,2024.2.1,Win32,59.88023952,66d7945b1baad48e845df3ce,,,,,,,,,,,,,,,,,,,,,597.2218,597.2218,597.2226,598.5214,0,1,left,0.7795,,598.5223,599.8711,0,1,left,599.8723,600.9876,0,1,left,0,600.9877,600.9877,600.9886,602.4877,0,3,3,3,1,0.6,0.4,0.4,0.6,,,,,,,,,,,,,,,0.823,,0.8,0.2,0.6,0.4,0.2,0.8,0.8,0.2,,,0.5908,,0.6,0.4,0.6,0.4,0.8,0.2,0.2,0.8,1,0
,,66dae86be0d77b33d6805623,66daf5bab92947885aefac0b,2024-09-06_14h30.40.497,mdp,2024.2.1,Win32,59.88023952,66d7945b1baad48e845df3ce,,,,,,,,,,,,,,,,,,,,,602.4882,602.4882,602.4891,603.671,0,1,left,0.6547,,603.6724,605.3377,0,1,left,605.3387,607.1544,1,1,right,0,607.1545,607.1545,607.1558,608.6543,0,4,4,4,1,0.6,0.4,0.4,0.6,,,,,,,,,,,,,,,1.1401,,0.8,0.2,0.6,0.4,0.2,0.8,0.8,0.2,,,1.2787,,0.6,0.4,0.6,0.4,0.8,0.2,0.2,0.8,1,0
,,66dae86be0d77b33d6805623,66daf5bab92947885aefac0b,2024-09-06_14h30.40.497,mdp,2024.2.1,Win32,59.88023952,66d7945b1baad48e845df3ce,,,,,,,,,,,,,,,,,,,,,608.6548,608.6548,608.6557,609.6711,0,1,left,0.4892,,609.672,610.5211,1,0,right,610.522,611.404,0,1,left,0,611.4041,611.4041,611.4051,612.904,0,5,5,5,1,0.6,0.4,0.4,0.6,,,,,,,,,,,,,,,0.3247,,0.8,0.2,0.6,0.4,0.2,0.8,0.8,0.2,,,0.3535,,0.6,0.4,0.6,0.4,0.8,0.2,0.2,0.8,1,0
,,66dae86be0d77b33d6805623,66daf5bab92947885aefac0b,2024-09-06_14h30.40.497,mdp,2024.2.1,Win32,59.88023952,66d7945b1baad48e845df3ce,,,,,,,,,,,,,,,,,,,,,612.9046,612.9046,612.9055,616.1209,1,0,right,2.6915,,616.1308,617.6042,0,0,left,617.6052,619.0541,0,1,left,0,619.0542,619.0542,619.0551,620.5539,0,6,6,6,1,0.6,0.4,0.4,0.6,,,,,,,,,,,,,,,0.9554,,0.8,0.2,0.6,0.4,0.2,0.8,0.8,0.2,,,0.9203,,0.6,0.4,0.6,0.4,0.8,0.2,0.2,0.8,1,0
,,66dae86be0d77b33d6805623,66daf5bab92947885aefac0b,2024-09-06_14h30.40.497,mdp,2024.2.1,Win32,59.88023952,66d7945b1baad48e845df3ce,,,,,,,,,,,,,,,,,,,,,620.5544,620.5544,620.5555,621.6042,0,0,left,0.523,,621.6052,623.0705,0,1,left,623.0717,624.4206,0,1,left,0,624.4207,624.4207,624.4219,625.9205,0,7,7,7,1,0.6,0.4,0.4,0.6,,,,,,,,,,,,,,,0.9424,,0.8,0.2,0.6,0.4,0.2,0.8,0.8,0.2,,,0.8156,,0.6,0.4,0.6,0.4,0.8,0.2,0.2,0.8,1,0
,,66dae86be0d77b33d6805623,66daf5bab92947885aefac0b,2024-09-06_14h30.40.497,mdp,2024.2.1,Win32,59.88023952,66d7945b1baad48e845df3ce,,,,,,,,,,,,,,,,,,,,,625.9209,625.9209,625.9219,627.3873,0,0,left,0.9429,,627.3882,629.3205,0,0,left,629.3217,630.4037,1,0,right,1,630.4038,630.4038,630.4048,631.9037,0,8,8,8,1,0.6,0.4,0.4,0.6,,,,,,,,,,,,,,,1.4076,,0.8,0.2,0.6,0.4,0.2,0.8,0.8,0.2,,,0.5527,,0.6,0.4,0.6,0.4,0.8,0.2,0.2,0.8,1,0
,,66dae86be0d77b33d6805623,66daf5bab92947885aefac0b,2024-09-06_14h30.40.497,mdp,2024.2.1,Win32,59.88023952,66d7945b1baad48e845df3ce,,,,,,,,,,,,,,,,,,,,,631.9042,631.9042,631.9053,632.8205,0,1,left,0.3885,,632.822,634.7537,1,1,right,634.755,636.4703,0,0,left,1,636.4704,636.4704,636.472,637.9703,0,9,9,9,1,0.6,0.4,0.4,0.6,,,,,,,,,,,,,,,1.3939,,0.8,0.2,0.6,0.4,0.2,0.8,0.8,0.2,,,1.1821,,0.6,0.4,0.6,0.4,0.8,0.2,0.2,0.8,1,0
,,66dae86be0d77b33d6805623,66daf5bab92947885aefac0b,2024-09-06_14h30.40.497,mdp,2024.2.1,Win32,59.88023952,66d7945b1baad48e845df3ce,,,,,,,,,,,,,,,,,,,,,637.9706,637.9706,637.9715,639.0035,0,1,left,0.5144,,639.0045,640.2535,1,1,right,640.2547,641.2707,0,0,left,1,641.2707,641.2707,641.2722,642.7702,0,10,10,10,1,0.6,0.4,0.4,0.6,,,,,,,,,,,,,,,0.7342,,0.8,0.2,0.6,0.4,0.2,0.8,0.8,0.2,,,0.4939,,0.6,0.4,0.6,0.4,0.8,0.2,0.2,0.8,1,0
,,66dae86be0d77b33d6805623,66daf5bab92947885aefac0b,2024-09-06_14h30.40.497,mdp,2024.2.1,Win32,59.88023952,66d7945b1baad48e845df3ce,,,,,,,,,,,,,,,,,,,,,642.7707,642.7707,642.7718,643.8869,0,0,left,0.5782,,643.8879,646.0534,1,1,right,646.0544,648.5038,0,1,left,0,648.5039,648.5039,648.5048,650.0033,0,11,11,11,1,0.6,0.4,0.4,0.6,,,,,,,,,,,,,,,1.6295,,0.8,0.2,0.6,0.4,0.2,0.8,0.8,0.2,,,1.9219,,0.6,0.4,0.6,0.4,0.8,0.2,0.2,0.8,1,0
,,66dae86be0d77b33d6805623,66daf5bab92947885aefac0b,2024-09-06_14h30.40.497,mdp,2024.2.1,Win32,59.88023952,66d7945b1baad48e845df3ce,,,,,,,,,,,,,,,,,,,,,650.0037,650.0037,650.0047,650.9367,0,1,left,0.3938,,650.9377,652.1535,1,0,right,652.1545,653.7032,1,1,right,0,653.7033,653.7033,653.7044,655.2031,0,12,12,12,1,0.4,0.6,0.2,0.8,,,,,,,,,,,,,,,0.6783,,0.8,0.2,0.6,0.4,0.2,0.8,0.8,0.2,,,1.0175,,0.6,0.4,0.6,0.4,0.8,0.2,0.2,0.8,1,0
,,66dae86be0d77b33d6805623,66daf5bab92947885aefac0b,2024-09-06_14h30.40.497,mdp,2024.2.1,Win32,59.88023952,66d7945b1baad48e845df3ce,,,,,,,,,,,,,,,,,,,,,655.2034,655.2035,655.2046,656.22,0,0,left,0.4833,,656.2212,657.8865,0,0,left,657.8876,659.503,0,1,left,0,659.503,659.5031,659.5041,661.003,0,13,13,13,1,0.4,0.6,0.2,0.8,,,,,,,,,,,,,,,1.1272,,0.8,0.2,0.6,0.4,0.2,0.8,0.8,0.2,,,1.0955,,0.6,0.4,0.6,0.4,0.8,0.2,0.2,0.8,1,0
,,66dae86be0d77b33d6805623,66daf5bab92947885aefac0b,2024-09-06_14h30.40.497,mdp,2024.2.1,Win32,59.88023952,66d7945b1baad48e845df3ce,,,,,,,,,,,,,,,,,,,,,661.0034,661.0034,661.0042,662.1697,0,1,left,0.6334,,662.1708,663.5365,1,1,right,663.5376,664.9197,0,0,left,1,664.9197,664.9197,664.9207,666.4194,0,14,14,14,1,0.4,0.6,0.2,0.8,,,,,,,,,,,,,,,0.8303,,0.8,0.2,0.6,0.4,0.4,0.6,0.2,0.8,,,0.8542,,0.6,0.4,0.6,0.4,0.8,0.2,0.2,0.8,1,0
,,66dae86be0d77b33d6805623,66daf5bab92947885aefac0b,2024-09-06_14h30.40.497,mdp,2024.2.1,Win32,59.88023952,66d7945b1baad48e845df3ce,,,,,,,,,,,,,,,,,,,,,666.4199,666.4199,666.421,667.6365,0,0,left,0.6838,,667.6375,668.8862,1,1,right,668.8873,670.7862,0,0,left,1,670.7864,670.7864,670.7873,672.2862,0,15,15,15,1,0.4,0.6,0.2,0.8,,,,,,,,,,,,,,,0.7199,,0.8,0.2,0.6,0.4,0.4,0.6,0.2,0.8,,,1.3808,,0.6,0.4,0.6,0.4,0.8,0.2,0.2,0.8,1,0
,,66dae86be0d77b33d6805623,66daf5bab92947885aefac0b,2024-09-06_14h30.40.497,mdp,2024.2.1,Win32,59.88023952,66d7945b1baad48e845df3ce,,,,,,,,,,,,,,,,,,,,,672.2867,672.2867,672.2875,673.2694,0,0,left,0.45,,673.2703,674.5862,1,0,right,674.5872,676.586,1,1,right,0,676.5861,676.5862,676.5872,678.0861,0,16,16,16,1,0.4,0.6,0.2,0.8,,,,,,,,,,,,,,,0.7911,,0.8,0.2,0.6,0.4,0.4,0.6,0.2,0.8,,,1.4645,,0.6,0.4,0.6,0.4,0.8,0.2,0.2,0.8,1,0
,,66dae86be0d77b33d6805623,66daf5bab92947885aefac0b,2024-09-06_14h30.40.497,mdp,2024.2.1,Win32,59.88023952,66d7945b1baad48e845df3ce,,,,,,,,,,,,,,,,,,,,,678.0865,678.0866,678.0874,679.2361,0,1,left,0.6174,,679.2371,680.6525,1,1,right,680.6535,681.8193,0,0,left,1,681.8194,681.8194,681.8205,683.319,0,17,17,17,1,0.2,0.8,0.8,0.2,,,,,,,,,,,,,,,0.8838,,0.8,0.2,0.6,0.4,0.4,0.6,0.2,0.8,,,0.6337,,0.6,0.4,0.6,0.4,0.8,0.2,0.2,0.8,1,0
,,66dae86be0d77b33d6805623,66daf5bab92947885aefac0b,2024-09-06_14h30.40.497,mdp,2024.2.1,Win32,59.88023952,66d7945b1baad48e845df3ce,,,,,,,,,,,,,,,,,,,,,683.3195,683.3195,683.3204,684.5859,0,1,left,0.7387,,684.587,685.8859,1,1,right,685.8869,687.1692,0,0,left,1,687.1693,687.1693,687.1703,688.669,0,18,18,18,1,0.2,0.8,0.8,0.2,,,,,,,,,,,,,,,0.7708,,0.8,0.2,0.6,0.4,0.4,0.6,0.2,0.8,,,0.7567,,0.6,0.4,0.6,0.4,0.8,0.2,0.2,0.8,1,0
,,66dae86be0d77b33d6805623,66daf5bab92947885aefac0b,2024-09-06_14h30.40.497,mdp,2024.2.1,Win32,59.88023952,66d7945b1baad48e845df3ce,,,,,,,,,,,,,,,,,,,,,688.6695,688.6695,688.6703,689.8691,0,1,left,0.6713,,689.8702,691.0191,1,1,right,691.0203,692.1025,0,1,left,0,692.1026,692.1026,692.1036,693.6022,0,19,19,19,1,0.2,0.8,0.8,0.2,,,,,,,,,,,,,,,0.6289,,0.8,0.2,0.6,0.4,0.4,0.6,0.2,0.8,,,0.5613,,0.8,0.2,0.8,0.2,0.8,0.2,0.2,0.8,1,0
,,66dae86be0d77b33d6805623,66daf5bab92947885aefac0b,2024-09-06_14h30.40.497,mdp,2024.2.1,Win32,59.88023952,66d7945b1baad48e845df3ce,,,,,,,,,,,,,,,,,,,,,693.6026,693.6026,693.6036,694.9191,0,1,left,0.7808,,694.9202,695.9692,1,0,right,695.9704,697.7857,1,0,right,1,697.7858,697.7858,697.7868,699.2856,0,20,20,20,1,0.2,0.8,0.8,0.2,,,,,,,,,,,,,,,0.5246,,0.8,0.2,0.6,0.4,0.4,0.6,0.2,0.8,,,1.2861,,0.8,0.2,0.8,0.2,0.8,0.2,0.2,0.8,1,0
,,66dae86be0d77b33d6805623,66daf5bab92947885aefac0b,2024-09-06_14h30.40.497,mdp,2024.2.1,Win32,59.88023952,66d7945b1baad48e845df3ce,,,,,,,,,,,,,,,,,,,,,699.2861,699.2861,699.287,700.3189,0,0,left,0.5096,,700.3197,702.4688,1,0,right,702.4703,703.9021,1,1,right,0,703.9022,703.9022,703.9032,705.4019,0,21,21,21,1,0.2,0.8,0.8,0.2,,,,,,,,,,,,,,,1.6175,,0.8,0.2,0.6,0.4,0.4,0.6,0.2,0.8,,,0.9057,,0.4,0.6,0.2,0.8,0.8,0.2,0.2,0.8,1,0
,,66dae86be0d77b33d6805623,66daf5bab92947885aefac0b,2024-09-06_14h30.40.497,mdp,2024.2.1,Win32,59.88023952,66d7945b1baad48e845df3ce,,,,,,,,,,,,,,,,,,,,,705.4024,705.4024,705.4033,706.7856,0,1,left,0.8563,,706.7867,708.1187,1,1,right,708.1197,709.7353,0,0,left,1,709.7355,709.7355,709.7365,711.2353,0,22,22,22,1,0.2,0.8,0.8,0.2,,,,,,,,,,,,,,,0.8026,,0.8,0.2,0.6,0.4,0.4,0.6,0.2,0.8,,,1.088,,0.4,0.6,0.2,0.8,0.8,0.2,0.2,0.8,1,0
,,66dae86be0d77b33d6805623,66daf5bab92947885aefac0b,2024-09-06_14h30.40.497,mdp,2024.2.1,Win32,59.88023952,66d7945b1baad48e845df3ce,,,,,,,,,,,,,,,,,,,,,711.2358,711.2358,711.2369,712.302,0,1,left,0.5344,,712.3033,713.4376,1,1,right,713.4384,714.6853,0,0,left,1,714.6853,714.6853,714.6862,716.1851,0,23,23,23,1,0.2,0.8,0.8,0.2,,,,,,,,,,,,,,,0.6113,,0.4,0.6,0.4,0.6,0.4,0.6,0.2,0.8,,,0.7285,,0.4,0.6,0.2,0.8,0.8,0.2,0.2,0.8,1,0
,,66dae86be0d77b33d6805623,66daf5bab92947885aefac0b,2024-09-06_14h30.40.497,mdp,2024.2.1,Win32,59.88023952,66d7945b1baad48e845df3ce,,,,,,,,,,,,,,,,,,,,,716.1855,716.1855,716.1864,717.3685,0,0,left,0.6542,,717.3697,718.4524,1,1,right,718.4533,719.8184,0,0,left,1,719.8185,719.8185,719.8195,721.3183,0,24,24,24,1,0.2,0.8,0.8,0.2,,,,,,,,,,,,,,,0.545,,0.4,0.6,0.4,0.6,0.4,0.6,0.2,0.8,,,0.837,,0.4,0.6,0.2,0.8,0.8,0.2,0.2,0.8,1,0
,,66dae86be0d77b33d6805623,66daf5bab92947885aefac0b,2024-09-06_14h30.40.497,mdp,2024.2.1,Win32,59.88023952,66d7945b1baad48e845df3ce,,,,,,,,,,,,,,,,,,,,,721.3187,721.3187,721.3195,722.435,0,0,left,0.585,,722.4358,723.452,1,1,right,723.4528,725.1352,0,1,left,0,725.1353,725.1353,725.1363,726.6349,0,25,25,25,1,0.2,0.8,0.8,0.2,,,,,,,,,,,,,,,0.4881,,0.4,0.6,0.4,0.6,0.4,0.6,0.2,0.8,,,1.1455,,0.4,0.6,0.2,0.8,0.4,0.6,0.6,0.4,1,0
,,66dae86be0d77b33d6805623,66daf5bab92947885aefac0b,2024-09-06_14h30.40.497,mdp,2024.2.1,Win32,59.88023952,66d7945b1baad48e845df3ce,,,,,,,,,,,,,,,,,,,,,726.6353,726.6354,726.6364,727.7684,0,1,left,0.6005,,727.7694,728.9017,1,1,right,728.9026,729.9016,0,0,left,1,729.9017,729.9017,729.9029,731.4014,0,26,26,26,1,0.2,0.8,0.8,0.2,,,,,,,,,,,,,,,0.6038,,0.4,0.6,0.4,0.6,0.4,0.6,0.2,0.8,,,0.4672,,0.4,0.6,0.2,0.8,0.4,0.6,0.6,0.4,1,0
,,66dae86be0d77b33d6805623,66daf5bab92947885aefac0b,2024-09-06_14h30.40.497,mdp,2024.2.1,Win32,59.88023952,66d7945b1baad48e845df3ce,,,,,,,,,,,,,,,,,,,,,731.402,731.402,731.4029,732.3516,0,1,left,0.427,,732.3527,733.4681,1,1,right,733.4691,734.935,1,1,right,0,734.935,734.935,734.9364,736.4347,0,27,27,27,1,0.2,0.8,0.8,0.2,,,,,,,,,,,,,,,0.5898,,0.8,0.2,0.2,0.8,0.4,0.6,0.2,0.8,,,0.9539,,0.4,0.6,0.2,0.8,0.4,0.6,0.6,0.4,1,0
,,66dae86be0d77b33d6805623,66daf5bab92947885aefac0b,2024-09-06_14h30.40.497,mdp,2024.2.1,Win32,59.88023952,66d7945b1baad48e845df3ce,,,,,,,,,,,,,,,,,,,,,736.4351,736.4351,736.436,737.418,0,1,left,0.4501,,737.419,738.4515,1,1,right,738.4525,740.2016,1,0,right,1,740.2016,740.2016,740.2026,741.7014,0,28,28,28,1,0.2,0.8,0.8,0.2,,,,,,,,,,,,,,,0.5045,,0.8,0.2,0.2,0.8,0.4,0.6,0.2,0.8,,,1.2318,,0.4,0.6,0.2,0.8,0.4,0.6,0.6,0.4,1,0
,,66dae86be0d77b33d6805623,66daf5bab92947885aefac0b,2024-09-06_14h30.40.497,mdp,2024.2.1,Win32,59.88023952,66d7945b1baad48e845df3ce,,,,,,,,,,,,,,,,,,,,,741.7018,741.7018,741.703,743.2013,0,1,left,0.9693,,743.2022,744.268,1,1,right,744.269,745.3515,1,0,right,1,745.3515,745.3515,745.3526,746.8512,0,29,29,29,1,0.2,0.8,0.8,0.2,,,,,,,,,,,,,,,0.5432,,0.8,0.2,0.2,0.8,0.4,0.6,0.2,0.8,,,0.5468,,0.4,0.6,0.2,0.8,0.4,0.6,0.6,0.4,1,0
,,66dae86be0d77b33d6805623,66daf5bab92947885aefac0b,2024-09-06_14h30.40.497,mdp,2024.2.1,Win32,59.88023952,66d7945b1baad48e845df3ce,,,,,,,,,,,,,,,,,,,,,746.8517,746.8517,746.8527,748.201,0,0,left,0.8301,,748.202,750.001,1,1,right,750.0023,751.2344,0,0,left,1,751.2345,751.2345,751.2353,752.7345,0,30,30,30,1,0.2,0.8,0.8,0.2,,,,,,,,,,,,,,,1.2742,,0.8,0.2,0.2,0.8,0.4,0.6,0.2,0.8,,,0.6966,,0.4,0.6,0.2,0.8,0.4,0.6,0.6,0.4,1,0
,,66dae86be0d77b33d6805623,66daf5bab92947885aefac0b,2024-09-06_14h30.40.497,mdp,2024.2.1,Win32,59.88023952,66d7945b1baad48e845df3ce,,,,,,,,,,,,,,,,,,,,,752.7349,752.7349,752.736,753.7843,0,1,left,0.5306,,753.7853,754.9677,1,1,right,754.9685,756.2674,0,0,left,1,756.2675,756.2675,756.2684,757.7676,0,31,31,31,1,0.2,0.8,0.8,0.2,,,,,,,,,,,,,,,0.6529,,0.8,0.2,0.2,0.8,0.4,0.6,0.2,0.8,,,0.7769,,0.4,0.6,0.2,0.8,0.4,0.6,0.6,0.4,1,0
,,66dae86be0d77b33d6805623,66daf5bab92947885aefac0b,2024-09-06_14h30.40.497,mdp,2024.2.1,Win32,59.88023952,66d7945b1baad48e845df3ce,,,,,,,,,,,,,,,,,,,,,757.7679,757.768,757.769,758.9676,0,0,left,0.6754,,758.9686,760.901,1,1,right,760.9018,762.1007,0,0,left,1,762.1008,762.1008,762.1024,763.6006,0,32,32,32,1,0.2,0.8,0.8,0.2,,,,,,,,,,,,,,,1.4062,,0.8,0.2,0.2,0.8,0.4,0.6,0.2,0.8,,,0.6779,,0.4,0.6,0.2,0.8,0.4,0.6,0.6,0.4,1,0
,,66dae86be0d77b33d6805623,66daf5bab92947885aefac0b,2024-09-06_14h30.40.497,mdp,2024.2.1,Win32,59.88023952,66d7945b1baad48e845df3ce,,,,,,,,,,,,,,,,,,,,,763.6009,763.6009,763.6019,764.8508,0,1,left,0.7225,,764.8521,766.0343,1,1,right,766.0353,767.0673,0,1,left,0,767.0674,767.0674,767.0684,768.5673,0,33,33,33,1,0.2,0.8,0.8,0.2,,,,,,,,,,,,,,,0.6452,,0.8,0.2,0.2,0.8,0.4,0.6,0.2,0.8,,,0.5052,,0.4,0.6,0.2,0.8,0.4,0.6,0.6,0.4,1,0
,,66dae86be0d77b33d6805623,66daf5bab92947885aefac0b,2024-09-06_14h30.40.497,mdp,2024.2.1,Win32,59.88023952,66d7945b1baad48e845df3ce,,,,,,,,,,,,,,,,,,,,,768.5677,768.5677,768.5686,769.7507,0,1,left,0.6559,,769.752,770.801,1,1,right,770.802,771.784,1,0,right,1,771.7841,771.7841,771.7851,773.2838,0,34,34,34,1,0.2,0.8,0.8,0.2,,,,,,,,,,,,,,,0.5121,,0.8,0.2,0.2,0.8,0.4,0.6,0.2,0.8,,,0.4563,,0.4,0.6,0.2,0.8,0.4,0.6,0.6,0.4,1,0
,,66dae86be0d77b33d6805623,66daf5bab92947885aefac0b,2024-09-06_14h30.40.497,mdp,2024.2.1,Win32,59.88023952,66d7945b1baad48e845df3ce,,,,,,,,,,,,,,,,,,,,,773.2842,773.2842,773.2851,774.5839,0,1,left,0.7694,,774.585,775.6005,1,1,right,775.6015,777.3338,1,1,right,0,777.3339,777.3339,777.335,778.8337,0,35,35,35,1,0.2,0.8,0.8,0.2,,,,,,,,,,,,,,,0.5042,,0.4,0.6,0.6,0.4,0.4,0.6,0.2,0.8,,,1.1997,,0.4,0.6,0.2,0.8,0.4,0.6,0.6,0.4,1,0
,,66dae86be0d77b33d6805623,66daf5bab92947885aefac0b,2024-09-06_14h30.40.497,mdp,2024.2.1,Win32,59.88023952,66d7945b1baad48e845df3ce,,,,,,,,,,,,,,,,,,,,,778.8342,778.8342,778.8351,780.0003,0,1,left,0.6469,,780.0012,780.9671,1,1,right,780.9681,781.9004,0,1,left,0,781.9005,781.9005,781.9015,783.4002,0,36,36,36,1,0.2,0.8,0.8,0.2,,,,,,,,,,,,,,,0.4377,,0.4,0.6,0.6,0.4,0.4,0.6,0.2,0.8,,,0.3999,,0.4,0.6,0.2,0.8,0.4,0.6,0.6,0.4,1,0
,,66dae86be0d77b33d6805623,66daf5bab92947885aefac0b,2024-09-06_14h30.40.497,mdp,2024.2.1,Win32,59.88023952,66d7945b1baad48e845df3ce,,,,,,,,,,,,,,,,,,,,,783.4007,783.4007,783.4017,784.8671,0,1,left,0.9396,,784.8683,785.9337,1,1,right,785.9347,786.967,0,1,left,0,786.9671,786.9671,786.9681,788.4668,0,37,37,37,1,0.2,0.8,0.8,0.2,,,,,,,,,,,,,,,0.5342,,0.4,0.6,0.6,0.4,0.4,0.6,0.2,0.8,,,0.5005,,0.4,0.6,0.2,0.8,0.4,0.6,0.6,0.4,1,0
,,66dae86be0d77b33d6805623,66daf5bab92947885aefac0b,2024-09-06_14h30.40.497,mdp,2024.2.1,Win32,59.88023952,66d7945b1baad48e845df3ce,,,,,,,,,,,,,,,,,,,,,788.4673,788.4673,788.4683,789.8337,0,1,left,0.8374,,789.8347,790.967,1,1,right,790.968,793.517,1,1,right,0,793.517,793.517,793.5268,795.0167,0,38,38,38,1,0.2,0.8,0.8,0.2,,,,,,,,,,,,,,,0.604,,0.4,0.6,0.6,0.4,0.4,0.6,0.2,0.8,,,2.0221,,0.4,0.6,0.2,0.8,0.4,0.6,0.6,0.4,1,0
,,66dae86be0d77b33d6805623,66daf5bab92947885aefac0b,2024-09-06_14h30.40.497,mdp,2024.2.1,Win32,59.88023952,66d7945b1baad48e845df3ce,,,,,,,,,,,,,,,,,,,,,795.0171,795.0171,795.0181,795.9336,0,1,left,0.3896,,795.9345,796.8336,1,1,right,796.8346,797.7334,0,1,left,0,797.7334,797.7335,797.7344,799.2333,0,39,39,39,1,0.2,0.8,0.8,0.2,,,,,,,,,,,,,,,0.3665,,0.4,0.6,0.6,0.4,0.4,0.6,0.2,0.8,,,0.3711,,0.4,0.6,0.2,0.8,0.4,0.6,0.6,0.4,1,0
,,66dae86be0d77b33d6805623,66daf5bab92947885aefac0b,2024-09-06_14h30.40.497,mdp,2024.2.1,Win32,59.88023952,66d7945b1baad48e845df3ce,,,,,,,,,,,,,,,,,,,,,799.2337,799.2337,799.2349,800.3332,0,1,left,0.5811,,800.3343,801.2334,1,0,right,801.2345,802.8669,1,1,right,0,802.867,802.867,802.8678,804.3666,0,40,40,40,1,0.2,0.8,0.8,0.2,,,,,,,,,,,,,,,0.3722,,0.4,0.6,0.6,0.4,0.4,0.6,0.2,0.8,,,1.0995,,0.4,0.6,0.2,0.8,0.4,0.6,0.6,0.4,1,0
,,66dae86be0d77b33d6805623,66daf5bab92947885aefac0b,2024-09-06_14h30.40.497,mdp,2024.2.1,Win32,59.88023952,66d7945b1baad48e845df3ce,,,,,,,,,,,,,,,,,,,,,804.367,804.367,804.368,805.4999,0,0,left,0.6016,,805.5012,807.1501,1,0,right,807.1509,808.2998,1,0,right,1,808.2999,808.2999,808.3008,809.7995,0,41,41,41,1,0.2,0.8,0.8,0.2,,,,,,,,,,,,,,,1.1138,,0.4,0.6,0.6,0.4,0.4,0.6,0.2,0.8,,,0.6261,,0.4,0.6,0.2,0.8,0.4,0.6,0.6,0.4,1,0
,,66dae86be0d77b33d6805623,66daf5bab92947885aefac0b,2024-09-06_14h30.40.497,mdp,2024.2.1,Win32,59.88023952,66d7945b1baad48e845df3ce,,,,,,,,,,,,,,,,,,,,,809.8,809.8,809.801,810.8162,0,1,left,0.4912,,810.8172,811.9332,1,1,right,811.9339,813.1498,0,0,left,1,813.1499,813.1499,813.1509,814.6495,0,42,42,42,1,0.2,0.8,0.8,0.2,,,,,,,,,,,,,,,0.5886,,0.4,0.6,0.6,0.4,0.4,0.6,0.2,0.8,,,0.6822,,0.4,0.6,0.2,0.8,0.4,0.6,0.6,0.4,1,0
,,66dae86be0d77b33d6805623,66daf5bab92947885aefac0b,2024-09-06_14h30.40.497,mdp,2024.2.1,Win32,59.88023952,66d7945b1baad48e845df3ce,,,,,,,,,,,,,,,,,,,,,814.6501,814.6501,814.6511,815.4163,0,1,left,0.2358,,815.4173,816.4828,1,1,right,816.4839,817.6995,0,1,left,0,817.6995,817.6995,817.7003,819.1994,0,43,43,43,1,0.2,0.8,0.8,0.2,,,,,,,,,,,,,,,0.5406,,0.4,0.6,0.6,0.4,0.4,0.6,0.2,0.8,,,0.6975,,0.4,0.6,0.2,0.8,0.4,0.6,0.6,0.4,1,0
,,66dae86be0d77b33d6805623,66daf5bab92947885aefac0b,2024-09-06_14h30.40.497,mdp,2024.2.1,Win32,59.88023952,66d7945b1baad48e845df3ce,,,,,,,,,,,,,,,,,,,,,819.1998,819.1998,819.2006,820.0662,0,0,left,0.334,,820.0672,821.6495,1,1,right,821.6505,822.9161,0,1,left,0,822.9162,822.9162,822.9171,824.416,0,44,44,44,1,0.2,0.8,0.8,0.2,,,,,,,,,,,,,,,1.0497,,0.4,0.6,0.6,0.4,0.4,0.6,0.2,0.8,,,0.7393,,0.4,0.6,0.2,0.8,0.4,0.6,0.6,0.4,1,0
,,66dae86be0d77b33d6805623,66daf5bab92947885aefac0b,2024-09-06_14h30.40.497,mdp,2024.2.1,Win32,59.88023952,66d7945b1baad48e845df3ce,,,,,,,,,,,,,,,,,,,,,824.4164,824.4164,824.4174,825.2661,0,1,left,0.3225,,825.2672,826.4661,1,1,right,826.4672,827.8161,0,1,left,0,827.8162,827.8162,827.8171,829.3159,0,45,45,45,1,0.2,0.8,0.8,0.2,,,,,,,,,,,,,,,0.6638,,0.4,0.6,0.6,0.4,0.4,0.6,0.2,0.8,,,0.8172,,0.4,0.6,0.2,0.8,0.4,0.6,0.6,0.4,1,0
,,66dae86be0d77b33d6805623,66daf5bab92947885aefac0b,2024-09-06_14h30.40.497,mdp,2024.2.1,Win32,59.88023952,66d7945b1baad48e845df3ce,,,,,,,,,,,,,,,,,,,,,829.3164,829.3164,829.3174,830.3827,0,1,left,0.5424,,830.3836,831.2163,1,0,right,831.2172,832.3994,1,0,right,1,832.3995,832.3995,832.4004,833.8992,0,46,46,46,1,0.2,0.8,0.8,0.2,,,,,,,,,,,,,,,0.3151,,0.4,0.6,0.6,0.4,0.4,0.6,0.2,0.8,,,0.644,,0.4,0.6,0.2,0.8,0.4,0.6,0.6,0.4,1,0
,,66dae86be0d77b33d6805623,66daf5bab92947885aefac0b,2024-09-06_14h30.40.497,mdp,2024.2.1,Win32,59.88023952,66d7945b1baad48e845df3ce,,,,,,,,,,,,,,,,,,,,,833.8996,833.8996,833.9006,834.9159,0,0,left,0.4784,,834.9169,836.4995,1,0,right,836.5014,837.5658,1,1,right,0,837.5659,837.5659,837.5669,839.0657,0,47,47,47,1,0.2,0.8,0.8,0.2,,,,,,,,,,,,,,,1.046,,0.4,0.6,0.6,0.4,0.4,0.6,0.2,0.8,,,0.5269,,0.4,0.6,0.2,0.8,0.4,0.6,0.6,0.4,1,0
,,66dae86be0d77b33d6805623,66daf5bab92947885aefac0b,2024-09-06_14h30.40.497,mdp,2024.2.1,Win32,59.88023952,66d7945b1baad48e845df3ce,,,,,,,,,,,,,,,,,,,,,839.0661,839.0662,839.0673,840.0992,0,1,left,0.5122,,840.1,841.5492,1,1,right,841.5504,843.0491,0,0,left,1,843.0493,843.0493,843.0502,844.5488,0,48,48,48,1,0.2,0.8,0.8,0.2,,,,,,,,,,,,,,,0.9216,,0.4,0.6,0.6,0.4,0.4,0.6,0.2,0.8,,,0.9661,,0.4,0.6,0.2,0.8,0.8,0.2,0.8,0.2,1,0
,,66dae86be0d77b33d6805623,66daf5bab92947885aefac0b,2024-09-06_14h30.40.497,mdp,2024.2.1,Win32,59.88023952,66d7945b1baad48e845df3ce,,,,,,,,,,,,,,,,,,,,,844.5492,844.5492,844.55,845.6156,0,0,left,0.5431,,845.6165,847.2654,1,1,right,847.2663,848.5987,1,0,right,1,848.5988,848.5988,848.5999,850.0988,0,49,49,49,1,0.2,0.8,0.8,0.2,,,,,,,,,,,,,,,1.1173,,0.4,0.6,0.6,0.4,0.4,0.6,0.2,0.8,,,0.8037,,0.4,0.6,0.2,0.8,0.8,0.2,0.8,0.2,1,0
,,66dae86be0d77b33d6805623,66daf5bab92947885aefac0b,2024-09-06_14h30.40.497,mdp,2024.2.1,Win32,59.88023952,66d7945b1baad48e845df3ce,,,,,,,,,,,,,,,,,,,,,,,,,,,,,,,,,,,,,,,,,,,,,,,,,,,,,,,,850.0989,908.6143,0,2,2,1,1,imgs/rabbit.png,imgs/squirrel.png,imgs/lion.png,imgs/goat.png,imgs/cat.png,,,,,,,,,,,,,,,,,,,,,,,,
,,66dae86be0d77b33d6805623,66daf5bab92947885aefac0b,2024-09-06_14h30.40.497,mdp,2024.2.1,Win32,59.88023952,66d7945b1baad48e845df3ce,,,,,,,,,,,,,,3,seqs/st3seq45.csv,908.6242,917.214,space,8.0649,,917.2281,917.2282,917.2289,919.4138,1,0,right,1.6732,,919.4147,921.8807,1,0,right,921.8819,923.4472,0,1,left,0,923.4472,923.4472,923.4482,924.9472,0,0,0,0,1,0.2,0.8,0.2,0.8,,,,,,,,,,,,,,,1.9373,,0.8,0.2,0.6,0.4,0.6,0.4,0.2,0.8,,,1.0361,,0.2,0.8,0.4,0.6,0.2,0.8,0.8,0.2,1,0
,,66dae86be0d77b33d6805623,66daf5bab92947885aefac0b,2024-09-06_14h30.40.497,mdp,2024.2.1,Win32,59.88023952,66d7945b1baad48e845df3ce,,,,,,,,,,,,,,,,,,,,,924.9475,924.9476,924.9485,926.3471,1,1,right,0.8697,,926.3482,927.997,0,1,left,927.998,929.3302,1,0,right,1,929.3302,929.3302,929.3316,930.8302,0,1,1,1,1,0.2,0.8,0.2,0.8,,,,,,,,,,,,,,,1.1156,,0.8,0.2,0.6,0.4,0.6,0.4,0.2,0.8,,,0.8047,,0.2,0.8,0.4,0.6,0.2,0.8,0.8,0.2,1,0
,,66dae86be0d77b33d6805623,66daf5bab92947885aefac0b,2024-09-06_14h30.40.497,mdp,2024.2.1,Win32,59.88023952,66d7945b1baad48e845df3ce,,,,,,,,,,,,,,,,,,,,,930.8307,930.8307,930.8317,931.8803,1,1,right,0.5173,,931.8814,933.4137,0,1,left,933.4147,934.4969,1,0,right,1,934.4971,934.4971,934.498,935.9968,0,2,2,2,1,0.2,0.8,0.2,0.8,,,,,,,,,,,,,,,0.9953,,0.8,0.2,0.6,0.4,0.4,0.6,0.4,0.6,,,0.5514,,0.2,0.8,0.4,0.6,0.2,0.8,0.8,0.2,1,0
,,66dae86be0d77b33d6805623,66daf5bab92947885aefac0b,2024-09-06_14h30.40.497,mdp,2024.2.1,Win32,59.88023952,66d7945b1baad48e845df3ce,,,,,,,,,,,,,,,,,,,,,935.9972,935.9972,935.998,937.3971,1,1,right,0.8802,,937.3979,938.5302,0,0,left,938.531,940.0134,0,1,left,0,940.0135,940.0135,940.0145,941.5135,0,3,3,3,1,0.2,0.8,0.2,0.8,,,,,,,,,,,,,,,0.615,,0.8,0.2,0.6,0.4,0.6,0.4,0.2,0.8,,,0.9454,,0.2,0.8,0.4,0.6,0.2,0.8,0.8,0.2,1,0
,,66dae86be0d77b33d6805623,66daf5bab92947885aefac0b,2024-09-06_14h30.40.497,mdp,2024.2.1,Win32,59.88023952,66d7945b1baad48e845df3ce,,,,,,,,,,,,,,,,,,,,,941.5139,941.5139,941.5148,942.4801,1,1,right,0.4464,,942.4813,943.5468,0,0,left,943.5479,944.497,1,1,right,0,944.4971,944.4971,944.4981,945.9966,0,4,4,4,1,0.2,0.8,0.2,0.8,,,,,,,,,,,,,,,0.5356,,0.8,0.2,0.6,0.4,0.6,0.4,0.2,0.8,,,0.4221,,0.2,0.8,0.4,0.6,0.2,0.8,0.8,0.2,1,0
,,66dae86be0d77b33d6805623,66daf5bab92947885aefac0b,2024-09-06_14h30.40.497,mdp,2024.2.1,Win32,59.88023952,66d7945b1baad48e845df3ce,,,,,,,,,,,,,,,,,,,,,945.997,945.997,945.998,947.1133,1,0,right,0.5914,,947.1142,948.3632,1,1,right,948.3642,949.7132,0,1,left,0,949.7133,949.7133,949.7144,951.2131,0,5,5,5,1,0.2,0.8,0.2,0.8,,,,,,,,,,,,,,,0.714,,0.8,0.2,0.6,0.4,0.6,0.4,0.2,0.8,,,0.8197,,0.2,0.8,0.4,0.6,0.2,0.8,0.8,0.2,1,0
,,66dae86be0d77b33d6805623,66daf5bab92947885aefac0b,2024-09-06_14h30.40.497,mdp,2024.2.1,Win32,59.88023952,66d7945b1baad48e845df3ce,,,,,,,,,,,,,,,,,,,,,951.2134,951.2134,951.2142,952.2632,1,1,right,0.5245,,952.2642,953.7964,1,0,right,953.7975,954.9464,1,0,right,1,954.9465,954.9465,954.9474,956.4463,0,6,6,6,1,0.2,0.8,0.2,0.8,,,,,,,,,,,,,,,0.9987,,0.8,0.2,0.6,0.4,0.6,0.4,0.2,0.8,,,0.6157,,0.2,0.8,0.4,0.6,0.2,0.8,0.8,0.2,1,0
,,66dae86be0d77b33d6805623,66daf5bab92947885aefac0b,2024-09-06_14h30.40.497,mdp,2024.2.1,Win32,59.88023952,66d7945b1baad48e845df3ce,,,,,,,,,,,,,,,,,,,,,956.4467,956.4467,956.4475,957.4629,1,1,right,0.4863,,957.464,958.7466,1,0,right,958.7476,959.8465,1,0,right,1,959.8466,959.8466,959.8475,961.3462,0,7,7,7,1,0.2,0.8,0.2,0.8,,,,,,,,,,,,,,,0.7548,,0.8,0.2,0.6,0.4,0.6,0.4,0.2,0.8,,,0.5617,,0.2,0.8,0.4,0.6,0.2,0.8,0.8,0.2,1,0
,,66dae86be0d77b33d6805623,66daf5bab92947885aefac0b,2024-09-06_14h30.40.497,mdp,2024.2.1,Win32,59.88023952,66d7945b1baad48e845df3ce,,,,,,,,,,,,,,,,,,,,,961.3466,961.3467,961.3477,962.2964,1,1,right,0.4151,,962.2974,963.3462,1,1,right,963.3472,964.9129,1,0,right,1,964.913,964.913,964.9139,966.4127,0,8,8,8,1,0.2,0.8,0.2,0.8,,,,,,,,,,,,,,,0.5228,,0.8,0.2,0.6,0.4,0.6,0.4,0.2,0.8,,,1.0365,,0.2,0.8,0.4,0.6,0.2,0.8,0.8,0.2,1,0
,,66dae86be0d77b33d6805623,66daf5bab92947885aefac0b,2024-09-06_14h30.40.497,mdp,2024.2.1,Win32,59.88023952,66d7945b1baad48e845df3ce,,,,,,,,,,,,,,,,,,,,,966.4133,966.4133,966.4142,967.6463,1,1,right,0.6997,,967.6473,968.9129,1,1,right,968.9138,970.3795,1,0,right,1,970.3796,970.3796,970.3805,971.8793,0,9,9,9,1,0.2,0.8,0.2,0.8,,,,,,,,,,,,,,,0.7482,,0.8,0.2,0.6,0.4,0.6,0.4,0.2,0.8,,,0.9373,,0.2,0.8,0.4,0.6,0.2,0.8,0.8,0.2,1,0
,,66dae86be0d77b33d6805623,66daf5bab92947885aefac0b,2024-09-06_14h30.40.497,mdp,2024.2.1,Win32,59.88023952,66d7945b1baad48e845df3ce,,,,,,,,,,,,,,,,,,,,,971.8798,971.8798,971.8807,972.946,1,1,right,0.5409,,972.9471,974.5294,1,1,right,974.5303,975.7458,1,0,right,1,975.7459,975.7459,975.7469,977.2458,0,10,10,10,1,0.2,0.8,0.2,0.8,,,,,,,,,,,,,,,1.0482,,0.8,0.2,0.6,0.4,0.6,0.4,0.2,0.8,,,0.6947,,0.2,0.8,0.4,0.6,0.2,0.8,0.8,0.2,1,0
,,66dae86be0d77b33d6805623,66daf5bab92947885aefac0b,2024-09-06_14h30.40.497,mdp,2024.2.1,Win32,59.88023952,66d7945b1baad48e845df3ce,,,,,,,,,,,,,,,,,,,,,977.2463,977.2464,977.2472,978.1792,1,1,right,0.4077,,978.1801,979.6128,1,1,right,979.6137,980.8126,1,0,right,1,980.8126,980.8126,980.8136,982.3125,0,11,11,11,1,0.2,0.8,0.2,0.8,,,,,,,,,,,,,,,0.9064,,0.8,0.2,0.6,0.4,0.6,0.4,0.2,0.8,,,0.6733,,0.2,0.8,0.4,0.6,0.2,0.8,0.8,0.2,1,0
,,66dae86be0d77b33d6805623,66daf5bab92947885aefac0b,2024-09-06_14h30.40.497,mdp,2024.2.1,Win32,59.88023952,66d7945b1baad48e845df3ce,,,,,,,,,,,,,,,,,,,,,982.313,982.313,982.3139,983.296,1,0,right,0.4518,,983.2969,984.9626,0,0,left,984.9634,986.179,1,1,right,0,986.1792,986.1792,986.18,987.6789,0,12,12,12,1,0.2,0.8,0.2,0.8,,,,,,,,,,,,,,,1.132,,0.8,0.2,0.6,0.4,0.6,0.4,0.2,0.8,,,0.6838,,0.2,0.8,0.4,0.6,0.2,0.8,0.8,0.2,1,0
,,66dae86be0d77b33d6805623,66daf5bab92947885aefac0b,2024-09-06_14h30.40.497,mdp,2024.2.1,Win32,59.88023952,66d7945b1baad48e845df3ce,,,,,,,,,,,,,,,,,,,,,987.6794,987.6794,987.6802,989.3124,1,1,right,1.1077,,989.3134,991.679,1,1,right,991.6801,992.9123,1,0,right,1,992.9124,992.9125,992.9137,994.4123,0,13,13,13,1,0.2,0.8,0.2,0.8,,,,,,,,,,,,,,,1.8273,,0.8,0.2,0.6,0.4,0.6,0.4,0.2,0.8,,,0.696,,0.2,0.8,0.4,0.6,0.2,0.8,0.8,0.2,1,0
,,66dae86be0d77b33d6805623,66daf5bab92947885aefac0b,2024-09-06_14h30.40.497,mdp,2024.2.1,Win32,59.88023952,66d7945b1baad48e845df3ce,,,,,,,,,,,,,,,,,,,,,994.4126,994.4127,994.4138,995.5291,1,1,right,0.5889,,995.53,996.879,1,1,right,996.88,999.1287,1,0,right,1,999.1288,999.1288,999.1298,1000.6289,0,14,14,14,1,0.2,0.8,0.2,0.8,,,,,,,,,,,,,,,0.8125,,0.8,0.2,0.6,0.4,0.6,0.4,0.2,0.8,,,1.7286,,0.2,0.8,0.4,0.6,0.2,0.8,0.8,0.2,1,0
,,66dae86be0d77b33d6805623,66daf5bab92947885aefac0b,2024-09-06_14h30.40.497,mdp,2024.2.1,Win32,59.88023952,66d7945b1baad48e845df3ce,,,,,,,,,,,,,,,,,,,,,1000.6294,1000.6294,1000.6305,1001.9621,1,1,right,0.8035,,1001.9631,1003.3955,1,1,right,1003.3965,1004.6623,1,0,right,1,1004.6623,1004.6623,1004.6631,1006.162,0,15,15,15,1,0.2,0.8,0.2,0.8,,,,,,,,,,,,,,,0.9019,,0.8,0.2,0.6,0.4,0.6,0.4,0.2,0.8,,,0.742,,0.2,0.8,0.4,0.6,0.2,0.8,0.8,0.2,1,0
,,66dae86be0d77b33d6805623,66daf5bab92947885aefac0b,2024-09-06_14h30.40.497,mdp,2024.2.1,Win32,59.88023952,66d7945b1baad48e845df3ce,,,,,,,,,,,,,,,,,,,,,1006.163,1006.163,1006.1638,1007.3303,1,1,right,0.6411,,1007.3311,1008.6285,1,1,right,1008.6295,1009.9451,1,1,right,0,1009.9452,1009.9453,1009.9462,1011.4451,0,16,16,16,1,0.2,0.8,0.2,0.8,,,,,,,,,,,,,,,0.7615,,0.8,0.2,0.6,0.4,0.6,0.4,0.2,0.8,,,0.7886,,0.2,0.8,0.4,0.6,0.2,0.8,0.8,0.2,1,0
,,66dae86be0d77b33d6805623,66daf5bab92947885aefac0b,2024-09-06_14h30.40.497,mdp,2024.2.1,Win32,59.88023952,66d7945b1baad48e845df3ce,,,,,,,,,,,,,,,,,,,,,1011.4457,1011.4458,1011.4468,1012.8954,1,1,right,0.9235,,1012.8966,1014.0952,1,0,right,1014.0964,1016.2953,1,0,right,1,1016.2954,1016.2954,1016.2965,1017.7949,0,17,17,17,1,0.2,0.8,0.2,0.8,,,,,,,,,,,,,,,0.6672,,0.8,0.2,0.6,0.4,0.6,0.4,0.2,0.8,,,1.661,,0.2,0.8,0.4,0.6,0.2,0.8,0.8,0.2,1,0
,,66dae86be0d77b33d6805623,66daf5bab92947885aefac0b,2024-09-06_14h30.40.497,mdp,2024.2.1,Win32,59.88023952,66d7945b1baad48e845df3ce,,,,,,,,,,,,,,,,,,,,,1017.7954,1017.7954,1017.7964,1019.2951,1,1,right,0.9799,,1019.2964,1020.4451,1,1,right,1020.4461,1022.1116,0,0,left,1,1022.1118,1022.1118,1022.1128,1023.6115,0,18,18,18,1,0.2,0.8,0.2,0.8,,,,,,,,,,,,,,,0.6162,,0.8,0.2,0.6,0.4,0.6,0.4,0.2,0.8,,,1.1314,,0.2,0.8,0.4,0.6,0.6,0.4,0.2,0.8,1,0
,,66dae86be0d77b33d6805623,66daf5bab92947885aefac0b,2024-09-06_14h30.40.497,mdp,2024.2.1,Win32,59.88023952,66d7945b1baad48e845df3ce,,,,,,,,,,,,,,,,,,,,,1023.6119,1023.6119,1023.6127,1024.7948,1,1,right,0.6542,,1024.796,1025.9781,1,1,right,1025.9793,1026.995,0,0,left,1,1026.9951,1026.9951,1026.996,1028.4948,0,19,19,19,1,0.2,0.8,0.2,0.8,,,,,,,,,,,,,,,0.6448,,0.8,0.2,0.6,0.4,0.6,0.4,0.2,0.8,,,0.4791,,0.2,0.8,0.4,0.6,0.6,0.4,0.2,0.8,1,0
,,66dae86be0d77b33d6805623,66daf5bab92947885aefac0b,2024-09-06_14h30.40.497,mdp,2024.2.1,Win32,59.88023952,66d7945b1baad48e845df3ce,,,,,,,,,,,,,,,,,,,,,1028.4955,1028.4955,1028.4963,1029.5281,1,1,right,0.5007,,1029.5291,1030.6614,1,1,right,1030.6625,1031.7448,0,0,left,1,1031.7448,1031.7448,1031.746,1033.2445,0,20,20,20,1,0.2,0.8,0.2,0.8,,,,,,,,,,,,,,,0.6014,,0.8,0.2,0.6,0.4,0.6,0.4,0.2,0.8,,,0.556,,0.2,0.8,0.4,0.6,0.6,0.4,0.2,0.8,1,0
,,66dae86be0d77b33d6805623,66daf5bab92947885aefac0b,2024-09-06_14h30.40.497,mdp,2024.2.1,Win32,59.88023952,66d7945b1baad48e845df3ce,,,,,,,,,,,,,,,,,,,,,1033.2449,1033.2449,1033.2459,1034.2785,1,1,right,0.5124,,1034.2795,1035.328,1,0,right,1035.329,1036.4947,0,1,left,0,1036.4947,1036.4947,1036.496,1037.9949,0,21,21,21,1,0.2,0.8,0.2,0.8,,,,,,,,,,,,,,,0.5181,,0.8,0.2,0.6,0.4,0.6,0.4,0.2,0.8,,,0.6339,,0.2,0.8,0.4,0.6,0.6,0.4,0.2,0.8,1,0
,,66dae86be0d77b33d6805623,66daf5bab92947885aefac0b,2024-09-06_14h30.40.497,mdp,2024.2.1,Win32,59.88023952,66d7945b1baad48e845df3ce,,,,,,,,,,,,,,,,,,,,,1037.9952,1037.9952,1037.9962,1039.0949,1,1,right,0.5819,,1039.0958,1040.0445,1,1,right,1040.0455,1042.1778,1,1,right,0,1042.1779,1042.1779,1042.1788,1043.6778,0,22,22,22,1,0.2,0.8,0.2,0.8,,,,,,,,,,,,,,,0.4199,,0.8,0.2,0.6,0.4,0.6,0.4,0.2,0.8,,,1.6073,,0.2,0.8,0.4,0.6,0.6,0.4,0.2,0.8,1,0
,,66dae86be0d77b33d6805623,66daf5bab92947885aefac0b,2024-09-06_14h30.40.497,mdp,2024.2.1,Win32,59.88023952,66d7945b1baad48e845df3ce,,,,,,,,,,,,,,,,,,,,,1043.6782,1043.6782,1043.6791,1045.0612,1,1,right,0.8578,,1045.0621,1046.1444,1,1,right,1046.1455,1047.5278,0,1,left,0,1047.5279,1047.5279,1047.5288,1049.0275,0,23,23,23,1,0.2,0.8,0.2,0.8,,,,,,,,,,,,,,,0.5577,,0.8,0.2,0.6,0.4,0.6,0.4,0.2,0.8,,,0.8548,,0.2,0.8,0.4,0.6,0.6,0.4,0.2,0.8,1,0
,,66dae86be0d77b33d6805623,66daf5bab92947885aefac0b,2024-09-06_14h30.40.497,mdp,2024.2.1,Win32,59.88023952,66d7945b1baad48e845df3ce,,,,,,,,,,,,,,,,,,,,,1049.0279,1049.0279,1049.0288,1049.961,1,1,right,0.4105,,1049.9621,1050.861,1,0,right,1050.8622,1052.3942,1,1,right,0,1052.3943,1052.3943,1052.3954,1053.8941,0,24,24,24,1,0.2,0.8,0.2,0.8,,,,,,,,,,,,,,,0.3756,,0.8,0.2,0.6,0.4,0.6,0.4,0.2,0.8,,,0.9982,,0.2,0.8,0.4,0.6,0.6,0.4,0.2,0.8,1,0
,,66dae86be0d77b33d6805623,66daf5bab92947885aefac0b,2024-09-06_14h30.40.497,mdp,2024.2.1,Win32,59.88023952,66d7945b1baad48e845df3ce,,,,,,,,,,,,,,,,,,,,,1053.8946,1053.8946,1053.8954,1054.8611,1,1,right,0.4361,,1054.8622,1055.761,0,1,left,1055.762,1056.7775,1,0,right,1,1056.7776,1056.7776,1056.7785,1058.2775,0,25,25,25,1,0.2,0.8,0.2,0.8,,,,,,,,,,,,,,,0.3771,,0.8,0.2,0.6,0.4,0.2,0.8,0.4,0.6,,,0.4863,,0.2,0.8,0.4,0.6,0.6,0.4,0.2,0.8,1,0
,,66dae86be0d77b33d6805623,66daf5bab92947885aefac0b,2024-09-06_14h30.40.497,mdp,2024.2.1,Win32,59.88023952,66d7945b1baad48e845df3ce,,,,,,,,,,,,,,,,,,,,,1058.2779,1058.278,1058.2789,1059.4107,1,1,right,0.6008,,1059.4118,1060.5276,0,1,left,1060.5286,1061.5609,1,1,right,0,1061.561,1061.561,1061.562,1063.0607,0,26,26,26,1,0.2,0.8,0.2,0.8,,,,,,,,,,,,,,,0.5855,,0.8,0.2,0.6,0.4,0.2,0.8,0.4,0.6,,,0.4952,,0.2,0.8,0.4,0.6,0.6,0.4,0.2,0.8,1,0
,,66dae86be0d77b33d6805623,66daf5bab92947885aefac0b,2024-09-06_14h30.40.497,mdp,2024.2.1,Win32,59.88023952,66d7945b1baad48e845df3ce,,,,,,,,,,,,,,,,,,,,,1063.0611,1063.0611,1063.0621,1063.9273,1,1,right,0.3346,,1063.9284,1064.9607,0,1,left,1064.9618,1065.9107,0,0,left,1,1065.9108,1065.9108,1065.912,1067.4105,0,27,27,27,1,0.2,0.8,0.2,0.8,,,,,,,,,,,,,,,0.5078,,0.8,0.2,0.6,0.4,0.2,0.8,0.4,0.6,,,0.4235,,0.2,0.8,0.4,0.6,0.8,0.2,0.6,0.4,1,0
,,66dae86be0d77b33d6805623,66daf5bab92947885aefac0b,2024-09-06_14h30.40.497,mdp,2024.2.1,Win32,59.88023952,66d7945b1baad48e845df3ce,,,,,,,,,,,,,,,,,,,,,1067.4109,1067.4109,1067.4118,1068.544,1,1,right,0.6112,,1068.5451,1069.494,0,1,left,1069.495,1070.5439,0,0,left,1,1070.544,1070.544,1070.5452,1072.0438,0,28,28,28,1,0.2,0.8,0.2,0.8,,,,,,,,,,,,,,,0.4273,,0.8,0.2,0.6,0.4,0.2,0.8,0.4,0.6,,,0.5227,,0.2,0.8,0.4,0.6,0.8,0.2,0.6,0.4,1,0
,,66dae86be0d77b33d6805623,66daf5bab92947885aefac0b,2024-09-06_14h30.40.497,mdp,2024.2.1,Win32,59.88023952,66d7945b1baad48e845df3ce,,,,,,,,,,,,,,,,,,,,,1072.0442,1072.0442,1072.0453,1072.9773,1,1,right,0.4035,,1072.9783,1073.8105,0,1,left,1073.8116,1074.5439,0,1,left,0,1074.5439,1074.5439,1074.545,1076.0436,0,29,29,29,1,0.2,0.8,0.2,0.8,,,,,,,,,,,,,,,0.3046,,0.8,0.2,0.6,0.4,0.2,0.8,0.4,0.6,,,0.2062,,0.2,0.8,0.4,0.6,0.8,0.2,0.6,0.4,1,0
,,66dae86be0d77b33d6805623,66daf5bab92947885aefac0b,2024-09-06_14h30.40.497,mdp,2024.2.1,Win32,59.88023952,66d7945b1baad48e845df3ce,,,,,,,,,,,,,,,,,,,,,1076.044,1076.0441,1076.0451,1076.5771,1,1,right,0.0048,,1076.5782,1078.1936,0,1,left,1078.1944,1078.7937,1,1,right,0,1078.7937,1078.7937,1078.7949,1080.2935,0,30,30,30,1,0.2,0.8,0.2,0.8,,,,,,,,,,,,,,,1.0973,,0.8,0.2,0.6,0.4,0.2,0.8,0.4,0.6,,,0.075,,0.2,0.8,0.4,0.6,0.8,0.2,0.6,0.4,1,0
,,66dae86be0d77b33d6805623,66daf5bab92947885aefac0b,2024-09-06_14h30.40.497,mdp,2024.2.1,Win32,59.88023952,66d7945b1baad48e845df3ce,,,,,,,,,,,,,,,,,,,,,1080.2939,1080.2939,1080.2947,1081.3605,0,1,left,0.5475,,1081.3617,1082.2603,1,1,right,1082.2613,1083.177,1,0,right,1,1083.177,1083.177,1083.1779,1084.6767,0,31,31,31,1,0.2,0.8,0.2,0.8,,,,,,,,,,,,,,,0.3675,,0.8,0.2,0.6,0.4,0.2,0.8,0.4,0.6,,,0.3841,,0.2,0.8,0.4,0.6,0.8,0.2,0.6,0.4,1,0
,,66dae86be0d77b33d6805623,66daf5bab92947885aefac0b,2024-09-06_14h30.40.497,mdp,2024.2.1,Win32,59.88023952,66d7945b1baad48e845df3ce,,,,,,,,,,,,,,,,,,,,,1084.6771,1084.6771,1084.6781,1085.5768,0,1,left,0.37,,1085.5779,1086.6768,1,1,right,1086.6778,1087.6437,1,1,right,0,1087.6438,1087.6438,1087.6447,1089.1435,0,32,32,32,1,0.2,0.8,0.2,0.8,,,,,,,,,,,,,,,0.5763,,0.8,0.2,0.6,0.4,0.2,0.8,0.4,0.6,,,0.4372,,0.4,0.6,0.6,0.4,0.8,0.2,0.6,0.4,1,0
,,66dae86be0d77b33d6805623,66daf5bab92947885aefac0b,2024-09-06_14h30.40.497,mdp,2024.2.1,Win32,59.88023952,66d7945b1baad48e845df3ce,,,,,,,,,,,,,,,,,,,,,1089.1439,1089.1439,1089.1448,1090.2269,0,0,left,0.5605,,1090.228,1091.4937,0,0,left,1091.495,1092.8601,1,1,right,0,1092.8601,1092.8601,1092.861,1094.3597,0,33,33,33,1,0.8,0.2,0.4,0.6,,,,,,,,,,,,,,,0.7445,,0.8,0.2,0.6,0.4,0.2,0.8,0.4,0.6,,,0.843,,0.4,0.6,0.6,0.4,0.8,0.2,0.6,0.4,1,0
,,66dae86be0d77b33d6805623,66daf5bab92947885aefac0b,2024-09-06_14h30.40.497,mdp,2024.2.1,Win32,59.88023952,66d7945b1baad48e845df3ce,,,,,,,,,,,,,,,,,,,,,1094.3602,1094.3602,1094.3612,1095.4268,1,0,right,0.5456,,1095.4278,1096.3269,0,0,left,1096.3277,1097.4931,0,1,left,0,1097.4932,1097.4932,1097.4944,1098.9931,0,34,34,34,1,0.8,0.2,0.4,0.6,,,,,,,,,,,,,,,0.3727,,0.8,0.2,0.6,0.4,0.2,0.8,0.4,0.6,,,0.6387,,0.4,0.6,0.6,0.4,0.8,0.2,0.6,0.4,1,0
,,66dae86be0d77b33d6805623,66daf5bab92947885aefac0b,2024-09-06_14h30.40.497,mdp,2024.2.1,Win32,59.88023952,66d7945b1baad48e845df3ce,,,,,,,,,,,,,,,,,,,,,1098.9936,1098.9936,1098.9947,1100.4933,1,0,right,0.9735,,1100.4943,1101.3766,0,1,left,1101.3776,1102.6597,1,0,right,1,1102.6598,1102.6598,1102.6609,1104.1597,0,35,35,35,1,0.8,0.2,0.4,0.6,,,,,,,,,,,,,,,0.3581,,0.8,0.2,0.6,0.4,0.2,0.8,0.4,0.6,,,0.7552,,0.4,0.6,0.6,0.4,0.8,0.2,0.6,0.4,1,0
,,66dae86be0d77b33d6805623,66daf5bab92947885aefac0b,2024-09-06_14h30.40.497,mdp,2024.2.1,Win32,59.88023952,66d7945b1baad48e845df3ce,,,,,,,,,,,,,,,,,,,,,1104.1602,1104.1602,1104.1611,1105.1763,1,0,right,0.4961,,1105.1774,1106.4098,0,0,left,1106.4108,1107.7596,1,1,right,0,1107.7597,1107.7598,1107.7608,1109.2595,0,36,36,36,1,0.8,0.2,0.4,0.6,,,,,,,,,,,,,,,0.7048,,0.8,0.2,0.6,0.4,0.2,0.8,0.4,0.6,,,0.8233,,0.4,0.6,0.6,0.4,0.8,0.2,0.6,0.4,1,0
,,66dae86be0d77b33d6805623,66daf5bab92947885aefac0b,2024-09-06_14h30.40.497,mdp,2024.2.1,Win32,59.88023952,66d7945b1baad48e845df3ce,,,,,,,,,,,,,,,,,,,,,1109.26,1109.26,1109.2609,1110.1763,1,0,right,0.3897,,1110.1774,1111.2097,0,0,left,1111.2108,1112.1929,0,0,left,1,1112.1929,1112.1929,1112.1938,1113.6929,0,37,37,37,1,0.8,0.2,0.4,0.6,,,,,,,,,,,,,,,0.4967,,0.8,0.2,0.6,0.4,0.2,0.8,0.4,0.6,,,0.4623,,0.4,0.6,0.6,0.4,0.8,0.2,0.6,0.4,1,0
,,66dae86be0d77b33d6805623,66daf5bab92947885aefac0b,2024-09-06_14h30.40.497,mdp,2024.2.1,Win32,59.88023952,66d7945b1baad48e845df3ce,,,,,,,,,,,,,,,,,,,,,1113.6932,1113.6932,1113.6942,1114.8428,1,0,right,0.6291,,1114.8438,1115.8596,0,0,left,1115.8607,1116.7428,0,1,left,0,1116.7428,1116.7428,1116.7439,1118.2427,0,38,38,38,1,0.8,0.2,0.4,0.6,,,,,,,,,,,,,,,0.4858,,0.8,0.2,0.6,0.4,0.2,0.8,0.4,0.6,,,0.356,,0.4,0.6,0.6,0.4,0.8,0.2,0.6,0.4,1,0
,,66dae86be0d77b33d6805623,66daf5bab92947885aefac0b,2024-09-06_14h30.40.497,mdp,2024.2.1,Win32,59.88023952,66d7945b1baad48e845df3ce,,,,,,,,,,,,,,,,,,,,,1118.243,1118.2431,1118.2442,1119.4094,1,0,right,0.6459,,1119.4105,1120.6094,0,0,left,1120.6104,1121.8094,0,1,left,0,1121.8094,1121.8094,1121.8104,1123.3093,0,39,39,39,1,0.8,0.2,0.4,0.6,,,,,,,,,,,,,,,0.6958,,0.8,0.2,0.6,0.4,0.2,0.8,0.4,0.6,,,0.6738,,0.4,0.6,0.6,0.4,0.8,0.2,0.6,0.4,1,0
,,66dae86be0d77b33d6805623,66daf5bab92947885aefac0b,2024-09-06_14h30.40.497,mdp,2024.2.1,Win32,59.88023952,66d7945b1baad48e845df3ce,,,,,,,,,,,,,,,,,,,,,1123.3098,1123.3098,1123.3109,1124.7926,1,1,right,0.9513,,1124.7936,1126.8759,1,1,right,1126.8769,1127.9425,1,0,right,1,1127.9426,1127.9426,1127.9436,1129.4423,0,40,40,40,1,0.8,0.2,0.4,0.6,,,,,,,,,,,,,,,1.5554,,0.8,0.2,0.6,0.4,0.2,0.8,0.4,0.6,,,0.5399,,0.4,0.6,0.6,0.4,0.8,0.2,0.6,0.4,1,0
,,66dae86be0d77b33d6805623,66daf5bab92947885aefac0b,2024-09-06_14h30.40.497,mdp,2024.2.1,Win32,59.88023952,66d7945b1baad48e845df3ce,,,,,,,,,,,,,,,,,,,,,1129.4428,1129.4428,1129.4437,1130.5758,1,0,right,0.6041,,1130.5767,1131.9592,0,0,left,1131.9603,1133.5424,0,0,left,1,1133.5425,1133.5426,1133.5435,1135.0423,0,41,41,41,1,0.8,0.2,0.4,0.6,,,,,,,,,,,,,,,0.8543,,0.8,0.2,0.6,0.4,0.2,0.8,0.4,0.6,,,1.0495,,0.6,0.4,0.4,0.6,0.8,0.2,0.6,0.4,1,0
,,66dae86be0d77b33d6805623,66daf5bab92947885aefac0b,2024-09-06_14h30.40.497,mdp,2024.2.1,Win32,59.88023952,66d7945b1baad48e845df3ce,,,,,,,,,,,,,,,,,,,,,1135.0427,1135.0427,1135.0436,1136.159,1,0,right,0.5843,,1136.1605,1137.109,0,1,left,1137.1103,1138.4257,1,0,right,1,1138.4258,1138.4258,1138.4267,1139.9255,0,42,42,42,1,0.8,0.2,0.4,0.6,,,,,,,,,,,,,,,0.4205,,0.8,0.2,0.6,0.4,0.2,0.8,0.4,0.6,,,0.7834,,0.6,0.4,0.4,0.6,0.8,0.2,0.6,0.4,1,0
,,66dae86be0d77b33d6805623,66daf5bab92947885aefac0b,2024-09-06_14h30.40.497,mdp,2024.2.1,Win32,59.88023952,66d7945b1baad48e845df3ce,,,,,,,,,,,,,,,,,,,,,1139.926,1139.926,1139.9271,1141.1591,1,1,right,0.7008,,1141.1601,1142.8589,1,0,right,1142.86,1144.5423,1,0,right,1,1144.5423,1144.5423,1144.5432,1146.0421,0,43,43,43,1,0.8,0.2,0.4,0.6,,,,,,,,,,,,,,,1.16,,0.8,0.2,0.6,0.4,0.2,0.8,0.4,0.6,,,1.1436,,0.6,0.4,0.4,0.6,0.8,0.2,0.6,0.4,1,0
,,66dae86be0d77b33d6805623,66daf5bab92947885aefac0b,2024-09-06_14h30.40.497,mdp,2024.2.1,Win32,59.88023952,66d7945b1baad48e845df3ce,,,,,,,,,,,,,,,,,,,,,1146.0424,1146.0425,1146.0435,1147.7421,1,1,right,1.1723,,1147.7433,1149.1254,1,1,right,1149.1263,1150.3754,1,1,right,0,1150.3754,1150.3754,1150.3766,1151.8753,0,44,44,44,1,0.8,0.2,0.4,0.6,,,,,,,,,,,,,,,0.8642,,0.8,0.2,0.6,0.4,0.2,0.8,0.4,0.6,,,0.7199,,0.6,0.4,0.4,0.6,0.8,0.2,0.6,0.4,1,0
,,66dae86be0d77b33d6805623,66daf5bab92947885aefac0b,2024-09-06_14h30.40.497,mdp,2024.2.1,Win32,59.88023952,66d7945b1baad48e845df3ce,,,,,,,,,,,,,,,,,,,,,1151.8756,1151.8756,1151.8764,1153.1087,1,0,right,0.7056,,1153.1096,1154.8587,0,0,left,1154.8597,1156.3419,1,0,right,1,1156.3421,1156.3421,1156.3431,1157.8418,0,45,45,45,1,0.8,0.2,0.4,0.6,,,,,,,,,,,,,,,1.2244,,0.8,0.2,0.6,0.4,0.2,0.8,0.4,0.6,,,0.9489,,0.6,0.4,0.4,0.6,0.8,0.2,0.6,0.4,1,0
,,66dae86be0d77b33d6805623,66daf5bab92947885aefac0b,2024-09-06_14h30.40.497,mdp,2024.2.1,Win32,59.88023952,66d7945b1baad48e845df3ce,,,,,,,,,,,,,,,,,,,,,1157.8423,1157.8423,1157.8432,1159.6252,1,0,right,1.2612,,1159.6261,1161.1918,0,0,left,1161.1928,1162.675,0,0,left,1,1162.6752,1162.6752,1162.6764,1164.1751,0,46,46,46,1,0.8,0.2,0.4,0.6,,,,,,,,,,,,,,,1.0384,,0.8,0.2,0.6,0.4,0.2,0.8,0.4,0.6,,,0.9542,,0.6,0.4,0.4,0.6,0.8,0.2,0.6,0.4,1,0
,,66dae86be0d77b33d6805623,66daf5bab92947885aefac0b,2024-09-06_14h30.40.497,mdp,2024.2.1,Win32,59.88023952,66d7945b1baad48e845df3ce,,,,,,,,,,,,,,,,,,,,,1164.1755,1164.1755,1164.1765,1165.3419,1,0,right,0.6443,,1165.3429,1166.5416,0,0,left,1166.5426,1168.3084,0,1,left,0,1168.3085,1168.3085,1168.3095,1169.8082,0,47,47,47,1,0.8,0.2,0.4,0.6,,,,,,,,,,,,,,,0.6754,,0.8,0.2,0.6,0.4,0.2,0.8,0.4,0.6,,,1.2339,,0.6,0.4,0.4,0.6,0.8,0.2,0.6,0.4,1,0
,,66dae86be0d77b33d6805623,66daf5bab92947885aefac0b,2024-09-06_14h30.40.497,mdp,2024.2.1,Win32,59.88023952,66d7945b1baad48e845df3ce,,,,,,,,,,,,,,,,,,,,,1169.8087,1169.8087,1169.8097,1171.1751,1,1,right,0.8359,,1171.1761,1172.3416,1,1,right,1172.3425,1173.7915,1,1,right,0,1173.7916,1173.7916,1173.7925,1175.2913,0,48,48,48,1,0.8,0.2,0.4,0.6,,,,,,,,,,,,,,,0.6412,,0.8,0.2,0.6,0.4,0.8,0.2,0.2,0.8,,,0.9156,,0.6,0.4,0.4,0.6,0.8,0.2,0.6,0.4,1,0
,,66dae86be0d77b33d6805623,66daf5bab92947885aefac0b,2024-09-06_14h30.40.497,mdp,2024.2.1,Win32,59.88023952,66d7945b1baad48e845df3ce,,,,,,,,,,,,,,,,,,,,,1175.2917,1175.2917,1175.2926,1176.3913,1,0,right,0.573,,1176.3924,1177.6414,0,1,left,1177.6424,1179.8414,1,0,right,1,1179.8415,1179.8415,1179.8427,1181.3412,0,49,49,49,1,0.4,0.6,0.6,0.4,,,,,,,,,,,,,,,0.724,,0.8,0.2,0.6,0.4,0.8,0.2,0.2,0.8,,,1.67,,0.6,0.4,0.4,0.6,0.8,0.2,0.6,0.4,1,0
,,66dae86be0d77b33d6805623,66daf5bab92947885aefac0b,2024-09-06_14h30.40.497,mdp,2024.2.1,Win32,59.88023952,66d7945b1baad48e845df3ce,,,,,,,,,,,,,,,,,,,,,,,,,,,,,,,,,,,,,,,,,,,,,,,,,,,,,,,,1181.3414,1239.8567,0,3,3,4,1,imgs/goat.png,imgs/elephant.png,imgs/kangaroo.png,imgs/bear.png,imgs/lion.png,,,,,,,,,,,,,,,,,,,,,,,,
,,66dae86be0d77b33d6805623,66daf5bab92947885aefac0b,2024-09-06_14h30.40.497,mdp,2024.2.1,Win32,59.88023952,66d7945b1baad48e845df3ce,,,,,,,,,,,,,,1,seqs/st1seq35.csv,1239.8678,1243.9567,space,3.5705,,1243.9678,1243.9678,1243.9685,1248.1232,0,0,left,3.6259,,1248.1331,1248.1336,0,0,,1248.1342,1248.1344,1,0,,1,1248.1344,1248.1344,1248.1348,1249.6229,0,0,0,0,1,0.6,0.4,0.6,0.4,1,0,,,,,,,,,,,,,,,,,,,,,,,,,,,,,,,,,,,,
,,66dae86be0d77b33d6805623,66daf5bab92947885aefac0b,2024-09-06_14h30.40.497,mdp,2024.2.1,Win32,59.88023952,66d7945b1baad48e845df3ce,,,,,,,,,,,,,,,,,,,,,1249.6234,1249.6234,1249.6246,1251.0064,0,1,left,0.8539,,1251.0078,1251.0085,0,1,,1251.0091,1251.0094,1,1,,0,1251.0095,1251.0095,1251.0098,1252.5064,0,1,1,1,1,0.6,0.4,0.6,0.4,1,0,,,,,,,,,,,,,,,,,,,,,,,,,,,,,,,,,,,,
,,66dae86be0d77b33d6805623,66daf5bab92947885aefac0b,2024-09-06_14h30.40.497,mdp,2024.2.1,Win32,59.88023952,66d7945b1baad48e845df3ce,,,,,,,,,,,,,,,,,,,,,1252.5067,1252.5067,1252.5076,1253.5899,0,0,left,0.5566,,1253.5908,1253.5914,0,0,,1253.5919,1253.5923,1,1,,1,1253.5923,1253.5923,1253.5927,1255.0896,0,2,2,2,1,0.8,0.2,0.4,0.6,1,0,,,,,,,,,,,,,,,,,,,,,,,,,,,,,,,,,,,,
,,66dae86be0d77b33d6805623,66daf5bab92947885aefac0b,2024-09-06_14h30.40.497,mdp,2024.2.1,Win32,59.88023952,66d7945b1baad48e845df3ce,,,,,,,,,,,,,,,,,,,,,1255.0899,1255.0899,1255.0908,1255.9231,1,0,right,0.3004,,1255.9241,1255.9248,0,1,,1255.9254,1255.9256,1,0,,1,1255.9257,1255.9257,1255.926,1257.4229,0,3,3,3,1,0.8,0.2,0.4,0.6,1,0,,,,,,,,,,,,,,,,,,,,,,,,,,,,,,,,,,,,
,,66dae86be0d77b33d6805623,66daf5bab92947885aefac0b,2024-09-06_14h30.40.497,mdp,2024.2.1,Win32,59.88023952,66d7945b1baad48e845df3ce,,,,,,,,,,,,,,,,,,,,,1257.4232,1257.4232,1257.4242,1258.3563,0,0,left,0.4071,,1258.3571,1258.3577,0,0,,1258.3583,1258.3587,1,0,,1,1258.3587,1258.3587,1258.359,1259.8563,0,4,4,4,1,0.8,0.2,0.4,0.6,1,0,,,,,,,,,,,,,,,,,,,,,,,,,,,,,,,,,,,,
,,66dae86be0d77b33d6805623,66daf5bab92947885aefac0b,2024-09-06_14h30.40.497,mdp,2024.2.1,Win32,59.88023952,66d7945b1baad48e845df3ce,,,,,,,,,,,,,,,,,,,,,1259.8566,1259.8567,1259.8577,1260.6563,1,0,right,0.2665,,1260.6573,1260.6579,0,1,,1260.6585,1260.6588,1,0,,1,1260.6589,1260.6589,1260.6592,1262.1562,0,5,5,5,1,0.8,0.2,0.4,0.6,1,0,,,,,,,,,,,,,,,,,,,,,,,,,,,,,,,,,,,,
,,66dae86be0d77b33d6805623,66daf5bab92947885aefac0b,2024-09-06_14h30.40.497,mdp,2024.2.1,Win32,59.88023952,66d7945b1baad48e845df3ce,,,,,,,,,,,,,,,,,,,,,1262.1565,1262.1565,1262.1576,1263.0063,0,1,left,0.3184,,1263.0082,1263.0088,0,0,,1263.0093,1263.0097,1,1,,0,1263.0097,1263.0097,1263.0102,1264.506,0,6,6,6,1,0.8,0.2,0.4,0.6,1,0,,,,,,,,,,,,,,,,,,,,,,,,,,,,,,,,,,,,
,,66dae86be0d77b33d6805623,66daf5bab92947885aefac0b,2024-09-06_14h30.40.497,mdp,2024.2.1,Win32,59.88023952,66d7945b1baad48e845df3ce,,,,,,,,,,,,,,,,,,,,,1264.5064,1264.5065,1264.5078,1265.3561,0,0,left,0.3255,,1265.3573,1265.358,0,0,,1265.3585,1265.3589,1,1,,1,1265.3589,1265.3589,1265.3592,1266.8561,0,7,7,7,1,0.8,0.2,0.4,0.6,1,0,,,,,,,,,,,,,,,,,,,,,,,,,,,,,,,,,,,,
,,66dae86be0d77b33d6805623,66daf5bab92947885aefac0b,2024-09-06_14h30.40.497,mdp,2024.2.1,Win32,59.88023952,66d7945b1baad48e845df3ce,,,,,,,,,,,,,,,,,,,,,1266.8565,1266.8565,1266.8576,1267.723,0,1,left,0.3286,,1267.7241,1267.7247,0,1,,1267.7252,1267.7255,1,0,,0,1267.7255,1267.7256,1267.7259,1269.2225,0,8,8,8,1,0.8,0.2,0.4,0.6,1,0,,,,,,,,,,,,,,,,,,,,,,,,,,,,,,,,,,,,
,,66dae86be0d77b33d6805623,66daf5bab92947885aefac0b,2024-09-06_14h30.40.497,mdp,2024.2.1,Win32,59.88023952,66d7945b1baad48e845df3ce,,,,,,,,,,,,,,,,,,,,,1269.2229,1269.2229,1269.2238,1270.4226,0,0,left,0.6801,,1270.4237,1270.4243,0,0,,1270.4249,1270.4253,1,0,,1,1270.4253,1270.4253,1270.4258,1271.9225,0,9,9,9,1,0.8,0.2,0.4,0.6,1,0,,,,,,,,,,,,,,,,,,,,,,,,,,,,,,,,,,,,
,,66dae86be0d77b33d6805623,66daf5bab92947885aefac0b,2024-09-06_14h30.40.497,mdp,2024.2.1,Win32,59.88023952,66d7945b1baad48e845df3ce,,,,,,,,,,,,,,,,,,,,,1271.9228,1271.9229,1271.9238,1272.7393,1,1,right,0.2949,,1272.7403,1272.7409,0,0,,1272.7415,1272.7418,1,0,,0,1272.7418,1272.7418,1272.7422,1274.2391,0,10,10,10,1,0.8,0.2,0.4,0.6,1,0,,,,,,,,,,,,,,,,,,,,,,,,,,,,,,,,,,,,
,,66dae86be0d77b33d6805623,66daf5bab92947885aefac0b,2024-09-06_14h30.40.497,mdp,2024.2.1,Win32,59.88023952,66d7945b1baad48e845df3ce,,,,,,,,,,,,,,,,,,,,,1274.2395,1274.2395,1274.2407,1275.1058,1,0,right,0.3363,,1275.1073,1275.1079,0,1,,1275.1085,1275.1089,1,1,,1,1275.1089,1275.1089,1275.1092,1276.6057,0,11,11,11,1,0.8,0.2,0.4,0.6,1,0,,,,,,,,,,,,,,,,,,,,,,,,,,,,,,,,,,,,
,,66dae86be0d77b33d6805623,66daf5bab92947885aefac0b,2024-09-06_14h30.40.497,mdp,2024.2.1,Win32,59.88023952,66d7945b1baad48e845df3ce,,,,,,,,,,,,,,,,,,,,,1276.606,1276.606,1276.6068,1277.4893,1,0,right,0.3621,,1277.4902,1277.4908,0,0,,1277.4913,1277.4917,1,0,,1,1277.4917,1277.4917,1277.492,1278.9891,0,12,12,12,1,0.4,0.6,0.8,0.2,1,0,,,,,,,,,,,,,,,,,,,,,,,,,,,,,,,,,,,,
,,66dae86be0d77b33d6805623,66daf5bab92947885aefac0b,2024-09-06_14h30.40.497,mdp,2024.2.1,Win32,59.88023952,66d7945b1baad48e845df3ce,,,,,,,,,,,,,,,,,,,,,1278.9895,1278.9895,1278.9905,1279.8391,0,0,left,0.3234,,1279.8401,1279.8407,0,1,,1279.8413,1279.8417,1,1,,1,1279.8417,1279.8417,1279.842,1281.339,0,13,13,13,1,0.4,0.6,0.8,0.2,1,0,,,,,,,,,,,,,,,,,,,,,,,,,,,,,,,,,,,,
,,66dae86be0d77b33d6805623,66daf5bab92947885aefac0b,2024-09-06_14h30.40.497,mdp,2024.2.1,Win32,59.88023952,66d7945b1baad48e845df3ce,,,,,,,,,,,,,,,,,,,,,1281.3392,1281.3393,1281.3401,1282.1558,0,0,left,0.2853,,1282.1569,1282.1575,0,0,,1282.1581,1282.1584,1,0,,1,1282.1584,1282.1584,1282.1588,1283.6556,0,14,14,14,1,0.6,0.4,0.4,0.6,1,0,,,,,,,,,,,,,,,,,,,,,,,,,,,,,,,,,,,,
,,66dae86be0d77b33d6805623,66daf5bab92947885aefac0b,2024-09-06_14h30.40.497,mdp,2024.2.1,Win32,59.88023952,66d7945b1baad48e845df3ce,,,,,,,,,,,,,,,,,,,,,1283.6559,1283.6562,1283.6573,1284.4892,1,1,right,0.2998,,1284.4905,1284.4912,0,1,,1284.4918,1284.4922,1,1,,0,1284.4922,1284.4922,1284.4925,1285.9888,0,15,15,15,1,0.6,0.4,0.4,0.6,1,0,,,,,,,,,,,,,,,,,,,,,,,,,,,,,,,,,,,,
,,66dae86be0d77b33d6805623,66daf5bab92947885aefac0b,2024-09-06_14h30.40.497,mdp,2024.2.1,Win32,59.88023952,66d7945b1baad48e845df3ce,,,,,,,,,,,,,,,,,,,,,1285.9892,1285.9892,1285.9901,1287.0056,1,0,right,0.4832,,1287.0067,1287.0075,0,1,,1287.008,1287.0084,1,0,,1,1287.0084,1287.0084,1287.0087,1288.5066,0,16,16,16,1,0.6,0.4,0.4,0.6,1,0,,,,,,,,,,,,,,,,,,,,,,,,,,,,,,,,,,,,
,,66dae86be0d77b33d6805623,66daf5bab92947885aefac0b,2024-09-06_14h30.40.497,mdp,2024.2.1,Win32,59.88023952,66d7945b1baad48e845df3ce,,,,,,,,,,,,,,,,,,,,,1288.507,1288.507,1288.5079,1289.339,1,1,right,0.3025,,1289.34,1289.3406,0,1,,1289.3412,1289.3414,1,1,,0,1289.3415,1289.3415,1289.3418,1290.8389,0,17,17,17,1,0.6,0.4,0.4,0.6,1,0,,,,,,,,,,,,,,,,,,,,,,,,,,,,,,,,,,,,
,,66dae86be0d77b33d6805623,66daf5bab92947885aefac0b,2024-09-06_14h30.40.497,mdp,2024.2.1,Win32,59.88023952,66d7945b1baad48e845df3ce,,,,,,,,,,,,,,,,,,,,,1290.8392,1290.8392,1290.8403,1292.3722,0,1,left,1.0027,,1292.3733,1292.374,0,0,,1292.3745,1292.3748,1,1,,0,1292.3748,1292.3748,1292.3751,1293.872,0,18,18,18,1,0.4,0.6,0.8,0.2,1,0,,,,,,,,,,,,,,,,,,,,,,,,,,,,,,,,,,,,
,,66dae86be0d77b33d6805623,66daf5bab92947885aefac0b,2024-09-06_14h30.40.497,mdp,2024.2.1,Win32,59.88023952,66d7945b1baad48e845df3ce,,,,,,,,,,,,,,,,,,,,,1293.8724,1293.8725,1293.8733,1294.9389,1,1,right,0.5374,,1294.94,1294.9406,0,1,,1294.9413,1294.9417,1,0,,0,1294.9418,1294.9418,1294.9422,1296.4388,0,19,19,19,1,0.4,0.6,0.8,0.2,1,0,,,,,,,,,,,,,,,,,,,,,,,,,,,,,,,,,,,,
,,66dae86be0d77b33d6805623,66daf5bab92947885aefac0b,2024-09-06_14h30.40.497,mdp,2024.2.1,Win32,59.88023952,66d7945b1baad48e845df3ce,,,,,,,,,,,,,,,,,,,,,1296.4392,1296.4392,1296.4402,1297.5222,1,0,right,0.5467,,1297.5232,1297.5238,0,0,,1297.5243,1297.5246,1,0,,1,1297.5247,1297.5247,1297.525,1299.022,0,20,20,20,1,0.4,0.6,0.8,0.2,1,0,,,,,,,,,,,,,,,,,,,,,,,,,,,,,,,,,,,,
,,66dae86be0d77b33d6805623,66daf5bab92947885aefac0b,2024-09-06_14h30.40.497,mdp,2024.2.1,Win32,59.88023952,66d7945b1baad48e845df3ce,,,,,,,,,,,,,,,,,,,,,1299.0224,1299.0224,1299.0232,1300.0054,0,0,left,0.4566,,1300.0066,1300.0073,0,1,,1300.0078,1300.0081,1,1,,1,1300.0081,1300.0082,1300.0085,1301.5053,0,21,21,21,1,0.4,0.6,0.8,0.2,1,0,,,,,,,,,,,,,,,,,,,,,,,,,,,,,,,,,,,,
,,66dae86be0d77b33d6805623,66daf5bab92947885aefac0b,2024-09-06_14h30.40.497,mdp,2024.2.1,Win32,59.88023952,66d7945b1baad48e845df3ce,,,,,,,,,,,,,,,,,,,,,1301.5056,1301.5057,1301.5064,1302.422,0,0,left,0.3854,,1302.423,1302.4236,0,0,,1302.4241,1302.4245,1,1,,1,1302.4245,1302.4245,1302.4248,1303.9217,0,22,22,22,1,0.4,0.6,0.8,0.2,1,0,,,,,,,,,,,,,,,,,,,,,,,,,,,,,,,,,,,,
,,66dae86be0d77b33d6805623,66daf5bab92947885aefac0b,2024-09-06_14h30.40.497,mdp,2024.2.1,Win32,59.88023952,66d7945b1baad48e845df3ce,,,,,,,,,,,,,,,,,,,,,1303.9221,1303.9222,1303.923,1304.7719,1,0,right,0.3287,,1304.7728,1304.7735,0,0,,1304.7742,1304.7746,1,0,,1,1304.7747,1304.7747,1304.7752,1306.2718,0,23,23,23,1,0.8,0.2,0.2,0.8,1,0,,,,,,,,,,,,,,,,,,,,,,,,,,,,,,,,,,,,
,,66dae86be0d77b33d6805623,66daf5bab92947885aefac0b,2024-09-06_14h30.40.497,mdp,2024.2.1,Win32,59.88023952,66d7945b1baad48e845df3ce,,,,,,,,,,,,,,,,,,,,,1306.2724,1306.2724,1306.2732,1307.0551,1,0,right,0.2582,,1307.0561,1307.0569,0,1,,1307.0576,1307.0581,1,1,,1,1307.0581,1307.0581,1307.0584,1308.5552,0,24,24,24,1,0.8,0.2,0.2,0.8,1,0,,,,,,,,,,,,,,,,,,,,,,,,,,,,,,,,,,,,
,,66dae86be0d77b33d6805623,66daf5bab92947885aefac0b,2024-09-06_14h30.40.497,mdp,2024.2.1,Win32,59.88023952,66d7945b1baad48e845df3ce,,,,,,,,,,,,,,,,,,,,,1308.5556,1308.5556,1308.5566,1309.2884,0,0,left,0.205,,1309.2895,1309.2902,0,0,,1309.2909,1309.2915,1,1,,1,1309.2915,1309.2915,1309.292,1310.7885,0,25,25,25,1,0.8,0.2,0.2,0.8,1,0,,,,,,,,,,,,,,,,,,,,,,,,,,,,,,,,,,,,
,,66dae86be0d77b33d6805623,66daf5bab92947885aefac0b,2024-09-06_14h30.40.497,mdp,2024.2.1,Win32,59.88023952,66d7945b1baad48e845df3ce,,,,,,,,,,,,,,,,,,,,,1310.7889,1310.7889,1310.7899,1311.4385,0,0,left,0.1162,,1311.4395,1311.4402,0,0,,1311.4407,1311.4411,1,0,,1,1311.4412,1311.4412,1311.4415,1312.9384,0,26,26,26,1,0.8,0.2,0.2,0.8,1,0,,,,,,,,,,,,,,,,,,,,,,,,,,,,,,,,,,,,
,,66dae86be0d77b33d6805623,66daf5bab92947885aefac0b,2024-09-06_14h30.40.497,mdp,2024.2.1,Win32,59.88023952,66d7945b1baad48e845df3ce,,,,,,,,,,,,,,,,,,,,,1312.9388,1312.9388,1312.9397,1313.8884,1,0,right,0.4224,,1313.8894,1313.8899,0,1,,1313.8905,1313.891,1,1,,1,1313.891,1313.8911,1313.8914,1315.3883,0,27,27,27,1,0.6,0.4,0.4,0.6,1,0,,,,,,,,,,,,,,,,,,,,,,,,,,,,,,,,,,,,
,,66dae86be0d77b33d6805623,66daf5bab92947885aefac0b,2024-09-06_14h30.40.497,mdp,2024.2.1,Win32,59.88023952,66d7945b1baad48e845df3ce,,,,,,,,,,,,,,,,,,,,,1315.3886,1315.3886,1315.3896,1316.255,1,1,right,0.3421,,1316.2563,1316.2569,0,1,,1316.2574,1316.2577,1,1,,0,1316.2577,1316.2577,1316.258,1317.7547,0,28,28,28,1,0.6,0.4,0.4,0.6,1,0,,,,,,,,,,,,,,,,,,,,,,,,,,,,,,,,,,,,
,,66dae86be0d77b33d6805623,66daf5bab92947885aefac0b,2024-09-06_14h30.40.497,mdp,2024.2.1,Win32,59.88023952,66d7945b1baad48e845df3ce,,,,,,,,,,,,,,,,,,,,,1317.7551,1317.7551,1317.7561,1319.5216,1,0,right,1.2343,,1319.5225,1319.5231,0,1,,1319.5237,1319.5241,1,0,,1,1319.5241,1319.5241,1319.5245,1321.0215,0,29,29,29,1,0.6,0.4,0.4,0.6,1,0,,,,,,,,,,,,,,,,,,,,,,,,,,,,,,,,,,,,
,,66dae86be0d77b33d6805623,66daf5bab92947885aefac0b,2024-09-06_14h30.40.497,mdp,2024.2.1,Win32,59.88023952,66d7945b1baad48e845df3ce,,,,,,,,,,,,,,,,,,,,,1321.0218,1321.0218,1321.0229,1322.0215,0,1,left,0.4776,,1322.0226,1322.0232,0,0,,1322.0238,1322.0242,1,0,,0,1322.0243,1322.0243,1322.0248,1323.5215,0,30,30,30,1,0.8,0.2,0.8,0.2,1,0,,,,,,,,,,,,,,,,,,,,,,,,,,,,,,,,,,,,
,,66dae86be0d77b33d6805623,66daf5bab92947885aefac0b,2024-09-06_14h30.40.497,mdp,2024.2.1,Win32,59.88023952,66d7945b1baad48e845df3ce,,,,,,,,,,,,,,,,,,,,,1323.5218,1323.5218,1323.5228,1325.0714,0,1,left,1.0222,,1325.0723,1325.0729,0,1,,1325.0736,1325.074,1,0,,0,1325.0741,1325.0741,1325.0744,1326.5714,0,31,31,31,1,0.6,0.4,0.2,0.8,1,0,,,,,,,,,,,,,,,,,,,,,,,,,,,,,,,,,,,,
,,66dae86be0d77b33d6805623,66daf5bab92947885aefac0b,2024-09-06_14h30.40.497,mdp,2024.2.1,Win32,59.88023952,66d7945b1baad48e845df3ce,,,,,,,,,,,,,,,,,,,,,1326.5718,1326.5719,1326.5729,1327.5049,0,1,left,0.3964,,1327.506,1327.5068,0,1,,1327.5073,1327.5076,1,1,,0,1327.5077,1327.5077,1327.508,1329.0046,0,32,32,32,1,0.6,0.4,0.2,0.8,1,0,,,,,,,,,,,,,,,,,,,,,,,,,,,,,,,,,,,,
,,66dae86be0d77b33d6805623,66daf5bab92947885aefac0b,2024-09-06_14h30.40.497,mdp,2024.2.1,Win32,59.88023952,66d7945b1baad48e845df3ce,,,,,,,,,,,,,,,,,,,,,1329.005,1329.005,1329.006,1330.338,0,0,left,0.8133,,1330.3391,1330.3397,0,0,,1330.3402,1330.3406,1,0,,1,1330.3406,1330.3406,1330.3409,1331.8379,0,33,33,33,1,0.6,0.4,0.2,0.8,1,0,,,,,,,,,,,,,,,,,,,,,,,,,,,,,,,,,,,,
,,66dae86be0d77b33d6805623,66daf5bab92947885aefac0b,2024-09-06_14h30.40.497,mdp,2024.2.1,Win32,59.88023952,66d7945b1baad48e845df3ce,,,,,,,,,,,,,,,,,,,,,1331.8381,1331.8381,1331.8392,1332.7546,0,1,left,0.3842,,1332.7556,1332.7561,0,0,,1332.7568,1332.7573,1,0,,0,1332.7573,1332.7573,1332.7577,1334.2545,0,34,34,34,1,0.6,0.4,0.2,0.8,1,0,,,,,,,,,,,,,,,,,,,,,,,,,,,,,,,,,,,,
,,66dae86be0d77b33d6805623,66daf5bab92947885aefac0b,2024-09-06_14h30.40.497,mdp,2024.2.1,Win32,59.88023952,66d7945b1baad48e845df3ce,,,,,,,,,,,,,,,,,,,,,1334.2548,1334.2548,1334.2558,1335.3879,0,0,left,0.6035,,1335.3889,1335.3896,0,1,,1335.3903,1335.3906,1,0,,1,1335.3906,1335.3906,1335.3909,1336.8877,0,35,35,35,1,0.6,0.4,0.2,0.8,1,0,,,,,,,,,,,,,,,,,,,,,,,,,,,,,,,,,,,,
,,66dae86be0d77b33d6805623,66daf5bab92947885aefac0b,2024-09-06_14h30.40.497,mdp,2024.2.1,Win32,59.88023952,66d7945b1baad48e845df3ce,,,,,,,,,,,,,,,,,,,,,1336.8881,1336.8881,1336.889,1337.7211,1,0,right,0.3094,,1337.7221,1337.7227,0,0,,1337.7232,1337.7235,1,1,,1,1337.7236,1337.7236,1337.724,1339.2211,0,36,36,36,1,0.8,0.2,0.6,0.4,1,0,,,,,,,,,,,,,,,,,,,,,,,,,,,,,,,,,,,,
,,66dae86be0d77b33d6805623,66daf5bab92947885aefac0b,2024-09-06_14h30.40.497,mdp,2024.2.1,Win32,59.88023952,66d7945b1baad48e845df3ce,,,,,,,,,,,,,,,,,,,,,1339.2214,1339.2214,1339.2223,1340.2544,0,0,left,0.506,,1340.2555,1340.2563,0,0,,1340.257,1340.2576,1,0,,1,1340.2576,1340.2576,1340.258,1341.7541,0,37,37,37,1,0.8,0.2,0.6,0.4,1,0,,,,,,,,,,,,,,,,,,,,,,,,,,,,,,,,,,,,
,,66dae86be0d77b33d6805623,66daf5bab92947885aefac0b,2024-09-06_14h30.40.497,mdp,2024.2.1,Win32,59.88023952,66d7945b1baad48e845df3ce,,,,,,,,,,,,,,,,,,,,,1341.7546,1341.7546,1341.7555,1343.0544,0,1,left,0.7794,,1343.0554,1343.0561,0,0,,1343.0567,1343.0571,1,1,,0,1343.0571,1343.0571,1343.0574,1344.5542,0,38,38,38,1,0.2,0.8,0.8,0.2,1,0,,,,,,,,,,,,,,,,,,,,,,,,,,,,,,,,,,,,
,,66dae86be0d77b33d6805623,66daf5bab92947885aefac0b,2024-09-06_14h30.40.497,mdp,2024.2.1,Win32,59.88023952,66d7945b1baad48e845df3ce,,,,,,,,,,,,,,,,,,,,,1344.5546,1344.5546,1344.5554,1345.4209,0,0,left,0.3398,,1345.422,1345.4227,0,1,,1345.4232,1345.4235,1,1,,1,1345.4235,1345.4235,1345.4238,1346.9208,0,39,39,39,1,0.2,0.8,0.8,0.2,1,0,,,,,,,,,,,,,,,,,,,,,,,,,,,,,,,,,,,,
,,66dae86be0d77b33d6805623,66daf5bab92947885aefac0b,2024-09-06_14h30.40.497,mdp,2024.2.1,Win32,59.88023952,66d7945b1baad48e845df3ce,,,,,,,,,,,,,,,,,,,,,1346.9212,1346.9212,1346.9222,1347.921,1,1,right,0.4618,,1347.922,1347.9227,0,1,,1347.9233,1347.9239,1,1,,0,1347.9239,1347.9239,1347.9242,1349.4209,0,40,40,40,1,0.2,0.8,0.8,0.2,1,0,,,,,,,,,,,,,,,,,,,,,,,,,,,,,,,,,,,,
