init_exp.started,init_exp.stopped,participant,session,date,expName,psychopyVersion,OS,frameRate,study_id,disp_instruction.started,disp_instruction.stopped,instruction.thisRepN,instruction.thisTrialN,instruction.thisN,instruction.thisIndex,instruction.ran,instimg_path,consent.started,consent.stopped,key_resp_3.keys,key_resp_3.rt,key_resp_3.duration,n_steps,sequence_path,init_block.started,init_block.stopped,key_resp.keys,key_resp.rt,key_resp.duration,init_trials.started,init_trials.stopped,step0.started,step0.stopped,act0,s1,res0.keys,res0.rt,res0.duration,step1.started,step1.stopped,act1,s2,res1.keys,step2.started,step2.stopped,act2,s3,res2.keys,rew,reward_comp.started,reward_comp.stopped,reward_disp.started,reward_disp.stopped,trials.thisRepN,trials.thisTrialN,trials.thisN,trials.thisIndex,trials.ran,s00a0s10,s00a0s11,s00a1s10,s00a1s11,rew10,rew11,break_block.started,break_block.stopped,block.thisRepN,block.thisTrialN,block.thisN,block.thisIndex,block.ran,s00path,s10path,s11path,s20path,s21path,res1.rt,res1.duration,s10a0s20,s10a0s21,s10a1s20,s10a1s21,s11a0s20,s11a0s21,s11a1s20,s11a1s21,rew20,rew21,res2.rt,res2.duration,s20a0s30,s20a0s31,s20a1s30,s20a1s31,s21a0s30,s21a0s31,s21a1s30,s21a1s31,rew30,rew31
0.0002,0.0009,66daf1642fab82cb5a1df01b,66dafa10abf8c672cf55adbe,2024-09-06_15h06.44.113,mdp,2024.2.1,Win32,60.24096386,66d7945b1baad48e845df3ce,,,,,,,,,,,,,,,,,,,,,,,,,,,,,,,,,,,,,,,,,,,,,,,,,,,,,,,,,,,,,,,,,,,,,,,,,,,,,,,,,,,,,,,,,,,
,,66daf1642fab82cb5a1df01b,66dafa10abf8c672cf55adbe,2024-09-06_15h06.44.113,mdp,2024.2.1,Win32,60.24096386,66d7945b1baad48e845df3ce,0.0033,20.7281,0,0,0,0,1,rlnn_exp/rlnn_exp.001.png,,,,,,,,,,,,,,,,,,,,,,,,,,,,,,,,,,,,,,,,,,,,,,,,,,,,,,,,,,,,,,,,,,,,,,,,,,,,,,,,,,,
,,66daf1642fab82cb5a1df01b,66dafa10abf8c672cf55adbe,2024-09-06_15h06.44.113,mdp,2024.2.1,Win32,60.24096386,66d7945b1baad48e845df3ce,20.7284,31.3945,0,1,1,1,1,rlnn_exp/rlnn_exp.002.png,,,,,,,,,,,,,,,,,,,,,,,,,,,,,,,,,,,,,,,,,,,,,,,,,,,,,,,,,,,,,,,,,,,,,,,,,,,,,,,,,,,
,,66daf1642fab82cb5a1df01b,66dafa10abf8c672cf55adbe,2024-09-06_15h06.44.113,mdp,2024.2.1,Win32,60.24096386,66d7945b1baad48e845df3ce,31.3948,42.4112,0,2,2,2,1,rlnn_exp/rlnn_exp.003.png,,,,,,,,,,,,,,,,,,,,,,,,,,,,,,,,,,,,,,,,,,,,,,,,,,,,,,,,,,,,,,,,,,,,,,,,,,,,,,,,,,,
,,66daf1642fab82cb5a1df01b,66dafa10abf8c672cf55adbe,2024-09-06_15h06.44.113,mdp,2024.2.1,Win32,60.24096386,66d7945b1baad48e845df3ce,42.4116,65.1278,0,3,3,3,1,rlnn_exp/rlnn_exp.004.png,,,,,,,,,,,,,,,,,,,,,,,,,,,,,,,,,,,,,,,,,,,,,,,,,,,,,,,,,,,,,,,,,,,,,,,,,,,,,,,,,,,
,,66daf1642fab82cb5a1df01b,66dafa10abf8c672cf55adbe,2024-09-06_15h06.44.113,mdp,2024.2.1,Win32,60.24096386,66d7945b1baad48e845df3ce,,,,,,,,,65.1336,75.6777,y,0.5046,,,,,,,,,,,,,,,,,,,,,,,,,,,,,,,,,,,,,,,,,,,,,,,,,,,,,,,,,,,,,,,,,,,,,,,,,,,,,,,
,,66daf1642fab82cb5a1df01b,66dafa10abf8c672cf55adbe,2024-09-06_15h06.44.113,mdp,2024.2.1,Win32,60.24096386,66d7945b1baad48e845df3ce,,,,,,,,,,,,,,1,seqs/st1seq15.csv,75.6809,77.5611,space,1.3603,,77.5629,77.563,77.5631,78.9611,0,1,left,0.851,,78.9614,78.9622,,1,,78.9624,78.9631,,1,,0,78.9632,78.9632,78.9634,80.461,0,0,0,0,1,0.2,0.8,0.8,0.2,1,0,,,,,,,,,,,,,,,,,,,,,,,,,,,,,,,,,,,,
,,66daf1642fab82cb5a1df01b,66dafa10abf8c672cf55adbe,2024-09-06_15h06.44.113,mdp,2024.2.1,Win32,60.24096386,66d7945b1baad48e845df3ce,,,,,,,,,,,,,,,,,,,,,80.4613,80.4613,80.4619,82.2609,0,1,left,1.2726,,82.2615,82.262,,1,,82.2623,82.2626,,1,,0,82.2626,82.2626,82.2629,83.761,0,1,1,1,1,0.2,0.8,0.8,0.2,1,0,,,,,,,,,,,,,,,,,,,,,,,,,,,,,,,,,,,,
,,66daf1642fab82cb5a1df01b,66dafa10abf8c672cf55adbe,2024-09-06_15h06.44.113,mdp,2024.2.1,Win32,60.24096386,66d7945b1baad48e845df3ce,,,,,,,,,,,,,,,,,,,,,83.7611,83.7611,83.762,84.8611,1,0,right,0.5726,,84.8616,84.8621,,0,,84.8625,84.8628,,0,,1,84.8628,84.8628,84.863,86.361,0,2,2,2,1,0.2,0.8,0.8,0.2,1,0,,,,,,,,,,,,,,,,,,,,,,,,,,,,,,,,,,,,
,,66daf1642fab82cb5a1df01b,66dafa10abf8c672cf55adbe,2024-09-06_15h06.44.113,mdp,2024.2.1,Win32,60.24096386,66d7945b1baad48e845df3ce,,,,,,,,,,,,,,,,,,,,,86.3613,86.3613,86.3619,88.0276,1,0,right,1.1334,,88.0282,88.0286,,0,,88.0289,88.0291,,0,,1,88.0291,88.0291,88.0294,89.5277,0,3,3,3,1,0.2,0.8,0.8,0.2,1,0,,,,,,,,,,,,,,,,,,,,,,,,,,,,,,,,,,,,
,,66daf1642fab82cb5a1df01b,66dafa10abf8c672cf55adbe,2024-09-06_15h06.44.113,mdp,2024.2.1,Win32,60.24096386,66d7945b1baad48e845df3ce,,,,,,,,,,,,,,,,,,,,,89.5279,89.5279,89.5286,90.6276,1,0,right,0.5736,,90.6283,90.6287,,0,,90.629,90.6294,,0,,1,90.6294,90.6294,90.6296,92.1276,0,4,4,4,1,0.2,0.8,0.8,0.2,1,0,,,,,,,,,,,,,,,,,,,,,,,,,,,,,,,,,,,,
,,66daf1642fab82cb5a1df01b,66dafa10abf8c672cf55adbe,2024-09-06_15h06.44.113,mdp,2024.2.1,Win32,60.24096386,66d7945b1baad48e845df3ce,,,,,,,,,,,,,,,,,,,,,92.1279,92.1279,92.1286,93.0277,1,0,right,0.3654,,93.0283,93.0288,,0,,93.029,93.0293,,1,,1,93.0293,93.0293,93.0294,94.5276,0,5,5,5,1,0.2,0.8,0.8,0.2,1,0,,,,,,,,,,,,,,,,,,,,,,,,,,,,,,,,,,,,
,,66daf1642fab82cb5a1df01b,66dafa10abf8c672cf55adbe,2024-09-06_15h06.44.113,mdp,2024.2.1,Win32,60.24096386,66d7945b1baad48e845df3ce,,,,,,,,,,,,,,,,,,,,,94.5279,94.5279,94.5285,95.5277,1,0,right,0.4697,,95.5282,95.5286,,0,,95.5289,95.5291,,0,,1,95.5291,95.5291,95.5294,97.0277,0,6,6,6,1,0.2,0.8,0.8,0.2,1,0,,,,,,,,,,,,,,,,,,,,,,,,,,,,,,,,,,,,
,,66daf1642fab82cb5a1df01b,66dafa10abf8c672cf55adbe,2024-09-06_15h06.44.113,mdp,2024.2.1,Win32,60.24096386,66d7945b1baad48e845df3ce,,,,,,,,,,,,,,,,,,,,,97.0279,97.028,97.0286,98.0609,1,0,right,0.5065,,98.0615,98.0619,,0,,98.0622,98.0625,,0,,1,98.0625,98.0625,98.0626,99.561,0,7,7,7,1,0.2,0.8,0.8,0.2,1,0,,,,,,,,,,,,,,,,,,,,,,,,,,,,,,,,,,,,
,,66daf1642fab82cb5a1df01b,66dafa10abf8c672cf55adbe,2024-09-06_15h06.44.113,mdp,2024.2.1,Win32,60.24096386,66d7945b1baad48e845df3ce,,,,,,,,,,,,,,,,,,,,,99.5611,99.5611,99.5616,100.911,1,0,right,0.8207,,100.9118,100.9124,,0,,100.9129,100.9133,,0,,1,100.9133,100.9133,100.9137,102.411,0,8,8,8,1,0.2,0.8,0.8,0.2,1,0,,,,,,,,,,,,,,,,,,,,,,,,,,,,,,,,,,,,
,,66daf1642fab82cb5a1df01b,66dafa10abf8c672cf55adbe,2024-09-06_15h06.44.113,mdp,2024.2.1,Win32,60.24096386,66d7945b1baad48e845df3ce,,,,,,,,,,,,,,,,,,,,,102.4112,102.4113,102.4119,103.6111,1,0,right,0.6668,,103.6116,103.612,,0,,103.6125,103.6127,,0,,1,103.6128,103.6128,103.613,105.111,0,9,9,9,1,0.2,0.8,0.8,0.2,1,0,,,,,,,,,,,,,,,,,,,,,,,,,,,,,,,,,,,,
,,66daf1642fab82cb5a1df01b,66dafa10abf8c672cf55adbe,2024-09-06_15h06.44.113,mdp,2024.2.1,Win32,60.24096386,66d7945b1baad48e845df3ce,,,,,,,,,,,,,,,,,,,,,105.1112,105.1112,105.1117,106.6609,1,1,right,1.0168,,106.6614,106.6619,,0,,106.6622,106.6624,,1,,0,106.6624,106.6625,106.6627,108.161,0,10,10,10,1,0.4,0.6,0.6,0.4,1,0,,,,,,,,,,,,,,,,,,,,,,,,,,,,,,,,,,,,
,,66daf1642fab82cb5a1df01b,66dafa10abf8c672cf55adbe,2024-09-06_15h06.44.113,mdp,2024.2.1,Win32,60.24096386,66d7945b1baad48e845df3ce,,,,,,,,,,,,,,,,,,,,,108.1611,108.1611,108.1617,109.1608,0,1,left,0.4757,,109.1613,109.1618,,0,,109.1622,109.1625,,1,,0,109.1625,109.1625,109.1627,110.6609,0,11,11,11,1,0.4,0.6,0.6,0.4,1,0,,,,,,,,,,,,,,,,,,,,,,,,,,,,,,,,,,,,
,,66daf1642fab82cb5a1df01b,66dafa10abf8c672cf55adbe,2024-09-06_15h06.44.113,mdp,2024.2.1,Win32,60.24096386,66d7945b1baad48e845df3ce,,,,,,,,,,,,,,,,,,,,,110.6611,110.6611,110.6615,111.8609,1,0,right,0.6676,,111.8615,111.8619,,1,,111.8622,111.8625,,1,,1,111.8625,111.8625,111.8627,113.3609,0,12,12,12,1,0.4,0.6,0.6,0.4,1,0,,,,,,,,,,,,,,,,,,,,,,,,,,,,,,,,,,,,
,,66daf1642fab82cb5a1df01b,66dafa10abf8c672cf55adbe,2024-09-06_15h06.44.113,mdp,2024.2.1,Win32,60.24096386,66d7945b1baad48e845df3ce,,,,,,,,,,,,,,,,,,,,,113.3611,113.3611,113.3615,114.4442,1,1,right,0.5574,,114.4449,114.4452,,0,,114.4456,114.4459,,1,,0,114.4459,114.4459,114.4463,115.9442,0,13,13,13,1,0.4,0.6,0.6,0.4,1,0,,,,,,,,,,,,,,,,,,,,,,,,,,,,,,,,,,,,
,,66daf1642fab82cb5a1df01b,66dafa10abf8c672cf55adbe,2024-09-06_15h06.44.113,mdp,2024.2.1,Win32,60.24096386,66d7945b1baad48e845df3ce,,,,,,,,,,,,,,,,,,,,,115.9445,115.9445,115.945,116.9612,0,1,left,0.4838,,116.9619,116.9624,,0,,116.9627,116.963,,1,,0,116.963,116.963,116.9632,118.4609,0,14,14,14,1,0.6,0.4,0.8,0.2,1,0,,,,,,,,,,,,,,,,,,,,,,,,,,,,,,,,,,,,
,,66daf1642fab82cb5a1df01b,66dafa10abf8c672cf55adbe,2024-09-06_15h06.44.113,mdp,2024.2.1,Win32,60.24096386,66d7945b1baad48e845df3ce,,,,,,,,,,,,,,,,,,,,,118.4611,118.4611,118.4615,119.561,0,1,left,0.5698,,119.5617,119.5622,,1,,119.5627,119.563,,1,,0,119.563,119.563,119.5633,121.061,0,15,15,15,1,0.2,0.8,0.6,0.4,1,0,,,,,,,,,,,,,,,,,,,,,,,,,,,,,,,,,,,,
,,66daf1642fab82cb5a1df01b,66dafa10abf8c672cf55adbe,2024-09-06_15h06.44.113,mdp,2024.2.1,Win32,60.24096386,66d7945b1baad48e845df3ce,,,,,,,,,,,,,,,,,,,,,121.0611,121.0611,121.0615,122.1942,1,0,right,0.6081,,122.1949,122.1954,,1,,122.1959,122.1961,,0,,1,122.1962,122.1962,122.1965,123.6942,0,16,16,16,1,0.2,0.8,0.6,0.4,1,0,,,,,,,,,,,,,,,,,,,,,,,,,,,,,,,,,,,,
,,66daf1642fab82cb5a1df01b,66dafa10abf8c672cf55adbe,2024-09-06_15h06.44.113,mdp,2024.2.1,Win32,60.24096386,66d7945b1baad48e845df3ce,,,,,,,,,,,,,,,,,,,,,123.6945,123.6945,123.6951,124.7444,1,1,right,0.5282,,124.7448,124.7452,,1,,124.7456,124.7458,,1,,0,124.7458,124.7458,124.7461,126.2442,0,17,17,17,1,0.6,0.4,0.2,0.8,1,0,,,,,,,,,,,,,,,,,,,,,,,,,,,,,,,,,,,,
,,66daf1642fab82cb5a1df01b,66dafa10abf8c672cf55adbe,2024-09-06_15h06.44.113,mdp,2024.2.1,Win32,60.24096386,66d7945b1baad48e845df3ce,,,,,,,,,,,,,,,,,,,,,126.2444,126.2444,126.2448,127.3776,0,0,left,0.61,,127.3782,127.3785,,1,,127.3788,127.379,,1,,1,127.379,127.379,127.3794,128.8776,0,18,18,18,1,0.6,0.4,0.2,0.8,1,0,,,,,,,,,,,,,,,,,,,,,,,,,,,,,,,,,,,,
,,66daf1642fab82cb5a1df01b,66dafa10abf8c672cf55adbe,2024-09-06_15h06.44.113,mdp,2024.2.1,Win32,60.24096386,66d7945b1baad48e845df3ce,,,,,,,,,,,,,,,,,,,,,128.8778,128.8778,128.8784,129.4775,1,1,right,0.0672,,129.4781,129.4785,,1,,129.4787,129.479,,1,,0,129.479,129.479,129.4792,130.9776,0,19,19,19,1,0.6,0.4,0.2,0.8,1,0,,,,,,,,,,,,,,,,,,,,,,,,,,,,,,,,,,,,
,,66daf1642fab82cb5a1df01b,66dafa10abf8c672cf55adbe,2024-09-06_15h06.44.113,mdp,2024.2.1,Win32,60.24096386,66d7945b1baad48e845df3ce,,,,,,,,,,,,,,,,,,,,,130.9777,130.9777,130.9781,131.8443,0,0,left,0.3402,,131.8448,131.8452,,0,,131.8454,131.8456,,0,,1,131.8457,131.8457,131.8459,133.3442,0,20,20,20,1,0.4,0.6,0.8,0.2,1,0,,,,,,,,,,,,,,,,,,,,,,,,,,,,,,,,,,,,
,,66daf1642fab82cb5a1df01b,66dafa10abf8c672cf55adbe,2024-09-06_15h06.44.113,mdp,2024.2.1,Win32,60.24096386,66d7945b1baad48e845df3ce,,,,,,,,,,,,,,,,,,,,,133.3444,133.3444,133.3448,134.2276,1,0,right,0.3571,,134.2282,134.2285,,0,,134.2288,134.2291,,0,,1,134.2291,134.2291,134.2295,135.7275,0,21,21,21,1,0.4,0.6,0.8,0.2,1,0,,,,,,,,,,,,,,,,,,,,,,,,,,,,,,,,,,,,
,,66daf1642fab82cb5a1df01b,66dafa10abf8c672cf55adbe,2024-09-06_15h06.44.113,mdp,2024.2.1,Win32,60.24096386,66d7945b1baad48e845df3ce,,,,,,,,,,,,,,,,,,,,,135.7278,135.7278,135.7283,136.6109,0,0,left,0.3513,,136.6114,136.6117,,0,,136.612,136.6124,,0,,1,136.6124,136.6124,136.6127,138.1109,0,22,22,22,1,0.8,0.2,0.6,0.4,1,0,,,,,,,,,,,,,,,,,,,,,,,,,,,,,,,,,,,,
,,66daf1642fab82cb5a1df01b,66dafa10abf8c672cf55adbe,2024-09-06_15h06.44.113,mdp,2024.2.1,Win32,60.24096386,66d7945b1baad48e845df3ce,,,,,,,,,,,,,,,,,,,,,138.1111,138.1111,138.1115,139.1276,1,0,right,0.4816,,139.1281,139.1284,,1,,139.1287,139.1289,,0,,1,139.1289,139.1289,139.129,140.6275,0,23,23,23,1,0.6,0.4,0.8,0.2,1,0,,,,,,,,,,,,,,,,,,,,,,,,,,,,,,,,,,,,
,,66daf1642fab82cb5a1df01b,66dafa10abf8c672cf55adbe,2024-09-06_15h06.44.113,mdp,2024.2.1,Win32,60.24096386,66d7945b1baad48e845df3ce,,,,,,,,,,,,,,,,,,,,,140.6278,140.6278,140.6283,141.6608,0,1,left,0.5005,,141.6616,141.662,,1,,141.6624,141.6627,,1,,0,141.6627,141.6627,141.663,143.1609,0,24,24,24,1,0.6,0.4,0.8,0.2,1,0,,,,,,,,,,,,,,,,,,,,,,,,,,,,,,,,,,,,
,,66daf1642fab82cb5a1df01b,66dafa10abf8c672cf55adbe,2024-09-06_15h06.44.113,mdp,2024.2.1,Win32,60.24096386,66d7945b1baad48e845df3ce,,,,,,,,,,,,,,,,,,,,,143.161,143.161,143.1615,144.2442,1,0,right,0.5496,,144.2448,144.2452,,0,,144.2455,144.2458,,0,,1,144.2458,144.2459,144.2461,145.7545,0,25,25,25,1,0.6,0.4,0.8,0.2,1,0,,,,,,,,,,,,,,,,,,,,,,,,,,,,,,,,,,,,
,,66daf1642fab82cb5a1df01b,66dafa10abf8c672cf55adbe,2024-09-06_15h06.44.113,mdp,2024.2.1,Win32,60.24096386,66d7945b1baad48e845df3ce,,,,,,,,,,,,,,,,,,,,,145.7547,145.7547,145.7554,146.5608,0,0,left,0.2927,,146.5613,146.5617,,0,,146.5619,146.5621,,0,,1,146.5622,146.5622,146.5625,148.0609,0,26,26,26,1,0.8,0.2,0.2,0.8,1,0,,,,,,,,,,,,,,,,,,,,,,,,,,,,,,,,,,,,
,,66daf1642fab82cb5a1df01b,66dafa10abf8c672cf55adbe,2024-09-06_15h06.44.113,mdp,2024.2.1,Win32,60.24096386,66d7945b1baad48e845df3ce,,,,,,,,,,,,,,,,,,,,,148.0611,148.0611,148.0616,149.0609,1,1,right,0.4672,,149.0615,149.0618,,1,,149.0622,149.0624,,1,,0,149.0624,149.0624,149.0627,150.5608,0,27,27,27,1,0.8,0.2,0.2,0.8,1,0,,,,,,,,,,,,,,,,,,,,,,,,,,,,,,,,,,,,
,,66daf1642fab82cb5a1df01b,66dafa10abf8c672cf55adbe,2024-09-06_15h06.44.113,mdp,2024.2.1,Win32,60.24096386,66d7945b1baad48e845df3ce,,,,,,,,,,,,,,,,,,,,,150.561,150.561,150.5615,151.9276,0,1,left,0.8336,,151.9281,151.9283,,1,,151.9286,151.9289,,0,,0,151.9289,151.9289,151.9291,153.4275,0,28,28,28,1,0.8,0.2,0.2,0.8,1,0,,,,,,,,,,,,,,,,,,,,,,,,,,,,,,,,,,,,
,,66daf1642fab82cb5a1df01b,66dafa10abf8c672cf55adbe,2024-09-06_15h06.44.113,mdp,2024.2.1,Win32,60.24096386,66d7945b1baad48e845df3ce,,,,,,,,,,,,,,,,,,,,,153.4277,153.4277,153.4282,154.9442,1,1,right,0.9861,,154.9448,154.9451,,1,,154.9455,154.9458,,0,,0,154.9458,154.9458,154.946,156.4442,0,29,29,29,1,0.6,0.4,0.4,0.6,1,0,,,,,,,,,,,,,,,,,,,,,,,,,,,,,,,,,,,,
,,66daf1642fab82cb5a1df01b,66dafa10abf8c672cf55adbe,2024-09-06_15h06.44.113,mdp,2024.2.1,Win32,60.24096386,66d7945b1baad48e845df3ce,,,,,,,,,,,,,,,,,,,,,156.4444,156.4444,156.4449,157.9942,0,1,left,1.0258,,157.9947,157.995,,1,,157.9953,157.9956,,1,,0,157.9956,157.9956,157.9958,159.4942,0,30,30,30,1,0.2,0.8,0.6,0.4,1,0,,,,,,,,,,,,,,,,,,,,,,,,,,,,,,,,,,,,
,,66daf1642fab82cb5a1df01b,66dafa10abf8c672cf55adbe,2024-09-06_15h06.44.113,mdp,2024.2.1,Win32,60.24096386,66d7945b1baad48e845df3ce,,,,,,,,,,,,,,,,,,,,,159.4944,159.4944,159.4948,160.6775,1,0,right,0.6556,,160.6781,160.6784,,0,,160.6786,160.6789,,0,,1,160.6789,160.6789,160.6793,162.1774,0,31,31,31,1,0.2,0.8,0.6,0.4,1,0,,,,,,,,,,,,,,,,,,,,,,,,,,,,,,,,,,,,
,,66daf1642fab82cb5a1df01b,66dafa10abf8c672cf55adbe,2024-09-06_15h06.44.113,mdp,2024.2.1,Win32,60.24096386,66d7945b1baad48e845df3ce,,,,,,,,,,,,,,,,,,,,,162.1777,162.1777,162.1781,164.0774,1,0,right,1.3547,,164.078,164.0783,,0,,164.0786,164.0788,,0,,1,164.0788,164.0788,164.079,165.5775,0,32,32,32,1,0.2,0.8,0.6,0.4,1,0,,,,,,,,,,,,,,,,,,,,,,,,,,,,,,,,,,,,
,,66daf1642fab82cb5a1df01b,66dafa10abf8c672cf55adbe,2024-09-06_15h06.44.113,mdp,2024.2.1,Win32,60.24096386,66d7945b1baad48e845df3ce,,,,,,,,,,,,,,,,,,,,,165.5779,165.5779,165.5785,166.7774,0,0,left,0.6681,,166.778,166.7782,,0,,166.7786,166.7788,,0,,1,166.7788,166.7788,166.779,168.2775,0,33,33,33,1,0.8,0.2,0.2,0.8,1,0,,,,,,,,,,,,,,,,,,,,,,,,,,,,,,,,,,,,
,,66daf1642fab82cb5a1df01b,66dafa10abf8c672cf55adbe,2024-09-06_15h06.44.113,mdp,2024.2.1,Win32,60.24096386,66d7945b1baad48e845df3ce,,,,,,,,,,,,,,,,,,,,,168.2776,168.2776,168.2781,169.6775,0,0,left,0.8672,,169.678,169.6783,,1,,169.6786,169.6788,,0,,1,169.6788,169.6788,169.679,171.1775,0,34,34,34,1,0.8,0.2,0.2,0.8,1,0,,,,,,,,,,,,,,,,,,,,,,,,,,,,,,,,,,,,
,,66daf1642fab82cb5a1df01b,66dafa10abf8c672cf55adbe,2024-09-06_15h06.44.113,mdp,2024.2.1,Win32,60.24096386,66d7945b1baad48e845df3ce,,,,,,,,,,,,,,,,,,,,,171.1777,171.1777,171.1783,173.0274,1,0,right,1.3169,,173.028,173.0283,,1,,173.0286,173.0288,,0,,1,173.0288,173.0288,173.0291,174.5274,0,35,35,35,1,0.8,0.2,0.2,0.8,1,0,,,,,,,,,,,,,,,,,,,,,,,,,,,,,,,,,,,,
,,66daf1642fab82cb5a1df01b,66dafa10abf8c672cf55adbe,2024-09-06_15h06.44.113,mdp,2024.2.1,Win32,60.24096386,66d7945b1baad48e845df3ce,,,,,,,,,,,,,,,,,,,,,174.5277,174.5277,174.5282,175.4942,0,0,left,0.434,,175.4947,175.495,,0,,175.4953,175.4956,,1,,1,175.4956,175.4956,175.4959,176.9941,0,36,36,36,1,0.8,0.2,0.2,0.8,1,0,,,,,,,,,,,,,,,,,,,,,,,,,,,,,,,,,,,,
,,66daf1642fab82cb5a1df01b,66dafa10abf8c672cf55adbe,2024-09-06_15h06.44.113,mdp,2024.2.1,Win32,60.24096386,66d7945b1baad48e845df3ce,,,,,,,,,,,,,,,,,,,,,176.9943,176.9944,176.9948,177.8274,1,1,right,0.3084,,177.828,177.8283,,0,,177.8287,177.829,,0,,0,177.8291,177.8291,177.8293,179.3275,0,37,37,37,1,0.8,0.2,0.2,0.8,1,0,,,,,,,,,,,,,,,,,,,,,,,,,,,,,,,,,,,,
,,66daf1642fab82cb5a1df01b,66dafa10abf8c672cf55adbe,2024-09-06_15h06.44.113,mdp,2024.2.1,Win32,60.24096386,66d7945b1baad48e845df3ce,,,,,,,,,,,,,,,,,,,,,179.3277,179.3277,179.3282,180.3442,0,0,left,0.4859,,180.3448,180.3452,,0,,180.3456,180.3459,,0,,1,180.3459,180.3459,180.3463,181.8441,0,38,38,38,1,0.8,0.2,0.2,0.8,1,0,,,,,,,,,,,,,,,,,,,,,,,,,,,,,,,,,,,,
,,66daf1642fab82cb5a1df01b,66dafa10abf8c672cf55adbe,2024-09-06_15h06.44.113,mdp,2024.2.1,Win32,60.24096386,66d7945b1baad48e845df3ce,,,,,,,,,,,,,,,,,,,,,181.8443,181.8443,181.8448,183.2608,1,1,right,0.8907,,183.2613,183.2616,,1,,183.2621,183.2622,,1,,0,183.2623,183.2623,183.2625,184.7607,0,39,39,39,1,0.8,0.2,0.2,0.8,1,0,,,,,,,,,,,,,,,,,,,,,,,,,,,,,,,,,,,,
,,66daf1642fab82cb5a1df01b,66dafa10abf8c672cf55adbe,2024-09-06_15h06.44.113,mdp,2024.2.1,Win32,60.24096386,66d7945b1baad48e845df3ce,,,,,,,,,,,,,,,,,,,,,184.761,184.761,184.7625,185.844,0,1,left,0.5582,,185.8446,185.8449,,0,,185.8452,185.8455,,0,,0,185.8455,185.8455,185.8458,187.3441,0,40,40,40,1,0.8,0.2,0.2,0.8,1,0,,,,,,,,,,,,,,,,,,,,,,,,,,,,,,,,,,,,
,,66daf1642fab82cb5a1df01b,66dafa10abf8c672cf55adbe,2024-09-06_15h06.44.113,mdp,2024.2.1,Win32,60.24096386,66d7945b1baad48e845df3ce,,,,,,,,,,,,,,,,,,,,,187.3444,187.3444,187.3448,188.2607,0,0,left,0.3859,,188.2613,188.2617,,0,,188.2619,188.2622,,1,,1,188.2622,188.2622,188.2624,189.7608,0,41,41,41,1,0.8,0.2,0.2,0.8,1,0,,,,,,,,,,,,,,,,,,,,,,,,,,,,,,,,,,,,
,,66daf1642fab82cb5a1df01b,66dafa10abf8c672cf55adbe,2024-09-06_15h06.44.113,mdp,2024.2.1,Win32,60.24096386,66d7945b1baad48e845df3ce,,,,,,,,,,,,,,,,,,,,,189.7611,189.7611,189.7615,190.5775,1,1,right,0.2838,,190.5779,190.5783,,0,,190.5785,190.5787,,0,,0,190.5787,190.5787,190.5789,192.0775,0,42,42,42,1,0.2,0.8,0.8,0.2,1,0,,,,,,,,,,,,,,,,,,,,,,,,,,,,,,,,,,,,
,,66daf1642fab82cb5a1df01b,66dafa10abf8c672cf55adbe,2024-09-06_15h06.44.113,mdp,2024.2.1,Win32,60.24096386,66d7945b1baad48e845df3ce,,,,,,,,,,,,,,,,,,,,,192.0778,192.0778,192.0782,192.9107,0,1,left,0.3052,,192.9113,192.9116,,1,,192.9121,192.9124,,1,,0,192.9124,192.9124,192.9128,194.4108,0,43,43,43,1,0.2,0.8,0.8,0.2,1,0,,,,,,,,,,,,,,,,,,,,,,,,,,,,,,,,,,,,
,,66daf1642fab82cb5a1df01b,66dafa10abf8c672cf55adbe,2024-09-06_15h06.44.113,mdp,2024.2.1,Win32,60.24096386,66d7945b1baad48e845df3ce,,,,,,,,,,,,,,,,,,,,,194.4109,194.4109,194.4115,195.3108,1,0,right,0.3722,,195.3112,195.3115,,1,,195.3118,195.3121,,1,,1,195.3121,195.3121,195.3123,196.8108,0,44,44,44,1,0.8,0.2,0.2,0.8,1,0,,,,,,,,,,,,,,,,,,,,,,,,,,,,,,,,,,,,
,,66daf1642fab82cb5a1df01b,66dafa10abf8c672cf55adbe,2024-09-06_15h06.44.113,mdp,2024.2.1,Win32,60.24096386,66d7945b1baad48e845df3ce,,,,,,,,,,,,,,,,,,,,,196.8109,196.8109,196.8113,197.9275,0,0,left,0.5839,,197.9281,197.9285,,0,,197.9289,197.929,,0,,1,197.9291,197.9291,197.9293,199.4274,0,45,45,45,1,0.8,0.2,0.2,0.8,1,0,,,,,,,,,,,,,,,,,,,,,,,,,,,,,,,,,,,,
,,66daf1642fab82cb5a1df01b,66dafa10abf8c672cf55adbe,2024-09-06_15h06.44.113,mdp,2024.2.1,Win32,60.24096386,66d7945b1baad48e845df3ce,,,,,,,,,,,,,,,,,,,,,199.4279,199.4279,199.4287,200.5107,1,1,right,0.5505,,200.5113,200.5115,,1,,200.5118,200.5122,,1,,0,200.5122,200.5122,200.5124,202.0107,0,46,46,46,1,0.8,0.2,0.2,0.8,1,0,,,,,,,,,,,,,,,,,,,,,,,,,,,,,,,,,,,,
,,66daf1642fab82cb5a1df01b,66dafa10abf8c672cf55adbe,2024-09-06_15h06.44.113,mdp,2024.2.1,Win32,60.24096386,66d7945b1baad48e845df3ce,,,,,,,,,,,,,,,,,,,,,202.0109,202.0109,202.0114,203.394,0,0,left,0.8582,,203.3947,203.395,,1,,203.3953,203.3955,,0,,1,203.3955,203.3955,203.3959,204.8941,0,47,47,47,1,0.8,0.2,0.2,0.8,1,0,,,,,,,,,,,,,,,,,,,,,,,,,,,,,,,,,,,,
,,66daf1642fab82cb5a1df01b,66dafa10abf8c672cf55adbe,2024-09-06_15h06.44.113,mdp,2024.2.1,Win32,60.24096386,66d7945b1baad48e845df3ce,,,,,,,,,,,,,,,,,,,,,204.8943,204.8943,204.8948,206.0774,1,0,right,0.6516,,206.078,206.0783,,1,,206.0786,206.0789,,1,,1,206.0789,206.0789,206.079,207.5774,0,48,48,48,1,0.8,0.2,0.2,0.8,1,0,,,,,,,,,,,,,,,,,,,,,,,,,,,,,,,,,,,,
,,66daf1642fab82cb5a1df01b,66dafa10abf8c672cf55adbe,2024-09-06_15h06.44.113,mdp,2024.2.1,Win32,60.24096386,66d7945b1baad48e845df3ce,,,,,,,,,,,,,,,,,,,,,207.5776,207.5776,207.578,208.7941,0,0,left,0.6851,,208.7947,208.795,,1,,208.7953,208.7956,,0,,1,208.7956,208.7956,208.7959,210.2941,0,49,49,49,1,0.8,0.2,0.2,0.8,1,0,,,,,,,,,,,,,,,,,,,,,,,,,,,,,,,,,,,,
,,66daf1642fab82cb5a1df01b,66dafa10abf8c672cf55adbe,2024-09-06_15h06.44.113,mdp,2024.2.1,Win32,60.24096386,66d7945b1baad48e845df3ce,,,,,,,,,,,,,,,,,,,,,,,,,,,,,,,,,,,,,,,,,,,,,,,,,,,,,,,,210.2945,268.8109,0,0,0,4,1,imgs/pig.png,imgs/bear.png,imgs/dog.png,imgs/kangaroo.png,imgs/elephant.png,,,,,,,,,,,,,,,,,,,,,,,,
,,66daf1642fab82cb5a1df01b,66dafa10abf8c672cf55adbe,2024-09-06_15h06.44.113,mdp,2024.2.1,Win32,60.24096386,66d7945b1baad48e845df3ce,,,,,,,,,,,,,,2,seqs/st2seq33.csv,268.8171,278.1772,space,8.842,,278.1853,278.1853,278.1857,279.2939,0,1,left,0.5876,,279.2945,281.0439,1,0,right,281.0446,281.045,,0,,1,281.0451,281.0451,281.0454,282.544,0,0,0,0,1,0.2,0.8,0.6,0.4,,,,,,,,,,,,,,,1.2213,,0.2,0.8,0.4,0.6,0.8,0.2,0.2,0.8,1,0,,,,,,,,,,,,
,,66daf1642fab82cb5a1df01b,66dafa10abf8c672cf55adbe,2024-09-06_15h06.44.113,mdp,2024.2.1,Win32,60.24096386,66d7945b1baad48e845df3ce,,,,,,,,,,,,,,,,,,,,,282.5442,282.5442,282.5446,283.6606,0,1,left,0.5836,,283.6612,284.7605,1,0,right,284.761,284.7614,,1,,1,284.7614,284.7614,284.7616,286.2606,0,1,1,1,1,0.2,0.8,0.6,0.4,,,,,,,,,,,,,,,0.5676,,0.2,0.8,0.4,0.6,0.8,0.2,0.2,0.8,1,0,,,,,,,,,,,,
,,66daf1642fab82cb5a1df01b,66dafa10abf8c672cf55adbe,2024-09-06_15h06.44.113,mdp,2024.2.1,Win32,60.24096386,66d7945b1baad48e845df3ce,,,,,,,,,,,,,,,,,,,,,286.2608,286.2608,286.2612,288.3939,1,0,right,1.6018,,288.3945,289.5772,0,1,left,289.5777,289.5781,,1,,0,289.5781,289.5781,289.5783,291.0773,0,2,2,2,1,0.4,0.6,0.4,0.6,,,,,,,,,,,,,,,0.6575,,0.2,0.8,0.4,0.6,0.8,0.2,0.2,0.8,1,0,,,,,,,,,,,,
,,66daf1642fab82cb5a1df01b,66dafa10abf8c672cf55adbe,2024-09-06_15h06.44.113,mdp,2024.2.1,Win32,60.24096386,66d7945b1baad48e845df3ce,,,,,,,,,,,,,,,,,,,,,291.0775,291.0775,291.0781,292.144,1,0,right,0.5368,,292.1444,293.3772,1,0,right,293.3778,293.3781,,1,,1,293.3781,293.3781,293.3785,294.8773,0,3,3,3,1,0.4,0.6,0.4,0.6,,,,,,,,,,,,,,,0.7043,,0.2,0.8,0.4,0.6,0.8,0.2,0.2,0.8,1,0,,,,,,,,,,,,
,,66daf1642fab82cb5a1df01b,66dafa10abf8c672cf55adbe,2024-09-06_15h06.44.113,mdp,2024.2.1,Win32,60.24096386,66d7945b1baad48e845df3ce,,,,,,,,,,,,,,,,,,,,,294.8775,294.8775,294.8779,296.1273,1,1,right,0.7169,,296.1279,297.6273,0,0,left,297.6279,297.6282,,0,,1,297.6282,297.6282,297.6285,299.1272,0,4,4,4,1,0.4,0.6,0.4,0.6,,,,,,,,,,,,,,,0.9669,,0.2,0.8,0.4,0.6,0.8,0.2,0.2,0.8,1,0,,,,,,,,,,,,
,,66daf1642fab82cb5a1df01b,66dafa10abf8c672cf55adbe,2024-09-06_15h06.44.113,mdp,2024.2.1,Win32,60.24096386,66d7945b1baad48e845df3ce,,,,,,,,,,,,,,,,,,,,,299.1275,299.1275,299.128,300.2605,0,1,left,0.6101,,300.2611,301.0939,1,1,right,301.0944,301.0947,,1,,0,301.0947,301.0947,301.095,302.5939,0,5,5,5,1,0.4,0.6,0.4,0.6,,,,,,,,,,,,,,,0.3057,,0.2,0.8,0.4,0.6,0.8,0.2,0.2,0.8,1,0,,,,,,,,,,,,
,,66daf1642fab82cb5a1df01b,66dafa10abf8c672cf55adbe,2024-09-06_15h06.44.113,mdp,2024.2.1,Win32,60.24096386,66d7945b1baad48e845df3ce,,,,,,,,,,,,,,,,,,,,,302.5941,302.5941,302.5945,303.6606,1,1,right,0.5379,,303.661,304.6772,0,0,left,304.6778,304.678,,0,,1,304.6781,304.6781,304.6784,306.1772,0,6,6,6,1,0.4,0.6,0.4,0.6,,,,,,,,,,,,,,,0.4801,,0.2,0.8,0.4,0.6,0.8,0.2,0.2,0.8,1,0,,,,,,,,,,,,
,,66daf1642fab82cb5a1df01b,66dafa10abf8c672cf55adbe,2024-09-06_15h06.44.113,mdp,2024.2.1,Win32,60.24096386,66d7945b1baad48e845df3ce,,,,,,,,,,,,,,,,,,,,,306.1774,306.1774,306.1778,307.6438,1,1,right,0.9331,,307.6443,308.7439,0,1,left,308.7445,308.7449,,0,,0,308.745,308.745,308.7454,310.2439,0,7,7,7,1,0.4,0.6,0.4,0.6,,,,,,,,,,,,,,,0.5779,,0.2,0.8,0.4,0.6,0.8,0.2,0.2,0.8,1,0,,,,,,,,,,,,
,,66daf1642fab82cb5a1df01b,66dafa10abf8c672cf55adbe,2024-09-06_15h06.44.113,mdp,2024.2.1,Win32,60.24096386,66d7945b1baad48e845df3ce,,,,,,,,,,,,,,,,,,,,,310.244,310.244,310.2445,311.6273,1,0,right,0.863,,311.628,313.4938,0,1,left,313.4944,313.4947,,0,,0,313.4947,313.4947,313.4951,314.9938,0,8,8,8,1,0.4,0.6,0.4,0.6,,,,,,,,,,,,,,,1.3327,,0.2,0.8,0.4,0.6,0.8,0.2,0.2,0.8,1,0,,,,,,,,,,,,
,,66daf1642fab82cb5a1df01b,66dafa10abf8c672cf55adbe,2024-09-06_15h06.44.113,mdp,2024.2.1,Win32,60.24096386,66d7945b1baad48e845df3ce,,,,,,,,,,,,,,,,,,,,,314.9941,314.9941,314.9945,316.2938,1,1,right,0.7743,,316.2945,317.4606,0,1,left,317.461,317.4613,,1,,0,317.4614,317.4614,317.4616,318.9605,0,9,9,9,1,0.4,0.6,0.4,0.6,,,,,,,,,,,,,,,0.6536,,0.2,0.8,0.4,0.6,0.2,0.8,0.8,0.2,1,0,,,,,,,,,,,,
,,66daf1642fab82cb5a1df01b,66dafa10abf8c672cf55adbe,2024-09-06_15h06.44.113,mdp,2024.2.1,Win32,60.24096386,66d7945b1baad48e845df3ce,,,,,,,,,,,,,,,,,,,,,318.9608,318.9608,318.9612,320.0105,0,1,left,0.5181,,320.011,321.1939,0,0,left,321.1945,321.1949,,1,,1,321.195,321.195,321.1953,322.6939,0,10,10,10,1,0.4,0.6,0.4,0.6,,,,,,,,,,,,,,,0.6504,,0.2,0.8,0.4,0.6,0.2,0.8,0.8,0.2,1,0,,,,,,,,,,,,
,,66daf1642fab82cb5a1df01b,66dafa10abf8c672cf55adbe,2024-09-06_15h06.44.113,mdp,2024.2.1,Win32,60.24096386,66d7945b1baad48e845df3ce,,,,,,,,,,,,,,,,,,,,,322.6941,322.6941,322.6945,323.994,0,1,left,0.7688,,323.9944,324.9939,0,1,left,324.9944,324.9947,,1,,0,324.9947,324.9947,324.9949,326.4939,0,11,11,11,1,0.2,0.8,0.6,0.4,,,,,,,,,,,,,,,0.4745,,0.2,0.8,0.4,0.6,0.2,0.8,0.8,0.2,1,0,,,,,,,,,,,,
,,66daf1642fab82cb5a1df01b,66dafa10abf8c672cf55adbe,2024-09-06_15h06.44.113,mdp,2024.2.1,Win32,60.24096386,66d7945b1baad48e845df3ce,,,,,,,,,,,,,,,,,,,,,326.4942,326.4942,326.4946,327.9105,0,1,left,0.8858,,327.9111,329.0272,1,0,right,329.0276,329.028,,0,,1,329.028,329.028,329.0283,330.5273,0,12,12,12,1,0.2,0.8,0.6,0.4,,,,,,,,,,,,,,,0.6079,,0.2,0.8,0.4,0.6,0.2,0.8,0.8,0.2,1,0,,,,,,,,,,,,
,,66daf1642fab82cb5a1df01b,66dafa10abf8c672cf55adbe,2024-09-06_15h06.44.113,mdp,2024.2.1,Win32,60.24096386,66d7945b1baad48e845df3ce,,,,,,,,,,,,,,,,,,,,,330.5275,330.5275,330.5278,331.7939,0,1,left,0.7383,,331.7944,332.7438,1,0,right,332.7443,332.7446,,0,,1,332.7446,332.7446,332.7449,334.2439,0,13,13,13,1,0.6,0.4,0.4,0.6,,,,,,,,,,,,,,,0.4186,,0.2,0.8,0.4,0.6,0.2,0.8,0.8,0.2,1,0,,,,,,,,,,,,
,,66daf1642fab82cb5a1df01b,66dafa10abf8c672cf55adbe,2024-09-06_15h06.44.113,mdp,2024.2.1,Win32,60.24096386,66d7945b1baad48e845df3ce,,,,,,,,,,,,,,,,,,,,,334.244,334.244,334.2446,335.5938,0,0,left,0.8263,,335.5943,336.8605,1,1,right,336.8612,336.8616,,1,,0,336.8616,336.8616,336.862,338.3604,0,14,14,14,1,0.6,0.4,0.4,0.6,,,,,,,,,,,,,,,0.7551,,0.2,0.8,0.4,0.6,0.2,0.8,0.8,0.2,1,0,,,,,,,,,,,,
,,66daf1642fab82cb5a1df01b,66dafa10abf8c672cf55adbe,2024-09-06_15h06.44.113,mdp,2024.2.1,Win32,60.24096386,66d7945b1baad48e845df3ce,,,,,,,,,,,,,,,,,,,,,338.3608,338.3608,338.3614,339.7771,0,1,left,0.8837,,339.7777,340.9106,0,1,left,340.9111,340.9116,,0,,0,340.9116,340.9116,340.9119,342.4105,0,15,15,15,1,0.6,0.4,0.4,0.6,,,,,,,,,,,,,,,0.6159,,0.2,0.8,0.4,0.6,0.4,0.6,0.6,0.4,1,0,,,,,,,,,,,,
,,66daf1642fab82cb5a1df01b,66dafa10abf8c672cf55adbe,2024-09-06_15h06.44.113,mdp,2024.2.1,Win32,60.24096386,66d7945b1baad48e845df3ce,,,,,,,,,,,,,,,,,,,,,342.4108,342.4108,342.4113,343.5271,0,0,left,0.5806,,343.5278,344.8104,1,1,right,344.811,344.8113,,1,,0,344.8113,344.8113,344.8116,346.3105,0,16,16,16,1,0.6,0.4,0.4,0.6,,,,,,,,,,,,,,,0.7558,,0.2,0.8,0.4,0.6,0.4,0.6,0.6,0.4,1,0,,,,,,,,,,,,
,,66daf1642fab82cb5a1df01b,66dafa10abf8c672cf55adbe,2024-09-06_15h06.44.113,mdp,2024.2.1,Win32,60.24096386,66d7945b1baad48e845df3ce,,,,,,,,,,,,,,,,,,,,,346.3107,346.3107,346.3112,347.2604,0,0,left,0.4179,,347.2609,348.2438,0,1,left,348.2443,348.2446,,1,,0,348.2446,348.2446,348.245,349.7438,0,17,17,17,1,0.6,0.4,0.4,0.6,,,,,,,,,,,,,,,0.4491,,0.2,0.8,0.4,0.6,0.4,0.6,0.6,0.4,1,0,,,,,,,,,,,,
,,66daf1642fab82cb5a1df01b,66dafa10abf8c672cf55adbe,2024-09-06_15h06.44.113,mdp,2024.2.1,Win32,60.24096386,66d7945b1baad48e845df3ce,,,,,,,,,,,,,,,,,,,,,349.744,349.744,349.7445,350.5771,1,0,right,0.309,,350.5776,351.7105,1,1,right,351.7111,351.7116,,0,,0,351.7117,351.7117,351.7121,353.2105,0,18,18,18,1,0.6,0.4,0.4,0.6,,,,,,,,,,,,,,,0.6208,,0.2,0.8,0.4,0.6,0.4,0.6,0.6,0.4,1,0,,,,,,,,,,,,
,,66daf1642fab82cb5a1df01b,66dafa10abf8c672cf55adbe,2024-09-06_15h06.44.113,mdp,2024.2.1,Win32,60.24096386,66d7945b1baad48e845df3ce,,,,,,,,,,,,,,,,,,,,,353.2108,353.2108,353.2111,354.0938,1,0,right,0.3537,,354.0944,354.9938,0,0,left,354.9943,354.9946,,1,,1,354.9947,354.9947,354.9949,356.4939,0,19,19,19,1,0.6,0.4,0.4,0.6,,,,,,,,,,,,,,,0.3696,,0.2,0.8,0.4,0.6,0.4,0.6,0.6,0.4,1,0,,,,,,,,,,,,
,,66daf1642fab82cb5a1df01b,66dafa10abf8c672cf55adbe,2024-09-06_15h06.44.113,mdp,2024.2.1,Win32,60.24096386,66d7945b1baad48e845df3ce,,,,,,,,,,,,,,,,,,,,,356.4941,356.4941,356.4946,357.4603,1,1,right,0.44,,357.4608,358.4271,0,1,left,358.4277,358.428,,0,,0,358.428,358.428,358.4284,359.9271,0,20,20,20,1,0.6,0.4,0.4,0.6,,,,,,,,,,,,,,,0.4553,,0.2,0.8,0.4,0.6,0.4,0.6,0.6,0.4,1,0,,,,,,,,,,,,
,,66daf1642fab82cb5a1df01b,66dafa10abf8c672cf55adbe,2024-09-06_15h06.44.113,mdp,2024.2.1,Win32,60.24096386,66d7945b1baad48e845df3ce,,,,,,,,,,,,,,,,,,,,,359.9275,359.9275,359.9281,360.7937,1,1,right,0.3415,,360.7945,361.7938,1,0,right,361.7948,361.7951,,0,,1,361.7951,361.7951,361.7954,363.2938,0,21,21,21,1,0.6,0.4,0.4,0.6,,,,,,,,,,,,,,,0.4688,,0.2,0.8,0.4,0.6,0.4,0.6,0.6,0.4,1,0,,,,,,,,,,,,
,,66daf1642fab82cb5a1df01b,66dafa10abf8c672cf55adbe,2024-09-06_15h06.44.113,mdp,2024.2.1,Win32,60.24096386,66d7945b1baad48e845df3ce,,,,,,,,,,,,,,,,,,,,,363.2941,363.2941,363.2945,364.2271,1,1,right,0.4002,,364.2276,365.327,0,0,left,365.3277,365.328,,0,,1,365.3281,365.3281,365.3283,366.827,0,22,22,22,1,0.6,0.4,0.4,0.6,,,,,,,,,,,,,,,0.5768,,0.6,0.4,0.6,0.4,0.4,0.6,0.6,0.4,1,0,,,,,,,,,,,,
,,66daf1642fab82cb5a1df01b,66dafa10abf8c672cf55adbe,2024-09-06_15h06.44.113,mdp,2024.2.1,Win32,60.24096386,66d7945b1baad48e845df3ce,,,,,,,,,,,,,,,,,,,,,366.8273,366.8273,366.8277,368.0438,1,1,right,0.6825,,368.0443,369.2604,0,1,left,369.261,369.2612,,1,,0,369.2613,369.2613,369.2615,370.7693,0,23,23,23,1,0.6,0.4,0.4,0.6,,,,,,,,,,,,,,,0.6841,,0.6,0.4,0.6,0.4,0.4,0.6,0.6,0.4,1,0,,,,,,,,,,,,
,,66daf1642fab82cb5a1df01b,66dafa10abf8c672cf55adbe,2024-09-06_15h06.44.113,mdp,2024.2.1,Win32,60.24096386,66d7945b1baad48e845df3ce,,,,,,,,,,,,,,,,,,,,,370.7696,370.7696,370.7702,372.4105,1,0,right,1.1191,,372.4109,373.2271,0,0,left,373.2276,373.228,,0,,1,373.228,373.228,373.2282,374.7271,0,24,24,24,1,0.8,0.2,0.8,0.2,,,,,,,,,,,,,,,0.2895,,0.6,0.4,0.6,0.4,0.4,0.6,0.6,0.4,1,0,,,,,,,,,,,,
,,66daf1642fab82cb5a1df01b,66dafa10abf8c672cf55adbe,2024-09-06_15h06.44.113,mdp,2024.2.1,Win32,60.24096386,66d7945b1baad48e845df3ce,,,,,,,,,,,,,,,,,,,,,374.7273,374.7274,374.7278,375.8104,1,0,right,0.5577,,375.811,376.8938,0,1,left,376.8943,376.8947,,1,,0,376.8947,376.8947,376.895,378.3937,0,25,25,25,1,0.6,0.4,0.6,0.4,,,,,,,,,,,,,,,0.5752,,0.6,0.4,0.6,0.4,0.4,0.6,0.6,0.4,1,0,,,,,,,,,,,,
,,66daf1642fab82cb5a1df01b,66dafa10abf8c672cf55adbe,2024-09-06_15h06.44.113,mdp,2024.2.1,Win32,60.24096386,66d7945b1baad48e845df3ce,,,,,,,,,,,,,,,,,,,,,378.394,378.394,378.3944,379.8937,1,1,right,0.9707,,379.8944,380.9437,0,1,left,380.9443,380.9446,,1,,0,380.9446,380.9446,380.9449,382.4437,0,26,26,26,1,0.6,0.4,0.6,0.4,,,,,,,,,,,,,,,0.5176,,0.6,0.4,0.6,0.4,0.4,0.6,0.6,0.4,1,0,,,,,,,,,,,,
,,66daf1642fab82cb5a1df01b,66dafa10abf8c672cf55adbe,2024-09-06_15h06.44.113,mdp,2024.2.1,Win32,60.24096386,66d7945b1baad48e845df3ce,,,,,,,,,,,,,,,,,,,,,382.4439,382.444,382.4444,383.577,0,0,left,0.6001,,383.5776,384.6271,1,1,right,384.6277,384.6281,,1,,0,384.6282,384.6282,384.6285,386.1271,0,27,27,27,1,0.6,0.4,0.6,0.4,,,,,,,,,,,,,,,0.5227,,0.6,0.4,0.6,0.4,0.4,0.6,0.6,0.4,1,0,,,,,,,,,,,,
,,66daf1642fab82cb5a1df01b,66dafa10abf8c672cf55adbe,2024-09-06_15h06.44.113,mdp,2024.2.1,Win32,60.24096386,66d7945b1baad48e845df3ce,,,,,,,,,,,,,,,,,,,,,386.1274,386.1274,386.1278,387.4604,1,1,right,0.7993,,387.4609,388.427,0,1,left,388.4277,388.4281,,1,,0,388.4282,388.4282,388.4285,389.927,0,28,28,28,1,0.6,0.4,0.6,0.4,,,,,,,,,,,,,,,0.439,,0.6,0.4,0.6,0.4,0.4,0.6,0.6,0.4,1,0,,,,,,,,,,,,
,,66daf1642fab82cb5a1df01b,66dafa10abf8c672cf55adbe,2024-09-06_15h06.44.113,mdp,2024.2.1,Win32,60.24096386,66d7945b1baad48e845df3ce,,,,,,,,,,,,,,,,,,,,,389.9272,389.9272,389.9279,390.8271,1,0,right,0.3655,,390.8276,391.7271,1,1,right,391.7276,391.7279,,0,,0,391.728,391.728,391.7282,393.2271,0,29,29,29,1,0.6,0.4,0.6,0.4,,,,,,,,,,,,,,,0.3691,,0.6,0.4,0.6,0.4,0.4,0.6,0.6,0.4,1,0,,,,,,,,,,,,
,,66daf1642fab82cb5a1df01b,66dafa10abf8c672cf55adbe,2024-09-06_15h06.44.113,mdp,2024.2.1,Win32,60.24096386,66d7945b1baad48e845df3ce,,,,,,,,,,,,,,,,,,,,,393.2274,393.2274,393.228,394.077,0,0,left,0.3175,,394.0774,395.0104,0,0,left,395.011,395.0113,,0,,1,395.0113,395.0113,395.0116,396.5104,0,30,30,30,1,0.6,0.4,0.6,0.4,,,,,,,,,,,,,,,0.3998,,0.6,0.4,0.6,0.4,0.4,0.6,0.6,0.4,1,0,,,,,,,,,,,,
,,66daf1642fab82cb5a1df01b,66dafa10abf8c672cf55adbe,2024-09-06_15h06.44.113,mdp,2024.2.1,Win32,60.24096386,66d7945b1baad48e845df3ce,,,,,,,,,,,,,,,,,,,,,396.5105,396.5105,396.511,397.9437,0,1,left,0.9032,,397.9442,398.827,1,0,right,398.8275,398.8279,,0,,1,398.8279,398.8279,398.8281,400.3271,0,31,31,31,1,0.6,0.4,0.6,0.4,,,,,,,,,,,,,,,0.356,,0.6,0.4,0.6,0.4,0.4,0.6,0.6,0.4,1,0,,,,,,,,,,,,
,,66daf1642fab82cb5a1df01b,66dafa10abf8c672cf55adbe,2024-09-06_15h06.44.113,mdp,2024.2.1,Win32,60.24096386,66d7945b1baad48e845df3ce,,,,,,,,,,,,,,,,,,,,,400.3273,400.3273,400.3278,401.3271,0,0,left,0.4688,,401.3277,402.5272,0,0,left,402.5279,402.5283,,0,,1,402.5284,402.5284,402.5289,404.0271,0,32,32,32,1,0.6,0.4,0.6,0.4,,,,,,,,,,,,,,,0.6643,,0.8,0.2,0.4,0.6,0.4,0.6,0.6,0.4,1,0,,,,,,,,,,,,
,,66daf1642fab82cb5a1df01b,66dafa10abf8c672cf55adbe,2024-09-06_15h06.44.113,mdp,2024.2.1,Win32,60.24096386,66d7945b1baad48e845df3ce,,,,,,,,,,,,,,,,,,,,,404.0274,404.0274,404.0279,405.0937,0,1,left,0.5372,,405.0943,406.6103,0,0,left,406.611,406.6114,,1,,1,406.6114,406.6114,406.6117,408.1104,0,33,33,33,1,0.6,0.4,0.6,0.4,,,,,,,,,,,,,,,0.9825,,0.8,0.2,0.4,0.6,0.4,0.6,0.6,0.4,1,0,,,,,,,,,,,,
,,66daf1642fab82cb5a1df01b,66dafa10abf8c672cf55adbe,2024-09-06_15h06.44.113,mdp,2024.2.1,Win32,60.24096386,66d7945b1baad48e845df3ce,,,,,,,,,,,,,,,,,,,,,408.1106,408.1107,408.1111,409.2104,0,0,left,0.5741,,409.2109,410.277,0,0,left,410.2775,410.2778,,0,,1,410.2778,410.2778,410.278,411.777,0,34,34,34,1,0.6,0.4,0.6,0.4,,,,,,,,,,,,,,,0.5331,,0.8,0.2,0.4,0.6,0.4,0.6,0.6,0.4,1,0,,,,,,,,,,,,
,,66daf1642fab82cb5a1df01b,66dafa10abf8c672cf55adbe,2024-09-06_15h06.44.113,mdp,2024.2.1,Win32,60.24096386,66d7945b1baad48e845df3ce,,,,,,,,,,,,,,,,,,,,,411.7772,411.7772,411.7777,414.527,0,0,left,2.2142,,414.5275,415.6103,0,0,left,415.6109,415.6113,,1,,1,415.6113,415.6113,415.6116,417.1104,0,35,35,35,1,0.6,0.4,0.6,0.4,,,,,,,,,,,,,,,0.5747,,0.4,0.6,0.6,0.4,0.4,0.6,0.6,0.4,1,0,,,,,,,,,,,,
,,66daf1642fab82cb5a1df01b,66dafa10abf8c672cf55adbe,2024-09-06_15h06.44.113,mdp,2024.2.1,Win32,60.24096386,66d7945b1baad48e845df3ce,,,,,,,,,,,,,,,,,,,,,417.1107,417.1107,417.1112,418.4103,0,0,left,0.7666,,418.4109,419.5437,1,0,right,419.5442,419.5444,,1,,1,419.5445,419.5445,419.5447,421.0436,0,36,36,36,1,0.6,0.4,0.6,0.4,,,,,,,,,,,,,,,0.6024,,0.4,0.6,0.6,0.4,0.4,0.6,0.6,0.4,1,0,,,,,,,,,,,,
,,66daf1642fab82cb5a1df01b,66dafa10abf8c672cf55adbe,2024-09-06_15h06.44.113,mdp,2024.2.1,Win32,60.24096386,66d7945b1baad48e845df3ce,,,,,,,,,,,,,,,,,,,,,421.0439,421.0439,421.0442,422.4104,0,1,left,0.8413,,422.4108,423.5769,1,1,right,423.5774,423.5778,,1,,0,423.5778,423.5778,423.5781,425.0769,0,37,37,37,1,0.6,0.4,0.6,0.4,,,,,,,,,,,,,,,0.6412,,0.8,0.2,0.2,0.8,0.4,0.6,0.6,0.4,1,0,,,,,,,,,,,,
,,66daf1642fab82cb5a1df01b,66dafa10abf8c672cf55adbe,2024-09-06_15h06.44.113,mdp,2024.2.1,Win32,60.24096386,66d7945b1baad48e845df3ce,,,,,,,,,,,,,,,,,,,,,425.0771,425.0771,425.0776,426.877,1,0,right,1.2715,,426.8775,427.927,1,1,right,427.9275,427.9278,,1,,0,427.9278,427.9278,427.9282,429.427,0,38,38,38,1,0.6,0.4,0.6,0.4,,,,,,,,,,,,,,,0.5112,,0.8,0.2,0.2,0.8,0.6,0.4,0.4,0.6,1,0,,,,,,,,,,,,
,,66daf1642fab82cb5a1df01b,66dafa10abf8c672cf55adbe,2024-09-06_15h06.44.113,mdp,2024.2.1,Win32,60.24096386,66d7945b1baad48e845df3ce,,,,,,,,,,,,,,,,,,,,,429.4272,429.4272,429.4277,430.7646,1,0,right,0.7818,,430.765,431.977,1,1,right,431.9775,431.9778,,1,,0,431.9779,431.9779,431.9781,433.477,0,39,39,39,1,0.6,0.4,0.6,0.4,,,,,,,,,,,,,,,0.6937,,0.8,0.2,0.2,0.8,0.6,0.4,0.4,0.6,1,0,,,,,,,,,,,,
,,66daf1642fab82cb5a1df01b,66dafa10abf8c672cf55adbe,2024-09-06_15h06.44.113,mdp,2024.2.1,Win32,60.24096386,66d7945b1baad48e845df3ce,,,,,,,,,,,,,,,,,,,,,433.4772,433.4772,433.4776,434.7269,0,0,left,0.7125,,434.7276,435.9269,1,0,right,435.9276,435.9278,,0,,1,435.9278,435.9278,435.9282,437.427,0,40,40,40,1,0.6,0.4,0.6,0.4,,,,,,,,,,,,,,,0.6835,,0.6,0.4,0.8,0.2,0.6,0.4,0.4,0.6,1,0,,,,,,,,,,,,
,,66daf1642fab82cb5a1df01b,66dafa10abf8c672cf55adbe,2024-09-06_15h06.44.113,mdp,2024.2.1,Win32,60.24096386,66d7945b1baad48e845df3ce,,,,,,,,,,,,,,,,,,,,,437.4272,437.4272,437.4277,438.6436,0,1,left,0.69,,438.6441,439.7769,1,0,right,439.7774,439.7778,,0,,1,439.7778,439.7778,439.778,441.277,0,41,41,41,1,0.6,0.4,0.6,0.4,,,,,,,,,,,,,,,0.6078,,0.6,0.4,0.8,0.2,0.6,0.4,0.4,0.6,1,0,,,,,,,,,,,,
,,66daf1642fab82cb5a1df01b,66dafa10abf8c672cf55adbe,2024-09-06_15h06.44.113,mdp,2024.2.1,Win32,60.24096386,66d7945b1baad48e845df3ce,,,,,,,,,,,,,,,,,,,,,441.2771,441.2771,441.2776,444.6436,0,1,left,2.8396,,444.6441,445.4269,1,1,right,445.4276,445.428,,0,,0,445.428,445.428,445.4282,446.927,0,42,42,42,1,0.6,0.4,0.6,0.4,,,,,,,,,,,,,,,0.2673,,0.6,0.4,0.8,0.2,0.6,0.4,0.4,0.6,1,0,,,,,,,,,,,,
,,66daf1642fab82cb5a1df01b,66dafa10abf8c672cf55adbe,2024-09-06_15h06.44.113,mdp,2024.2.1,Win32,60.24096386,66d7945b1baad48e845df3ce,,,,,,,,,,,,,,,,,,,,,446.9272,446.9272,446.9277,448.5603,1,0,right,1.1141,,448.5608,449.4769,0,1,left,449.4774,449.4778,,1,,0,449.4778,449.4778,449.4781,450.977,0,43,43,43,1,0.6,0.4,0.6,0.4,,,,,,,,,,,,,,,0.3866,,0.6,0.4,0.8,0.2,0.6,0.4,0.4,0.6,1,0,,,,,,,,,,,,
,,66daf1642fab82cb5a1df01b,66dafa10abf8c672cf55adbe,2024-09-06_15h06.44.113,mdp,2024.2.1,Win32,60.24096386,66d7945b1baad48e845df3ce,,,,,,,,,,,,,,,,,,,,,450.9772,450.9772,450.9778,452.1436,0,1,left,0.6362,,452.1441,453.0103,1,0,right,453.0108,453.0111,,1,,1,453.0112,453.0112,453.0114,454.5102,0,44,44,44,1,0.6,0.4,0.6,0.4,,,,,,,,,,,,,,,0.3482,,0.6,0.4,0.8,0.2,0.6,0.4,0.4,0.6,1,0,,,,,,,,,,,,
,,66daf1642fab82cb5a1df01b,66dafa10abf8c672cf55adbe,2024-09-06_15h06.44.113,mdp,2024.2.1,Win32,60.24096386,66d7945b1baad48e845df3ce,,,,,,,,,,,,,,,,,,,,,454.5105,454.5105,454.511,455.6935,0,0,left,0.6503,,455.6941,456.5602,1,0,right,456.5609,456.5612,,1,,1,456.5612,456.5612,456.5616,458.0603,0,45,45,45,1,0.6,0.4,0.6,0.4,,,,,,,,,,,,,,,0.334,,0.6,0.4,0.8,0.2,0.6,0.4,0.4,0.6,1,0,,,,,,,,,,,,
,,66daf1642fab82cb5a1df01b,66dafa10abf8c672cf55adbe,2024-09-06_15h06.44.113,mdp,2024.2.1,Win32,60.24096386,66d7945b1baad48e845df3ce,,,,,,,,,,,,,,,,,,,,,458.0605,458.0605,458.0609,459.6936,0,0,left,1.0963,,459.6942,460.5603,1,0,right,460.5609,460.5612,,0,,1,460.5613,460.5613,460.5615,462.0603,0,46,46,46,1,0.6,0.4,0.6,0.4,,,,,,,,,,,,,,,0.3352,,0.6,0.4,0.8,0.2,0.6,0.4,0.4,0.6,1,0,,,,,,,,,,,,
,,66daf1642fab82cb5a1df01b,66dafa10abf8c672cf55adbe,2024-09-06_15h06.44.113,mdp,2024.2.1,Win32,60.24096386,66d7945b1baad48e845df3ce,,,,,,,,,,,,,,,,,,,,,462.0606,462.0606,462.0611,463.2435,0,0,left,0.6604,,463.244,464.0268,1,0,right,464.0274,464.0277,,0,,1,464.0277,464.0277,464.028,465.5268,0,47,47,47,1,0.6,0.4,0.6,0.4,,,,,,,,,,,,,,,0.2616,,0.6,0.4,0.8,0.2,0.6,0.4,0.4,0.6,1,0,,,,,,,,,,,,
,,66daf1642fab82cb5a1df01b,66dafa10abf8c672cf55adbe,2024-09-06_15h06.44.113,mdp,2024.2.1,Win32,60.24096386,66d7945b1baad48e845df3ce,,,,,,,,,,,,,,,,,,,,,465.5271,465.5271,465.5277,466.5269,0,0,left,0.4669,,466.5275,467.2269,1,0,right,467.2274,467.2278,,0,,1,467.2278,467.2278,467.228,468.7269,0,48,48,48,1,0.6,0.4,0.6,0.4,,,,,,,,,,,,,,,0.1711,,0.6,0.4,0.8,0.2,0.2,0.8,0.2,0.8,1,0,,,,,,,,,,,,
,,66daf1642fab82cb5a1df01b,66dafa10abf8c672cf55adbe,2024-09-06_15h06.44.113,mdp,2024.2.1,Win32,60.24096386,66d7945b1baad48e845df3ce,,,,,,,,,,,,,,,,,,,,,468.7271,468.7271,468.7276,469.7602,0,1,left,0.5013,,469.7607,470.6436,1,0,right,470.644,470.6444,,0,,1,470.6444,470.6444,470.6446,472.1437,0,49,49,49,1,0.6,0.4,0.6,0.4,,,,,,,,,,,,,,,0.3638,,0.6,0.4,0.8,0.2,0.2,0.8,0.2,0.8,1,0,,,,,,,,,,,,
,,66daf1642fab82cb5a1df01b,66dafa10abf8c672cf55adbe,2024-09-06_15h06.44.113,mdp,2024.2.1,Win32,60.24096386,66d7945b1baad48e845df3ce,,,,,,,,,,,,,,,,,,,,,,,,,,,,,,,,,,,,,,,,,,,,,,,,,,,,,,,,472.1438,530.6603,0,1,1,5,1,imgs/kangaroo.png,imgs/bear.png,imgs/giraffe.png,imgs/cat.png,imgs/elephant.png,,,,,,,,,,,,,,,,,,,,,,,,
,,66daf1642fab82cb5a1df01b,66dafa10abf8c672cf55adbe,2024-09-06_15h06.44.113,mdp,2024.2.1,Win32,60.24096386,66d7945b1baad48e845df3ce,,,,,,,,,,,,,,3,seqs/st3seq6.csv,530.667,545.677,space,14.4869,,545.6808,545.6808,545.6811,546.8433,0,0,left,0.6418,,546.844,547.7934,1,1,right,547.794,549.1934,0,1,left,0,549.1934,549.1934,549.194,550.6935,0,0,0,0,1,0.6,0.4,0.4,0.6,,,,,,,,,,,,,,,0.438,,0.2,0.8,0.8,0.2,0.8,0.2,0.8,0.2,,,0.8686,,0.8,0.2,0.4,0.6,0.2,0.8,0.8,0.2,1,0
,,66daf1642fab82cb5a1df01b,66dafa10abf8c672cf55adbe,2024-09-06_15h06.44.113,mdp,2024.2.1,Win32,60.24096386,66d7945b1baad48e845df3ce,,,,,,,,,,,,,,,,,,,,,550.6939,550.6939,550.6943,551.91,0,0,left,0.6889,,551.9108,552.81,0,1,left,552.8108,553.6935,0,1,left,0,553.6935,553.6935,553.6939,555.1934,0,1,1,1,1,0.6,0.4,0.4,0.6,,,,,,,,,,,,,,,0.3755,,0.2,0.8,0.8,0.2,0.8,0.2,0.8,0.2,,,0.3512,,0.8,0.2,0.4,0.6,0.2,0.8,0.8,0.2,1,0
,,66daf1642fab82cb5a1df01b,66dafa10abf8c672cf55adbe,2024-09-06_15h06.44.113,mdp,2024.2.1,Win32,60.24096386,66d7945b1baad48e845df3ce,,,,,,,,,,,,,,,,,,,,,555.1936,555.1936,555.1941,556.06,1,1,right,0.3396,,556.0607,556.8767,0,0,left,556.8774,557.7267,1,0,right,1,557.7267,557.7267,557.7274,559.2267,0,2,2,2,1,0.6,0.4,0.4,0.6,,,,,,,,,,,,,,,0.2985,,0.2,0.8,0.8,0.2,0.8,0.2,0.8,0.2,,,0.3157,,0.8,0.2,0.4,0.6,0.2,0.8,0.8,0.2,1,0
,,66daf1642fab82cb5a1df01b,66dafa10abf8c672cf55adbe,2024-09-06_15h06.44.113,mdp,2024.2.1,Win32,60.24096386,66d7945b1baad48e845df3ce,,,,,,,,,,,,,,,,,,,,,559.2269,559.227,559.2274,560.1766,1,0,right,0.4183,,560.1774,561.06,0,1,left,561.0606,561.96,1,1,right,0,561.96,561.96,561.9605,563.46,0,3,3,3,1,0.6,0.4,0.4,0.6,,,,,,,,,,,,,,,0.3655,,0.2,0.8,0.8,0.2,0.8,0.2,0.8,0.2,,,0.3753,,0.8,0.2,0.4,0.6,0.2,0.8,0.8,0.2,1,0
,,66daf1642fab82cb5a1df01b,66dafa10abf8c672cf55adbe,2024-09-06_15h06.44.113,mdp,2024.2.1,Win32,60.24096386,66d7945b1baad48e845df3ce,,,,,,,,,,,,,,,,,,,,,563.4604,563.4604,563.4609,564.3434,1,1,right,0.3532,,564.344,565.6267,0,1,left,565.6273,566.5934,1,0,right,1,566.5935,566.5935,566.594,568.0935,0,4,4,4,1,0.6,0.4,0.4,0.6,,,,,,,,,,,,,,,0.7575,,0.2,0.8,0.8,0.2,0.8,0.2,0.8,0.2,,,0.4515,,0.8,0.2,0.4,0.6,0.2,0.8,0.8,0.2,1,0
,,66daf1642fab82cb5a1df01b,66dafa10abf8c672cf55adbe,2024-09-06_15h06.44.113,mdp,2024.2.1,Win32,60.24096386,66d7945b1baad48e845df3ce,,,,,,,,,,,,,,,,,,,,,568.0938,568.0938,568.0942,569.0933,0,0,left,0.4669,,569.0939,569.9434,1,0,right,569.944,570.9767,0,0,left,1,570.9767,570.9767,570.9772,572.4767,0,5,5,5,1,0.6,0.4,0.4,0.6,,,,,,,,,,,,,,,0.3181,,0.2,0.8,0.8,0.2,0.8,0.2,0.8,0.2,,,0.5016,,0.8,0.2,0.4,0.6,0.2,0.8,0.8,0.2,1,0
,,66daf1642fab82cb5a1df01b,66dafa10abf8c672cf55adbe,2024-09-06_15h06.44.113,mdp,2024.2.1,Win32,60.24096386,66d7945b1baad48e845df3ce,,,,,,,,,,,,,,,,,,,,,572.477,572.477,572.4776,573.56,1,1,right,0.5529,,573.5607,574.46,0,0,left,574.4606,575.56,1,1,right,0,575.56,575.56,575.5606,577.06,0,6,6,6,1,0.6,0.4,0.4,0.6,,,,,,,,,,,,,,,0.3724,,0.2,0.8,0.8,0.2,0.8,0.2,0.8,0.2,,,0.5677,,0.8,0.2,0.4,0.6,0.2,0.8,0.8,0.2,1,0
,,66daf1642fab82cb5a1df01b,66dafa10abf8c672cf55adbe,2024-09-06_15h06.44.113,mdp,2024.2.1,Win32,60.24096386,66d7945b1baad48e845df3ce,,,,,,,,,,,,,,,,,,,,,577.0603,577.0603,577.0607,578.11,0,1,left,0.522,,578.1106,579.0599,1,0,right,579.0605,579.96,0,0,left,1,579.96,579.96,579.9606,581.4599,0,7,7,7,1,0.6,0.4,0.4,0.6,,,,,,,,,,,,,,,0.434,,0.2,0.8,0.8,0.2,0.8,0.2,0.8,0.2,,,0.3933,,0.4,0.6,0.2,0.8,0.2,0.8,0.8,0.2,1,0
,,66daf1642fab82cb5a1df01b,66dafa10abf8c672cf55adbe,2024-09-06_15h06.44.113,mdp,2024.2.1,Win32,60.24096386,66d7945b1baad48e845df3ce,,,,,,,,,,,,,,,,,,,,,581.4602,581.4602,581.4606,582.5933,0,1,left,0.6031,,582.594,583.4101,1,0,right,583.4107,584.4267,0,0,left,1,584.4267,584.4267,584.4273,585.9266,0,8,8,8,1,0.6,0.4,0.4,0.6,,,,,,,,,,,,,,,0.2919,,0.2,0.8,0.8,0.2,0.2,0.8,0.2,0.8,,,0.4847,,0.4,0.6,0.2,0.8,0.2,0.8,0.8,0.2,1,0
,,66daf1642fab82cb5a1df01b,66dafa10abf8c672cf55adbe,2024-09-06_15h06.44.113,mdp,2024.2.1,Win32,60.24096386,66d7945b1baad48e845df3ce,,,,,,,,,,,,,,,,,,,,,585.9269,585.9269,585.9274,586.9933,0,1,left,0.5345,,586.994,587.81,1,1,right,587.8104,588.66,0,1,left,0,588.66,588.66,588.6606,590.16,0,9,9,9,1,0.6,0.4,0.4,0.6,,,,,,,,,,,,,,,0.3099,,0.2,0.8,0.8,0.2,0.2,0.8,0.2,0.8,,,0.322,,0.4,0.6,0.2,0.8,0.2,0.8,0.8,0.2,1,0
,,66daf1642fab82cb5a1df01b,66dafa10abf8c672cf55adbe,2024-09-06_15h06.44.113,mdp,2024.2.1,Win32,60.24096386,66d7945b1baad48e845df3ce,,,,,,,,,,,,,,,,,,,,,590.1602,590.1602,590.1607,591.2433,0,0,left,0.557,,591.2438,592.11,0,1,left,592.1106,592.86,1,0,right,1,592.86,592.86,592.8606,594.36,0,10,10,10,1,0.6,0.4,0.4,0.6,,,,,,,,,,,,,,,0.3492,,0.2,0.8,0.8,0.2,0.2,0.8,0.2,0.8,,,0.2167,,0.4,0.6,0.2,0.8,0.2,0.8,0.8,0.2,1,0
,,66daf1642fab82cb5a1df01b,66dafa10abf8c672cf55adbe,2024-09-06_15h06.44.113,mdp,2024.2.1,Win32,60.24096386,66d7945b1baad48e845df3ce,,,,,,,,,,,,,,,,,,,,,594.3602,594.3602,594.3607,595.4599,0,0,left,0.5733,,595.4606,596.2433,1,1,right,596.2439,597.1434,0,1,left,0,597.1434,597.1434,597.144,598.6433,0,11,11,11,1,0.6,0.4,0.4,0.6,,,,,,,,,,,,,,,0.2506,,0.2,0.8,0.8,0.2,0.2,0.8,0.2,0.8,,,0.3677,,0.4,0.6,0.2,0.8,0.2,0.8,0.8,0.2,1,0
,,66daf1642fab82cb5a1df01b,66dafa10abf8c672cf55adbe,2024-09-06_15h06.44.113,mdp,2024.2.1,Win32,60.24096386,66d7945b1baad48e845df3ce,,,,,,,,,,,,,,,,,,,,,598.6436,598.6436,598.6442,599.7933,0,1,left,0.6181,,599.7939,600.6599,1,1,right,600.6606,601.5599,0,1,left,0,601.5599,601.5599,601.5604,603.06,0,12,12,12,1,0.6,0.4,0.4,0.6,,,,,,,,,,,,,,,0.3309,,0.2,0.8,0.8,0.2,0.2,0.8,0.2,0.8,,,0.3766,,0.4,0.6,0.2,0.8,0.2,0.8,0.8,0.2,1,0
,,66daf1642fab82cb5a1df01b,66dafa10abf8c672cf55adbe,2024-09-06_15h06.44.113,mdp,2024.2.1,Win32,60.24096386,66d7945b1baad48e845df3ce,,,,,,,,,,,,,,,,,,,,,603.0603,603.0603,603.0607,604.0767,1,0,right,0.4838,,604.0772,604.9267,0,0,left,604.9275,605.76,1,0,right,1,605.76,605.76,605.7605,607.26,0,13,13,13,1,0.6,0.4,0.4,0.6,,,,,,,,,,,,,,,0.3204,,0.2,0.8,0.8,0.2,0.2,0.8,0.2,0.8,,,0.3007,,0.6,0.4,0.8,0.2,0.2,0.8,0.8,0.2,1,0
,,66daf1642fab82cb5a1df01b,66dafa10abf8c672cf55adbe,2024-09-06_15h06.44.113,mdp,2024.2.1,Win32,60.24096386,66d7945b1baad48e845df3ce,,,,,,,,,,,,,,,,,,,,,607.2603,607.2603,607.2608,608.5599,0,1,left,0.7687,,608.5605,609.36,1,1,right,609.3604,610.2266,0,1,left,0,610.2266,610.2266,610.2271,611.7266,0,14,14,14,1,0.6,0.4,0.4,0.6,,,,,,,,,,,,,,,0.2656,,0.8,0.2,0.6,0.4,0.2,0.8,0.2,0.8,,,0.3299,,0.6,0.4,0.8,0.2,0.2,0.8,0.8,0.2,1,0
,,66daf1642fab82cb5a1df01b,66dafa10abf8c672cf55adbe,2024-09-06_15h06.44.113,mdp,2024.2.1,Win32,60.24096386,66d7945b1baad48e845df3ce,,,,,,,,,,,,,,,,,,,,,611.7269,611.7269,611.7275,612.8933,1,1,right,0.6336,,612.8939,613.7267,1,1,right,613.7272,614.5767,0,1,left,0,614.5767,614.5767,614.5771,616.0766,0,15,15,15,1,0.6,0.4,0.4,0.6,,,,,,,,,,,,,,,0.3002,,0.8,0.2,0.6,0.4,0.2,0.8,0.2,0.8,,,0.3186,,0.6,0.4,0.8,0.2,0.2,0.8,0.8,0.2,1,0
,,66daf1642fab82cb5a1df01b,66dafa10abf8c672cf55adbe,2024-09-06_15h06.44.113,mdp,2024.2.1,Win32,60.24096386,66d7945b1baad48e845df3ce,,,,,,,,,,,,,,,,,,,,,616.0768,616.0768,616.0772,617.2267,1,0,right,0.6169,,617.2271,618.1766,1,1,right,618.1772,618.9933,0,1,left,0,618.9933,618.9933,618.9938,620.4933,0,16,16,16,1,0.6,0.4,0.4,0.6,,,,,,,,,,,,,,,0.416,,0.8,0.2,0.6,0.4,0.2,0.8,0.2,0.8,,,0.2922,,0.6,0.4,0.8,0.2,0.2,0.8,0.8,0.2,1,0
,,66daf1642fab82cb5a1df01b,66dafa10abf8c672cf55adbe,2024-09-06_15h06.44.113,mdp,2024.2.1,Win32,60.24096386,66d7945b1baad48e845df3ce,,,,,,,,,,,,,,,,,,,,,620.4935,620.4935,620.4941,621.4932,0,0,left,0.4673,,621.4937,622.3099,1,1,right,622.3105,623.1099,0,1,left,0,623.1099,623.1099,623.1104,624.6099,0,17,17,17,1,0.6,0.4,0.4,0.6,,,,,,,,,,,,,,,0.2836,,0.8,0.2,0.6,0.4,0.2,0.8,0.2,0.8,,,0.2719,,0.6,0.4,0.8,0.2,0.2,0.8,0.8,0.2,1,0
,,66daf1642fab82cb5a1df01b,66dafa10abf8c672cf55adbe,2024-09-06_15h06.44.113,mdp,2024.2.1,Win32,60.24096386,66d7945b1baad48e845df3ce,,,,,,,,,,,,,,,,,,,,,624.6102,624.6102,624.6106,625.6432,0,1,left,0.5079,,625.6438,626.4766,1,1,right,626.4772,627.2599,1,0,right,1,627.26,627.26,627.2605,628.7599,0,18,18,18,1,0.6,0.4,0.4,0.6,,,,,,,,,,,,,,,0.3046,,0.8,0.2,0.6,0.4,0.2,0.8,0.2,0.8,,,0.2504,,0.6,0.4,0.8,0.2,0.2,0.8,0.8,0.2,1,0
,,66daf1642fab82cb5a1df01b,66dafa10abf8c672cf55adbe,2024-09-06_15h06.44.113,mdp,2024.2.1,Win32,60.24096386,66d7945b1baad48e845df3ce,,,,,,,,,,,,,,,,,,,,,628.7602,628.7602,628.7607,629.6766,0,0,left,0.3889,,629.6772,630.5599,1,1,right,630.5605,631.4932,0,1,left,0,631.4933,631.4933,631.4938,632.9932,0,19,19,19,1,0.6,0.4,0.4,0.6,,,,,,,,,,,,,,,0.3494,,0.8,0.2,0.6,0.4,0.2,0.8,0.2,0.8,,,0.4048,,0.6,0.4,0.8,0.2,0.2,0.8,0.8,0.2,1,0
,,66daf1642fab82cb5a1df01b,66dafa10abf8c672cf55adbe,2024-09-06_15h06.44.113,mdp,2024.2.1,Win32,60.24096386,66d7945b1baad48e845df3ce,,,,,,,,,,,,,,,,,,,,,632.9934,632.9934,632.9939,633.9599,0,1,left,0.4338,,633.9604,635.2599,1,0,right,635.2604,636.1266,1,0,right,1,636.1266,636.1266,636.1271,637.6266,0,20,20,20,1,0.6,0.4,0.4,0.6,,,,,,,,,,,,,,,0.7825,,0.8,0.2,0.6,0.4,0.8,0.2,0.4,0.6,,,0.3335,,0.6,0.4,0.8,0.2,0.2,0.8,0.8,0.2,1,0
,,66daf1642fab82cb5a1df01b,66dafa10abf8c672cf55adbe,2024-09-06_15h06.44.113,mdp,2024.2.1,Win32,60.24096386,66d7945b1baad48e845df3ce,,,,,,,,,,,,,,,,,,,,,637.6268,637.6268,637.6273,638.6932,0,0,left,0.5379,,638.6938,639.5599,1,1,right,639.5604,640.4265,1,0,right,1,640.4266,640.4266,640.4271,641.9266,0,21,21,21,1,0.6,0.4,0.4,0.6,,,,,,,,,,,,,,,0.3325,,0.8,0.2,0.6,0.4,0.8,0.2,0.4,0.6,,,0.3406,,0.6,0.4,0.8,0.2,0.2,0.8,0.8,0.2,1,0
,,66daf1642fab82cb5a1df01b,66dafa10abf8c672cf55adbe,2024-09-06_15h06.44.113,mdp,2024.2.1,Win32,60.24096386,66d7945b1baad48e845df3ce,,,,,,,,,,,,,,,,,,,,,641.9269,641.927,641.9275,643.0599,0,0,left,0.6063,,643.0603,643.8932,1,0,right,643.8939,644.7598,1,0,right,1,644.76,644.76,644.7605,646.2599,0,22,22,22,1,0.6,0.4,0.4,0.6,,,,,,,,,,,,,,,0.3056,,0.8,0.2,0.6,0.4,0.8,0.2,0.4,0.6,,,0.3512,,0.6,0.4,0.8,0.2,0.2,0.8,0.8,0.2,1,0
,,66daf1642fab82cb5a1df01b,66dafa10abf8c672cf55adbe,2024-09-06_15h06.44.113,mdp,2024.2.1,Win32,60.24096386,66d7945b1baad48e845df3ce,,,,,,,,,,,,,,,,,,,,,646.2601,646.2602,646.2608,647.5599,0,1,left,0.767,,647.5605,648.3432,1,1,right,648.3436,649.1599,1,0,right,1,649.1599,649.1599,649.1605,650.6599,0,23,23,23,1,0.6,0.4,0.4,0.6,,,,,,,,,,,,,,,0.25,,0.8,0.2,0.6,0.4,0.8,0.2,0.4,0.6,,,0.2844,,0.4,0.6,0.6,0.4,0.2,0.8,0.8,0.2,1,0
,,66daf1642fab82cb5a1df01b,66dafa10abf8c672cf55adbe,2024-09-06_15h06.44.113,mdp,2024.2.1,Win32,60.24096386,66d7945b1baad48e845df3ce,,,,,,,,,,,,,,,,,,,,,650.6601,650.6601,650.6605,651.9432,0,0,left,0.7503,,651.9437,652.7432,1,0,right,652.7438,653.9598,1,0,right,1,653.9598,653.9599,653.9603,655.4597,0,24,24,24,1,0.6,0.4,0.4,0.6,,,,,,,,,,,,,,,0.2645,,0.8,0.2,0.6,0.4,0.8,0.2,0.4,0.6,,,0.6925,,0.4,0.6,0.6,0.4,0.2,0.8,0.8,0.2,1,0
,,66daf1642fab82cb5a1df01b,66dafa10abf8c672cf55adbe,2024-09-06_15h06.44.113,mdp,2024.2.1,Win32,60.24096386,66d7945b1baad48e845df3ce,,,,,,,,,,,,,,,,,,,,,655.4601,655.4601,655.4606,656.4932,1,0,right,0.5003,,656.4937,657.4767,0,0,left,657.4776,658.3099,1,1,right,0,658.3099,658.3099,658.3104,659.8099,0,25,25,25,1,0.6,0.4,0.4,0.6,,,,,,,,,,,,,,,0.467,,0.8,0.2,0.6,0.4,0.8,0.2,0.4,0.6,,,0.306,,0.4,0.6,0.6,0.4,0.2,0.8,0.8,0.2,1,0
,,66daf1642fab82cb5a1df01b,66dafa10abf8c672cf55adbe,2024-09-06_15h06.44.113,mdp,2024.2.1,Win32,60.24096386,66d7945b1baad48e845df3ce,,,,,,,,,,,,,,,,,,,,,659.8102,659.8102,659.8109,660.7931,0,1,left,0.4591,,660.7937,661.6764,1,1,right,661.6774,662.6765,1,0,right,1,662.6766,662.6766,662.6773,664.1764,0,26,26,26,1,0.6,0.4,0.4,0.6,,,,,,,,,,,,,,,0.3718,,0.8,0.2,0.6,0.4,0.8,0.2,0.4,0.6,,,0.4715,,0.4,0.6,0.6,0.4,0.2,0.8,0.8,0.2,1,0
,,66daf1642fab82cb5a1df01b,66dafa10abf8c672cf55adbe,2024-09-06_15h06.44.113,mdp,2024.2.1,Win32,60.24096386,66d7945b1baad48e845df3ce,,,,,,,,,,,,,,,,,,,,,664.1767,664.1767,664.1771,665.3431,0,1,left,0.6439,,665.3437,666.9265,1,0,right,666.9272,667.8265,1,1,right,0,667.8266,667.8266,667.827,669.3264,0,27,27,27,1,0.6,0.4,0.4,0.6,,,,,,,,,,,,,,,1.0703,,0.8,0.2,0.6,0.4,0.8,0.2,0.4,0.6,,,0.3659,,0.2,0.8,0.2,0.8,0.2,0.8,0.8,0.2,1,0
,,66daf1642fab82cb5a1df01b,66dafa10abf8c672cf55adbe,2024-09-06_15h06.44.113,mdp,2024.2.1,Win32,60.24096386,66d7945b1baad48e845df3ce,,,,,,,,,,,,,,,,,,,,,669.3267,669.3267,669.3273,670.6266,0,0,left,0.7668,,670.6271,671.4431,1,1,right,671.4437,672.3931,1,0,right,1,672.3932,672.3932,672.3937,673.8932,0,28,28,28,1,0.6,0.4,0.4,0.6,,,,,,,,,,,,,,,0.29,,0.8,0.2,0.6,0.4,0.8,0.2,0.4,0.6,,,0.4173,,0.2,0.8,0.2,0.8,0.2,0.8,0.8,0.2,1,0
,,66daf1642fab82cb5a1df01b,66dafa10abf8c672cf55adbe,2024-09-06_15h06.44.113,mdp,2024.2.1,Win32,60.24096386,66d7945b1baad48e845df3ce,,,,,,,,,,,,,,,,,,,,,673.8935,673.8935,673.8939,674.9765,0,1,left,0.5512,,674.977,675.7599,1,1,right,675.7605,676.6764,1,0,right,1,676.6765,676.6765,676.677,678.1765,0,29,29,29,1,0.6,0.4,0.4,0.6,,,,,,,,,,,,,,,0.2509,,0.8,0.2,0.6,0.4,0.8,0.2,0.4,0.6,,,0.388,,0.2,0.8,0.2,0.8,0.2,0.8,0.8,0.2,1,0
,,66daf1642fab82cb5a1df01b,66dafa10abf8c672cf55adbe,2024-09-06_15h06.44.113,mdp,2024.2.1,Win32,60.24096386,66d7945b1baad48e845df3ce,,,,,,,,,,,,,,,,,,,,,678.1767,678.1767,678.1771,679.0264,0,1,left,0.3255,,679.027,679.8597,1,1,right,679.8603,680.6598,1,0,right,1,680.6598,680.6598,680.6605,682.1598,0,30,30,30,1,0.6,0.4,0.4,0.6,,,,,,,,,,,,,,,0.3002,,0.8,0.2,0.6,0.4,0.8,0.2,0.4,0.6,,,0.2696,,0.2,0.8,0.2,0.8,0.2,0.8,0.8,0.2,1,0
,,66daf1642fab82cb5a1df01b,66dafa10abf8c672cf55adbe,2024-09-06_15h06.44.113,mdp,2024.2.1,Win32,60.24096386,66d7945b1baad48e845df3ce,,,,,,,,,,,,,,,,,,,,,682.16,682.16,682.1605,683.0764,0,1,left,0.3889,,683.0769,683.8765,1,1,right,683.877,684.7098,1,0,right,1,684.7098,684.7098,684.7105,686.2099,0,31,31,31,1,0.6,0.4,0.4,0.6,,,,,,,,,,,,,,,0.2668,,0.8,0.2,0.6,0.4,0.8,0.2,0.4,0.6,,,0.3046,,0.2,0.8,0.2,0.8,0.2,0.8,0.8,0.2,1,0
,,66daf1642fab82cb5a1df01b,66dafa10abf8c672cf55adbe,2024-09-06_15h06.44.113,mdp,2024.2.1,Win32,60.24096386,66d7945b1baad48e845df3ce,,,,,,,,,,,,,,,,,,,,,686.2101,686.2102,686.2106,686.9765,0,0,left,0.2361,,686.977,687.7931,1,0,right,687.7937,688.6265,1,0,right,1,688.6265,688.6265,688.627,690.1265,0,32,32,32,1,0.6,0.4,0.4,0.6,,,,,,,,,,,,,,,0.2834,,0.8,0.2,0.6,0.4,0.8,0.2,0.4,0.6,,,0.2989,,0.2,0.8,0.2,0.8,0.2,0.8,0.8,0.2,1,0
,,66daf1642fab82cb5a1df01b,66dafa10abf8c672cf55adbe,2024-09-06_15h06.44.113,mdp,2024.2.1,Win32,60.24096386,66d7945b1baad48e845df3ce,,,,,,,,,,,,,,,,,,,,,690.1267,690.1267,690.1272,690.9598,0,1,left,0.2989,,690.9605,691.7264,1,1,right,691.727,692.4764,1,0,right,1,692.4764,692.4764,692.4769,693.9765,0,33,33,33,1,0.6,0.4,0.4,0.6,,,,,,,,,,,,,,,0.2364,,0.8,0.2,0.6,0.4,0.8,0.2,0.4,0.6,,,0.2316,,0.4,0.6,0.6,0.4,0.2,0.8,0.8,0.2,1,0
,,66daf1642fab82cb5a1df01b,66dafa10abf8c672cf55adbe,2024-09-06_15h06.44.113,mdp,2024.2.1,Win32,60.24096386,66d7945b1baad48e845df3ce,,,,,,,,,,,,,,,,,,,,,693.9766,693.9766,693.9771,695.0265,0,0,left,0.5169,,695.0269,695.9764,1,0,right,695.9769,696.9098,1,1,right,0,696.9098,696.9098,696.9103,698.4098,0,34,34,34,1,0.6,0.4,0.4,0.6,,,,,,,,,,,,,,,0.4424,,0.8,0.2,0.6,0.4,0.8,0.2,0.4,0.6,,,0.4203,,0.4,0.6,0.6,0.4,0.6,0.4,0.2,0.8,1,0
,,66daf1642fab82cb5a1df01b,66dafa10abf8c672cf55adbe,2024-09-06_15h06.44.113,mdp,2024.2.1,Win32,60.24096386,66d7945b1baad48e845df3ce,,,,,,,,,,,,,,,,,,,,,698.41,698.41,698.4105,699.5598,0,0,left,0.6169,,699.5605,700.3763,1,1,right,700.377,701.1931,1,0,right,1,701.1932,701.1932,701.1939,702.6931,0,35,35,35,1,0.6,0.4,0.4,0.6,,,,,,,,,,,,,,,0.2928,,0.8,0.2,0.6,0.4,0.8,0.2,0.4,0.6,,,0.2847,,0.4,0.6,0.6,0.4,0.6,0.4,0.2,0.8,1,0
,,66daf1642fab82cb5a1df01b,66dafa10abf8c672cf55adbe,2024-09-06_15h06.44.113,mdp,2024.2.1,Win32,60.24096386,66d7945b1baad48e845df3ce,,,,,,,,,,,,,,,,,,,,,702.6934,702.6934,702.6937,703.5763,0,0,left,0.3599,,703.5769,704.2932,1,1,right,704.2937,705.1597,1,1,right,0,705.1598,705.1598,705.1603,706.6597,0,36,36,36,1,0.6,0.4,0.4,0.6,,,,,,,,,,,,,,,0.2002,,0.8,0.2,0.6,0.4,0.8,0.2,0.4,0.6,,,0.3435,,0.4,0.6,0.6,0.4,0.6,0.4,0.2,0.8,1,0
,,66daf1642fab82cb5a1df01b,66dafa10abf8c672cf55adbe,2024-09-06_15h06.44.113,mdp,2024.2.1,Win32,60.24096386,66d7945b1baad48e845df3ce,,,,,,,,,,,,,,,,,,,,,706.66,706.66,706.6604,708.0932,0,1,left,0.9065,,708.0937,708.9598,1,0,right,708.9604,709.7597,1,1,right,0,709.7597,709.7597,709.7601,711.2597,0,37,37,37,1,0.6,0.4,0.4,0.6,,,,,,,,,,,,,,,0.3431,,0.8,0.2,0.6,0.4,0.8,0.2,0.4,0.6,,,0.2764,,0.4,0.6,0.6,0.4,0.6,0.4,0.2,0.8,1,0
,,66daf1642fab82cb5a1df01b,66dafa10abf8c672cf55adbe,2024-09-06_15h06.44.113,mdp,2024.2.1,Win32,60.24096386,66d7945b1baad48e845df3ce,,,,,,,,,,,,,,,,,,,,,711.2599,711.2599,711.2603,712.9263,0,0,left,1.1379,,712.9271,713.7265,1,0,right,713.727,714.9097,1,0,right,1,714.9097,714.9097,714.9103,716.4412,0,38,38,38,1,0.6,0.4,0.4,0.6,,,,,,,,,,,,,,,0.2688,,0.8,0.2,0.6,0.4,0.8,0.2,0.4,0.6,,,0.6486,,0.6,0.4,0.8,0.2,0.6,0.4,0.2,0.8,1,0
,,66daf1642fab82cb5a1df01b,66dafa10abf8c672cf55adbe,2024-09-06_15h06.44.113,mdp,2024.2.1,Win32,60.24096386,66d7945b1baad48e845df3ce,,,,,,,,,,,,,,,,,,,,,716.4415,716.4415,716.4421,718.0099,0,0,left,1.0478,,718.0105,718.96,1,0,right,718.9605,719.8765,1,1,right,0,719.8765,719.8765,719.8771,721.3765,0,39,39,39,1,0.6,0.4,0.4,0.6,,,,,,,,,,,,,,,0.4294,,0.8,0.2,0.6,0.4,0.8,0.2,0.4,0.6,,,0.3826,,0.6,0.4,0.8,0.2,0.6,0.4,0.2,0.8,1,0
,,66daf1642fab82cb5a1df01b,66dafa10abf8c672cf55adbe,2024-09-06_15h06.44.113,mdp,2024.2.1,Win32,60.24096386,66d7945b1baad48e845df3ce,,,,,,,,,,,,,,,,,,,,,721.3767,721.3767,721.3771,722.4598,1,1,right,0.5495,,722.4603,723.2764,1,0,right,723.277,724.0932,1,0,right,1,724.0932,724.0932,724.0939,725.5932,0,40,40,40,1,0.6,0.4,0.4,0.6,,,,,,,,,,,,,,,0.2829,,0.8,0.2,0.6,0.4,0.8,0.2,0.4,0.6,,,0.284,,0.6,0.4,0.8,0.2,0.6,0.4,0.2,0.8,1,0
,,66daf1642fab82cb5a1df01b,66dafa10abf8c672cf55adbe,2024-09-06_15h06.44.113,mdp,2024.2.1,Win32,60.24096386,66d7945b1baad48e845df3ce,,,,,,,,,,,,,,,,,,,,,725.5935,725.5935,725.5942,726.5597,1,1,right,0.4336,,726.5602,727.4765,1,1,right,727.477,728.3098,1,1,right,0,728.3099,728.3099,728.3106,729.8098,0,41,41,41,1,0.6,0.4,0.4,0.6,,,,,,,,,,,,,,,0.399,,0.8,0.2,0.6,0.4,0.8,0.2,0.4,0.6,,,0.2998,,0.6,0.4,0.8,0.2,0.6,0.4,0.2,0.8,1,0
,,66daf1642fab82cb5a1df01b,66dafa10abf8c672cf55adbe,2024-09-06_15h06.44.113,mdp,2024.2.1,Win32,60.24096386,66d7945b1baad48e845df3ce,,,,,,,,,,,,,,,,,,,,,729.8101,729.8101,729.8107,731.4598,0,0,left,1.1263,,731.4603,732.3764,1,0,right,732.377,733.2431,1,0,right,1,733.2432,733.2432,733.2438,734.7431,0,42,42,42,1,0.6,0.4,0.4,0.6,,,,,,,,,,,,,,,0.3832,,0.8,0.2,0.6,0.4,0.8,0.2,0.4,0.6,,,0.3505,,0.6,0.4,0.8,0.2,0.6,0.4,0.2,0.8,1,0
,,66daf1642fab82cb5a1df01b,66dafa10abf8c672cf55adbe,2024-09-06_15h06.44.113,mdp,2024.2.1,Win32,60.24096386,66d7945b1baad48e845df3ce,,,,,,,,,,,,,,,,,,,,,734.7433,734.7433,734.7437,735.993,0,0,left,0.7173,,735.9936,736.9763,1,1,right,736.9769,738.4598,1,0,right,1,738.4598,738.4598,738.4604,739.9598,0,43,43,43,1,0.6,0.4,0.4,0.6,,,,,,,,,,,,,,,0.452,,0.8,0.2,0.6,0.4,0.8,0.2,0.4,0.6,,,0.9501,,0.6,0.4,0.8,0.2,0.6,0.4,0.2,0.8,1,0
,,66daf1642fab82cb5a1df01b,66dafa10abf8c672cf55adbe,2024-09-06_15h06.44.113,mdp,2024.2.1,Win32,60.24096386,66d7945b1baad48e845df3ce,,,,,,,,,,,,,,,,,,,,,739.96,739.96,739.9603,740.8264,0,0,left,0.3324,,740.827,741.7764,1,1,right,741.777,742.8264,1,0,right,1,742.8264,742.8264,742.8271,744.3264,0,44,44,44,1,0.6,0.4,0.4,0.6,,,,,,,,,,,,,,,0.4266,,0.8,0.2,0.6,0.4,0.8,0.2,0.4,0.6,,,0.517,,0.6,0.4,0.8,0.2,0.6,0.4,0.2,0.8,1,0
,,66daf1642fab82cb5a1df01b,66dafa10abf8c672cf55adbe,2024-09-06_15h06.44.113,mdp,2024.2.1,Win32,60.24096386,66d7945b1baad48e845df3ce,,,,,,,,,,,,,,,,,,,,,744.3266,744.3267,744.3273,745.2264,0,1,left,0.3658,,745.2271,746.3098,1,0,right,746.3104,747.5931,0,1,left,0,747.5932,747.5932,747.5936,749.0931,0,45,45,45,1,0.6,0.4,0.4,0.6,,,,,,,,,,,,,,,0.5291,,0.8,0.2,0.6,0.4,0.8,0.2,0.4,0.6,,,0.7658,,0.6,0.4,0.8,0.2,0.6,0.4,0.2,0.8,1,0
,,66daf1642fab82cb5a1df01b,66dafa10abf8c672cf55adbe,2024-09-06_15h06.44.113,mdp,2024.2.1,Win32,60.24096386,66d7945b1baad48e845df3ce,,,,,,,,,,,,,,,,,,,,,749.0934,749.0934,749.0939,752.6596,0,0,left,3.0401,,752.6602,754.3098,1,0,right,754.3102,758.143,0,0,left,1,758.143,758.143,758.1487,759.643,0,46,46,46,1,0.6,0.4,0.4,0.6,,,,,,,,,,,,,,,1.1209,,0.8,0.2,0.6,0.4,0.8,0.2,0.4,0.6,,,3.3009,,0.6,0.4,0.8,0.2,0.6,0.4,0.2,0.8,1,0
,,66daf1642fab82cb5a1df01b,66dafa10abf8c672cf55adbe,2024-09-06_15h06.44.113,mdp,2024.2.1,Win32,60.24096386,66d7945b1baad48e845df3ce,,,,,,,,,,,,,,,,,,,,,759.6433,759.6433,759.6439,760.6264,1,0,right,0.4499,,760.627,764.7431,1,1,right,764.7488,765.6096,1,1,right,0,765.6097,765.6097,765.6102,767.1098,0,47,47,47,1,0.6,0.4,0.4,0.6,,,,,,,,,,,,,,,3.5853,,0.8,0.2,0.6,0.4,0.8,0.2,0.4,0.6,,,0.3415,,0.6,0.4,0.8,0.2,0.6,0.4,0.2,0.8,1,0
,,66daf1642fab82cb5a1df01b,66dafa10abf8c672cf55adbe,2024-09-06_15h06.44.113,mdp,2024.2.1,Win32,60.24096386,66d7945b1baad48e845df3ce,,,,,,,,,,,,,,,,,,,,,767.1101,767.1101,767.1105,768.0764,0,1,left,0.4321,,768.077,768.8764,1,1,right,768.8769,769.6596,1,1,right,0,769.6597,769.6597,769.6602,771.1597,0,48,48,48,1,0.6,0.4,0.4,0.6,,,,,,,,,,,,,,,0.2663,,0.2,0.8,0.2,0.8,0.8,0.2,0.4,0.6,,,0.2561,,0.6,0.4,0.8,0.2,0.6,0.4,0.2,0.8,1,0
,,66daf1642fab82cb5a1df01b,66dafa10abf8c672cf55adbe,2024-09-06_15h06.44.113,mdp,2024.2.1,Win32,60.24096386,66d7945b1baad48e845df3ce,,,,,,,,,,,,,,,,,,,,,771.1599,771.1599,771.1604,772.2597,0,1,left,0.5727,,772.2601,773.0763,1,1,right,773.0768,773.893,0,0,left,1,773.8931,773.8931,773.8936,775.393,0,49,49,49,1,0.6,0.4,0.4,0.6,,,,,,,,,,,,,,,0.2843,,0.2,0.8,0.2,0.8,0.8,0.2,0.4,0.6,,,0.2999,,0.6,0.4,0.8,0.2,0.6,0.4,0.2,0.8,1,0
,,66daf1642fab82cb5a1df01b,66dafa10abf8c672cf55adbe,2024-09-06_15h06.44.113,mdp,2024.2.1,Win32,60.24096386,66d7945b1baad48e845df3ce,,,,,,,,,,,,,,,,,,,,,,,,,,,,,,,,,,,,,,,,,,,,,,,,,,,,,,,,775.3931,833.8932,0,2,2,7,1,imgs/cat.png,imgs/bear.png,imgs/elephant.png,imgs/kangaroo.png,imgs/squirrel.png,,,,,,,,,,,,,,,,,,,,,,,,
,,66daf1642fab82cb5a1df01b,66dafa10abf8c672cf55adbe,2024-09-06_15h06.44.113,mdp,2024.2.1,Win32,60.24096386,66d7945b1baad48e845df3ce,,,,,,,,,,,,,,3,seqs/st3seq33.csv,833.8996,836.393,space,1.9696,,836.3964,836.3964,836.3967,837.6095,0,0,left,0.6814,,837.6102,838.8928,1,1,right,838.8934,839.9929,0,1,left,0,839.9929,839.9929,839.9934,841.4928,0,0,0,0,1,0.8,0.2,0.2,0.8,,,,,,,,,,,,,,,0.7493,,0.6,0.4,0.4,0.6,0.8,0.2,0.2,0.8,,,0.5686,,0.6,0.4,0.8,0.2,0.4,0.6,0.8,0.2,1,0
,,66daf1642fab82cb5a1df01b,66dafa10abf8c672cf55adbe,2024-09-06_15h06.44.113,mdp,2024.2.1,Win32,60.24096386,66d7945b1baad48e845df3ce,,,,,,,,,,,,,,,,,,,,,841.4932,841.4932,841.4936,842.8428,1,1,right,0.8227,,842.8435,843.6594,1,0,right,843.6599,844.4428,1,1,right,0,844.4428,844.4428,844.4435,845.9428,0,1,1,1,1,0.8,0.2,0.2,0.8,,,,,,,,,,,,,,,0.2876,,0.6,0.4,0.4,0.6,0.8,0.2,0.2,0.8,,,0.2575,,0.6,0.4,0.8,0.2,0.4,0.6,0.8,0.2,1,0
,,66daf1642fab82cb5a1df01b,66dafa10abf8c672cf55adbe,2024-09-06_15h06.44.113,mdp,2024.2.1,Win32,60.24096386,66d7945b1baad48e845df3ce,,,,,,,,,,,,,,,,,,,,,845.9429,845.943,845.9434,846.8095,1,1,right,0.3344,,846.8099,847.8262,1,1,right,847.8269,848.6428,0,0,left,1,848.6428,848.6428,848.6434,850.1428,0,2,2,2,1,0.8,0.2,0.2,0.8,,,,,,,,,,,,,,,0.4906,,0.6,0.4,0.4,0.6,0.8,0.2,0.2,0.8,,,0.2898,,0.6,0.4,0.8,0.2,0.4,0.6,0.8,0.2,1,0
,,66daf1642fab82cb5a1df01b,66dafa10abf8c672cf55adbe,2024-09-06_15h06.44.113,mdp,2024.2.1,Win32,60.24096386,66d7945b1baad48e845df3ce,,,,,,,,,,,,,,,,,,,,,850.143,850.143,850.1434,851.3261,1,0,right,0.6499,,851.3267,852.1428,1,1,right,852.1433,853.0927,0,1,left,0,853.0929,853.0929,853.0933,854.5928,0,3,3,3,1,0.8,0.2,0.2,0.8,,,,,,,,,,,,,,,0.2846,,0.6,0.4,0.4,0.6,0.8,0.2,0.2,0.8,,,0.438,,0.6,0.4,0.8,0.2,0.4,0.6,0.8,0.2,1,0
,,66daf1642fab82cb5a1df01b,66dafa10abf8c672cf55adbe,2024-09-06_15h06.44.113,mdp,2024.2.1,Win32,60.24096386,66d7945b1baad48e845df3ce,,,,,,,,,,,,,,,,,,,,,854.5931,854.5931,854.5936,855.5595,1,1,right,0.4359,,855.56,856.4261,1,1,right,856.4267,857.1761,0,0,left,1,857.1762,857.1762,857.1766,858.6761,0,4,4,4,1,0.8,0.2,0.2,0.8,,,,,,,,,,,,,,,0.3414,,0.6,0.4,0.4,0.6,0.8,0.2,0.2,0.8,,,0.2341,,0.6,0.4,0.8,0.2,0.4,0.6,0.8,0.2,1,0
,,66daf1642fab82cb5a1df01b,66dafa10abf8c672cf55adbe,2024-09-06_15h06.44.113,mdp,2024.2.1,Win32,60.24096386,66d7945b1baad48e845df3ce,,,,,,,,,,,,,,,,,,,,,858.6764,858.6764,858.6769,861.1096,1,1,right,1.9043,,861.1103,861.926,1,1,right,861.9267,862.8261,0,1,left,0,862.8261,862.8261,862.8266,864.3261,0,5,5,5,1,0.8,0.2,0.2,0.8,,,,,,,,,,,,,,,0.2885,,0.6,0.4,0.4,0.6,0.8,0.2,0.2,0.8,,,0.3751,,0.6,0.4,0.8,0.2,0.6,0.4,0.2,0.8,1,0
,,66daf1642fab82cb5a1df01b,66dafa10abf8c672cf55adbe,2024-09-06_15h06.44.113,mdp,2024.2.1,Win32,60.24096386,66d7945b1baad48e845df3ce,,,,,,,,,,,,,,,,,,,,,864.3263,864.3263,864.3268,865.9761,1,1,right,1.122,,865.9767,867.0928,1,1,right,867.0933,867.8927,0,1,left,0,867.8928,867.8928,867.8933,869.3928,0,6,6,6,1,0.8,0.2,0.2,0.8,,,,,,,,,,,,,,,0.5896,,0.6,0.4,0.4,0.6,0.8,0.2,0.2,0.8,,,0.2728,,0.6,0.4,0.8,0.2,0.6,0.4,0.2,0.8,1,0
,,66daf1642fab82cb5a1df01b,66dafa10abf8c672cf55adbe,2024-09-06_15h06.44.113,mdp,2024.2.1,Win32,60.24096386,66d7945b1baad48e845df3ce,,,,,,,,,,,,,,,,,,,,,869.393,869.3931,869.3936,871.0595,1,1,right,1.1403,,871.0599,871.876,0,1,left,871.8766,872.5926,1,0,right,1,872.5927,872.5927,872.5932,874.0927,0,7,7,7,1,0.8,0.2,0.2,0.8,,,,,,,,,,,,,,,0.294,,0.6,0.4,0.4,0.6,0.8,0.2,0.2,0.8,,,0.1922,,0.6,0.4,0.8,0.2,0.6,0.4,0.2,0.8,1,0
,,66daf1642fab82cb5a1df01b,66dafa10abf8c672cf55adbe,2024-09-06_15h06.44.113,mdp,2024.2.1,Win32,60.24096386,66d7945b1baad48e845df3ce,,,,,,,,,,,,,,,,,,,,,874.093,874.093,874.0934,874.9761,1,1,right,0.3601,,874.9765,875.776,0,0,left,875.7766,876.6094,1,0,right,1,876.6094,876.6094,876.6098,878.1094,0,8,8,8,1,0.8,0.2,0.2,0.8,,,,,,,,,,,,,,,0.267,,0.6,0.4,0.4,0.6,0.8,0.2,0.2,0.8,,,0.3249,,0.6,0.4,0.8,0.2,0.6,0.4,0.2,0.8,1,0
,,66daf1642fab82cb5a1df01b,66dafa10abf8c672cf55adbe,2024-09-06_15h06.44.113,mdp,2024.2.1,Win32,60.24096386,66d7945b1baad48e845df3ce,,,,,,,,,,,,,,,,,,,,,878.1096,878.1096,878.11,879.176,1,1,right,0.5482,,879.1765,880.4094,1,1,right,880.4099,881.2427,0,0,left,1,881.2427,881.2427,881.2434,882.7427,0,9,9,9,1,0.8,0.2,0.2,0.8,,,,,,,,,,,,,,,0.7308,,0.6,0.4,0.4,0.6,0.8,0.2,0.2,0.8,,,0.3062,,0.6,0.4,0.8,0.2,0.6,0.4,0.2,0.8,1,0
,,66daf1642fab82cb5a1df01b,66dafa10abf8c672cf55adbe,2024-09-06_15h06.44.113,mdp,2024.2.1,Win32,60.24096386,66d7945b1baad48e845df3ce,,,,,,,,,,,,,,,,,,,,,882.743,882.743,882.7435,883.5927,1,1,right,0.3255,,883.5932,884.4593,1,1,right,884.4598,885.4261,0,0,left,1,885.4262,885.4262,885.4269,886.9261,0,10,10,10,1,0.8,0.2,0.2,0.8,,,,,,,,,,,,,,,0.3576,,0.6,0.4,0.4,0.6,0.8,0.2,0.2,0.8,,,0.4497,,0.6,0.4,0.8,0.2,0.6,0.4,0.2,0.8,1,0
,,66daf1642fab82cb5a1df01b,66dafa10abf8c672cf55adbe,2024-09-06_15h06.44.113,mdp,2024.2.1,Win32,60.24096386,66d7945b1baad48e845df3ce,,,,,,,,,,,,,,,,,,,,,886.9264,886.9264,886.927,888.3094,1,1,right,0.8523,,888.3101,889.476,1,1,right,889.4766,890.626,1,1,right,0,890.6261,890.6261,890.6267,892.1259,0,11,11,11,1,0.8,0.2,0.2,0.8,,,,,,,,,,,,,,,0.6411,,0.6,0.4,0.4,0.6,0.8,0.2,0.2,0.8,,,0.6417,,0.6,0.4,0.8,0.2,0.6,0.4,0.2,0.8,1,0
,,66daf1642fab82cb5a1df01b,66dafa10abf8c672cf55adbe,2024-09-06_15h06.44.113,mdp,2024.2.1,Win32,60.24096386,66d7945b1baad48e845df3ce,,,,,,,,,,,,,,,,,,,,,892.1262,892.1262,892.1267,893.2927,0,0,left,0.6383,,893.2935,894.2594,1,0,right,894.2599,895.2426,0,0,left,1,895.2428,895.2428,895.2432,896.7427,0,12,12,12,1,0.8,0.2,0.2,0.8,,,,,,,,,,,,,,,0.4322,,0.6,0.4,0.4,0.6,0.8,0.2,0.2,0.8,,,0.4565,,0.6,0.4,0.8,0.2,0.2,0.8,0.4,0.6,1,0
,,66daf1642fab82cb5a1df01b,66dafa10abf8c672cf55adbe,2024-09-06_15h06.44.113,mdp,2024.2.1,Win32,60.24096386,66d7945b1baad48e845df3ce,,,,,,,,,,,,,,,,,,,,,896.743,896.743,896.7434,898.0427,1,1,right,0.7744,,898.0433,899.2427,1,0,right,899.2432,901.7261,1,0,right,1,901.7261,901.7261,901.7266,903.226,0,13,13,13,1,0.8,0.2,0.2,0.8,,,,,,,,,,,,,,,0.6768,,0.6,0.4,0.4,0.6,0.8,0.2,0.2,0.8,,,1.9537,,0.6,0.4,0.8,0.2,0.2,0.8,0.4,0.6,1,0
,,66daf1642fab82cb5a1df01b,66dafa10abf8c672cf55adbe,2024-09-06_15h06.44.113,mdp,2024.2.1,Win32,60.24096386,66d7945b1baad48e845df3ce,,,,,,,,,,,,,,,,,,,,,903.2264,903.2264,903.2268,904.2926,1,1,right,0.5445,,904.2932,905.2928,1,1,right,905.2933,906.3593,1,1,right,0,906.3593,906.3593,906.3598,907.8598,0,14,14,14,1,0.8,0.2,0.2,0.8,,,,,,,,,,,,,,,0.4687,,0.6,0.4,0.4,0.6,0.8,0.2,0.2,0.8,,,0.5347,,0.6,0.4,0.8,0.2,0.2,0.8,0.4,0.6,1,0
,,66daf1642fab82cb5a1df01b,66dafa10abf8c672cf55adbe,2024-09-06_15h06.44.113,mdp,2024.2.1,Win32,60.24096386,66d7945b1baad48e845df3ce,,,,,,,,,,,,,,,,,,,,,907.86,907.86,907.8604,908.6093,1,0,right,0.218,,908.6098,909.626,1,0,right,909.6265,911.0426,1,0,right,1,911.0427,911.0427,911.0432,912.5427,0,15,15,15,1,0.8,0.2,0.2,0.8,,,,,,,,,,,,,,,0.4991,,0.2,0.8,0.6,0.4,0.8,0.2,0.2,0.8,,,0.8893,,0.6,0.4,0.8,0.2,0.2,0.8,0.4,0.6,1,0
,,66daf1642fab82cb5a1df01b,66dafa10abf8c672cf55adbe,2024-09-06_15h06.44.113,mdp,2024.2.1,Win32,60.24096386,66d7945b1baad48e845df3ce,,,,,,,,,,,,,,,,,,,,,912.5429,912.5429,912.5434,913.3426,1,1,right,0.276,,913.3433,914.4094,1,1,right,914.4099,915.4426,1,0,right,1,915.4427,915.4427,915.4433,916.9427,0,16,16,16,1,0.8,0.2,0.2,0.8,,,,,,,,,,,,,,,0.544,,0.2,0.8,0.6,0.4,0.8,0.2,0.2,0.8,,,0.4991,,0.6,0.4,0.8,0.2,0.6,0.4,0.8,0.2,1,0
,,66daf1642fab82cb5a1df01b,66dafa10abf8c672cf55adbe,2024-09-06_15h06.44.113,mdp,2024.2.1,Win32,60.24096386,66d7945b1baad48e845df3ce,,,,,,,,,,,,,,,,,,,,,916.9428,916.9428,916.9433,918.026,1,1,right,0.5518,,918.0265,919.0593,1,0,right,919.0599,919.9926,0,1,left,0,919.9926,919.9926,919.9933,921.4926,0,17,17,17,1,0.8,0.2,0.2,0.8,,,,,,,,,,,,,,,0.5003,,0.2,0.8,0.6,0.4,0.8,0.2,0.2,0.8,,,0.4077,,0.6,0.4,0.8,0.2,0.6,0.4,0.8,0.2,1,0
,,66daf1642fab82cb5a1df01b,66dafa10abf8c672cf55adbe,2024-09-06_15h06.44.113,mdp,2024.2.1,Win32,60.24096386,66d7945b1baad48e845df3ce,,,,,,,,,,,,,,,,,,,,,921.4929,921.4929,921.4934,922.4259,1,1,right,0.4024,,922.4267,923.3928,1,1,right,923.3933,924.1927,1,0,right,1,924.1927,924.1927,924.1934,925.6927,0,18,18,18,1,0.2,0.8,0.4,0.6,,,,,,,,,,,,,,,0.4334,,0.2,0.8,0.6,0.4,0.8,0.2,0.2,0.8,,,0.275,,0.6,0.4,0.8,0.2,0.6,0.4,0.8,0.2,1,0
,,66daf1642fab82cb5a1df01b,66dafa10abf8c672cf55adbe,2024-09-06_15h06.44.113,mdp,2024.2.1,Win32,60.24096386,66d7945b1baad48e845df3ce,,,,,,,,,,,,,,,,,,,,,925.6931,925.6931,925.6937,926.4927,1,0,right,0.2669,,926.4933,927.3093,1,0,right,927.3099,927.976,0,1,left,0,927.9761,927.9761,927.9765,929.476,0,19,19,19,1,0.2,0.8,0.4,0.6,,,,,,,,,,,,,,,0.2816,,0.2,0.8,0.6,0.4,0.8,0.2,0.2,0.8,,,0.1327,,0.6,0.4,0.8,0.2,0.6,0.4,0.8,0.2,1,0
,,66daf1642fab82cb5a1df01b,66dafa10abf8c672cf55adbe,2024-09-06_15h06.44.113,mdp,2024.2.1,Win32,60.24096386,66d7945b1baad48e845df3ce,,,,,,,,,,,,,,,,,,,,,929.4763,929.4763,929.4768,931.2759,0,1,left,1.278,,931.2765,932.0426,1,1,right,932.0431,932.7926,0,0,left,1,932.7927,932.7927,932.7933,934.2927,0,20,20,20,1,0.2,0.8,0.4,0.6,,,,,,,,,,,,,,,0.2485,,0.2,0.8,0.6,0.4,0.8,0.2,0.2,0.8,,,0.2253,,0.6,0.4,0.8,0.2,0.6,0.4,0.8,0.2,1,0
,,66daf1642fab82cb5a1df01b,66dafa10abf8c672cf55adbe,2024-09-06_15h06.44.113,mdp,2024.2.1,Win32,60.24096386,66d7945b1baad48e845df3ce,,,,,,,,,,,,,,,,,,,,,934.293,934.293,934.2934,935.4927,1,1,right,0.6728,,935.4932,936.326,0,0,left,936.3266,937.0593,1,0,right,1,937.0593,937.0593,937.06,938.5593,0,21,21,21,1,0.2,0.8,0.4,0.6,,,,,,,,,,,,,,,0.303,,0.2,0.8,0.6,0.4,0.8,0.2,0.2,0.8,,,0.2037,,0.6,0.4,0.8,0.2,0.6,0.4,0.8,0.2,1,0
,,66daf1642fab82cb5a1df01b,66dafa10abf8c672cf55adbe,2024-09-06_15h06.44.113,mdp,2024.2.1,Win32,60.24096386,66d7945b1baad48e845df3ce,,,,,,,,,,,,,,,,,,,,,938.5595,938.5595,938.56,939.426,1,1,right,0.3434,,939.4267,940.2927,0,0,left,940.2933,940.976,1,0,right,1,940.976,940.976,940.9767,942.476,0,22,22,22,1,0.2,0.8,0.4,0.6,,,,,,,,,,,,,,,0.3373,,0.2,0.8,0.6,0.4,0.8,0.2,0.2,0.8,,,0.1505,,0.6,0.4,0.8,0.2,0.6,0.4,0.8,0.2,1,0
,,66daf1642fab82cb5a1df01b,66dafa10abf8c672cf55adbe,2024-09-06_15h06.44.113,mdp,2024.2.1,Win32,60.24096386,66d7945b1baad48e845df3ce,,,,,,,,,,,,,,,,,,,,,942.4762,942.4762,942.4767,943.2925,1,0,right,0.2887,,943.2932,944.1093,0,0,left,944.11,944.8426,1,0,right,1,944.8426,944.8426,944.8431,946.3427,0,23,23,23,1,0.2,0.8,0.4,0.6,,,,,,,,,,,,,,,0.2991,,0.2,0.8,0.6,0.4,0.8,0.2,0.2,0.8,,,0.2069,,0.6,0.4,0.8,0.2,0.6,0.4,0.8,0.2,1,0
,,66daf1642fab82cb5a1df01b,66dafa10abf8c672cf55adbe,2024-09-06_15h06.44.113,mdp,2024.2.1,Win32,60.24096386,66d7945b1baad48e845df3ce,,,,,,,,,,,,,,,,,,,,,946.343,946.343,946.3435,947.226,1,0,right,0.3492,,947.2267,948.0425,0,1,left,948.0431,948.7759,1,0,right,1,948.7759,948.7759,948.7766,950.2759,0,24,24,24,1,0.2,0.8,0.4,0.6,,,,,,,,,,,,,,,0.2833,,0.2,0.8,0.6,0.4,0.8,0.2,0.2,0.8,,,0.2082,,0.6,0.4,0.8,0.2,0.6,0.4,0.8,0.2,1,0
,,66daf1642fab82cb5a1df01b,66dafa10abf8c672cf55adbe,2024-09-06_15h06.44.113,mdp,2024.2.1,Win32,60.24096386,66d7945b1baad48e845df3ce,,,,,,,,,,,,,,,,,,,,,950.2762,950.2762,950.2765,951.2092,1,1,right,0.4092,,951.2097,952.0592,0,1,left,952.0598,952.8593,1,0,right,1,952.8593,952.8593,952.8598,954.3592,0,25,25,25,1,0.2,0.8,0.4,0.6,,,,,,,,,,,,,,,0.3397,,0.2,0.8,0.6,0.4,0.8,0.2,0.2,0.8,,,0.2668,,0.6,0.4,0.8,0.2,0.6,0.4,0.8,0.2,1,0
,,66daf1642fab82cb5a1df01b,66dafa10abf8c672cf55adbe,2024-09-06_15h06.44.113,mdp,2024.2.1,Win32,60.24096386,66d7945b1baad48e845df3ce,,,,,,,,,,,,,,,,,,,,,954.3595,954.3595,954.3599,955.2092,1,1,right,0.3165,,955.2098,955.9927,0,0,left,955.9934,957.0093,1,1,right,0,957.0093,957.0093,957.0099,958.5092,0,26,26,26,1,0.2,0.8,0.4,0.6,,,,,,,,,,,,,,,0.2613,,0.2,0.8,0.6,0.4,0.8,0.2,0.2,0.8,,,0.4937,,0.6,0.4,0.8,0.2,0.6,0.4,0.8,0.2,1,0
,,66daf1642fab82cb5a1df01b,66dafa10abf8c672cf55adbe,2024-09-06_15h06.44.113,mdp,2024.2.1,Win32,60.24096386,66d7945b1baad48e845df3ce,,,,,,,,,,,,,,,,,,,,,958.5095,958.5096,958.51,959.4093,1,1,right,0.3745,,959.4099,960.2093,0,0,left,960.2099,961.0593,1,0,right,1,961.0593,961.0593,961.0598,962.5592,0,27,27,27,1,0.2,0.8,0.4,0.6,,,,,,,,,,,,,,,0.2834,,0.2,0.8,0.6,0.4,0.8,0.2,0.2,0.8,,,0.3162,,0.6,0.4,0.8,0.2,0.6,0.4,0.8,0.2,1,0
,,66daf1642fab82cb5a1df01b,66dafa10abf8c672cf55adbe,2024-09-06_15h06.44.113,mdp,2024.2.1,Win32,60.24096386,66d7945b1baad48e845df3ce,,,,,,,,,,,,,,,,,,,,,962.5595,962.5595,962.5599,963.3426,1,0,right,0.2524,,963.3433,964.0093,0,1,left,964.0099,964.6426,1,0,right,1,964.6426,964.6426,964.6432,966.1426,0,28,28,28,1,0.2,0.8,0.4,0.6,,,,,,,,,,,,,,,0.1357,,0.2,0.8,0.6,0.4,0.8,0.2,0.2,0.8,,,0.1006,,0.6,0.4,0.8,0.2,0.6,0.4,0.8,0.2,1,0
,,66daf1642fab82cb5a1df01b,66dafa10abf8c672cf55adbe,2024-09-06_15h06.44.113,mdp,2024.2.1,Win32,60.24096386,66d7945b1baad48e845df3ce,,,,,,,,,,,,,,,,,,,,,966.1429,966.1429,966.1435,966.8592,1,1,right,0.1891,,966.8599,967.6759,0,0,left,967.6764,968.3925,1,0,right,1,968.3926,968.3926,968.3933,969.8926,0,29,29,29,1,0.4,0.6,0.2,0.8,,,,,,,,,,,,,,,0.305,,0.2,0.8,0.6,0.4,0.8,0.2,0.2,0.8,,,0.1841,,0.6,0.4,0.8,0.2,0.6,0.4,0.8,0.2,1,0
,,66daf1642fab82cb5a1df01b,66dafa10abf8c672cf55adbe,2024-09-06_15h06.44.113,mdp,2024.2.1,Win32,60.24096386,66d7945b1baad48e845df3ce,,,,,,,,,,,,,,,,,,,,,969.893,969.893,969.8936,970.7563,1,1,right,0.3397,,970.7567,971.5092,0,0,left,971.5099,972.3759,1,1,right,0,972.376,972.376,972.3765,973.8759,0,30,30,30,1,0.4,0.6,0.2,0.8,,,,,,,,,,,,,,,0.2327,,0.2,0.8,0.6,0.4,0.8,0.2,0.2,0.8,,,0.3341,,0.6,0.4,0.8,0.2,0.6,0.4,0.8,0.2,1,0
,,66daf1642fab82cb5a1df01b,66dafa10abf8c672cf55adbe,2024-09-06_15h06.44.113,mdp,2024.2.1,Win32,60.24096386,66d7945b1baad48e845df3ce,,,,,,,,,,,,,,,,,,,,,973.8762,973.8762,973.8767,974.9092,1,1,right,0.5042,,974.9098,975.8759,1,1,right,975.8765,976.7092,0,0,left,1,976.7093,976.7093,976.71,978.2092,0,31,31,31,1,0.4,0.6,0.2,0.8,,,,,,,,,,,,,,,0.4551,,0.2,0.8,0.6,0.4,0.8,0.2,0.2,0.8,,,0.3049,,0.8,0.2,0.4,0.6,0.6,0.4,0.8,0.2,1,0
,,66daf1642fab82cb5a1df01b,66dafa10abf8c672cf55adbe,2024-09-06_15h06.44.113,mdp,2024.2.1,Win32,60.24096386,66d7945b1baad48e845df3ce,,,,,,,,,,,,,,,,,,,,,978.2094,978.2095,978.2101,979.0592,1,1,right,0.3224,,979.0597,979.8933,0,0,left,979.8939,980.7259,1,1,right,0,980.726,980.726,980.7265,982.2258,0,32,32,32,1,0.4,0.6,0.2,0.8,,,,,,,,,,,,,,,0.318,,0.2,0.8,0.6,0.4,0.8,0.2,0.2,0.8,,,0.2967,,0.8,0.2,0.4,0.6,0.6,0.4,0.8,0.2,1,0
,,66daf1642fab82cb5a1df01b,66dafa10abf8c672cf55adbe,2024-09-06_15h06.44.113,mdp,2024.2.1,Win32,60.24096386,66d7945b1baad48e845df3ce,,,,,,,,,,,,,,,,,,,,,982.2262,982.2262,982.2267,982.9926,1,0,right,0.2349,,982.9933,983.7925,0,1,left,983.7932,984.5093,1,0,right,1,984.5094,984.5094,984.5099,986.0092,0,33,33,33,1,0.4,0.6,0.2,0.8,,,,,,,,,,,,,,,0.2668,,0.2,0.8,0.6,0.4,0.8,0.2,0.2,0.8,,,0.1836,,0.8,0.2,0.4,0.6,0.6,0.4,0.8,0.2,1,0
,,66daf1642fab82cb5a1df01b,66dafa10abf8c672cf55adbe,2024-09-06_15h06.44.113,mdp,2024.2.1,Win32,60.24096386,66d7945b1baad48e845df3ce,,,,,,,,,,,,,,,,,,,,,986.0096,986.0096,986.01,986.6927,1,0,right,0.1548,,986.6934,987.4425,0,1,left,987.4429,989.5092,1,0,right,1,989.5092,989.5093,989.5098,991.0092,0,34,34,34,1,0.4,0.6,0.2,0.8,,,,,,,,,,,,,,,0.2254,,0.2,0.8,0.6,0.4,0.8,0.2,0.2,0.8,,,1.5481,,0.8,0.2,0.4,0.6,0.6,0.4,0.8,0.2,1,0
,,66daf1642fab82cb5a1df01b,66dafa10abf8c672cf55adbe,2024-09-06_15h06.44.113,mdp,2024.2.1,Win32,60.24096386,66d7945b1baad48e845df3ce,,,,,,,,,,,,,,,,,,,,,991.0095,991.0095,991.01,992.1758,1,0,right,0.6417,,992.1764,997.0258,1,1,right,997.0318,997.7759,0,0,left,1,997.776,997.776,997.7765,999.2758,0,35,35,35,1,0.4,0.6,0.2,0.8,,,,,,,,,,,,,,,4.3417,,0.2,0.8,0.6,0.4,0.8,0.2,0.2,0.8,,,0.2331,,0.8,0.2,0.4,0.6,0.6,0.4,0.8,0.2,1,0
,,66daf1642fab82cb5a1df01b,66dafa10abf8c672cf55adbe,2024-09-06_15h06.44.113,mdp,2024.2.1,Win32,60.24096386,66d7945b1baad48e845df3ce,,,,,,,,,,,,,,,,,,,,,999.2761,999.2761,999.2766,1000.6927,1,0,right,0.8894,,1000.6934,1001.4258,0,1,left,1001.4264,1002.2258,1,1,right,0,1002.2258,1002.2258,1002.2264,1003.7258,0,36,36,36,1,0.4,0.6,0.2,0.8,,,,,,,,,,,,,,,0.21,,0.2,0.8,0.6,0.4,0.8,0.2,0.2,0.8,,,0.2668,,0.8,0.2,0.4,0.6,0.6,0.4,0.8,0.2,1,0
,,66daf1642fab82cb5a1df01b,66dafa10abf8c672cf55adbe,2024-09-06_15h06.44.113,mdp,2024.2.1,Win32,60.24096386,66d7945b1baad48e845df3ce,,,,,,,,,,,,,,,,,,,,,1003.7261,1003.7261,1003.7266,1006.9758,1,1,right,2.7181,,1006.9815,1007.7425,0,1,left,1007.7433,1008.5258,1,0,right,1,1008.5258,1008.5258,1008.5265,1010.0258,0,37,37,37,1,0.4,0.6,0.2,0.8,,,,,,,,,,,,,,,0.2336,,0.2,0.8,0.6,0.4,0.8,0.2,0.2,0.8,,,0.2536,,0.8,0.2,0.4,0.6,0.6,0.4,0.8,0.2,1,0
,,66daf1642fab82cb5a1df01b,66dafa10abf8c672cf55adbe,2024-09-06_15h06.44.113,mdp,2024.2.1,Win32,60.24096386,66d7945b1baad48e845df3ce,,,,,,,,,,,,,,,,,,,,,1010.0261,1010.0261,1010.0266,1013.7758,1,1,right,3.2259,,1013.7764,1014.5258,0,1,left,1014.5265,1015.1425,1,0,right,1,1015.1426,1015.1426,1015.1431,1016.6425,0,38,38,38,1,0.4,0.6,0.2,0.8,,,,,,,,,,,,,,,0.2213,,0.2,0.8,0.6,0.4,0.8,0.2,0.2,0.8,,,0.0885,,0.8,0.2,0.4,0.6,0.6,0.4,0.8,0.2,1,0
,,66daf1642fab82cb5a1df01b,66dafa10abf8c672cf55adbe,2024-09-06_15h06.44.113,mdp,2024.2.1,Win32,60.24096386,66d7945b1baad48e845df3ce,,,,,,,,,,,,,,,,,,,,,1016.6428,1016.6428,1016.6432,1018.1758,1,1,right,0.9999,,1018.1763,1018.7091,0,0,left,1018.7097,1019.3424,1,1,right,0,1019.3425,1019.3425,1019.343,1020.8425,0,39,39,39,1,0.4,0.6,0.2,0.8,,,,,,,,,,,,,,,0.0053,,0.2,0.8,0.6,0.4,0.8,0.2,0.2,0.8,,,0.1026,,0.8,0.2,0.4,0.6,0.6,0.4,0.8,0.2,1,0
,,66daf1642fab82cb5a1df01b,66dafa10abf8c672cf55adbe,2024-09-06_15h06.44.113,mdp,2024.2.1,Win32,60.24096386,66d7945b1baad48e845df3ce,,,,,,,,,,,,,,,,,,,,,1020.8428,1020.8429,1020.8434,1022.7424,1,1,right,1.37,,1022.743,1023.3926,0,1,left,1023.3932,1024.1091,1,0,right,1,1024.1092,1024.1092,1024.1097,1025.6092,0,40,40,40,1,0.4,0.6,0.2,0.8,,,,,,,,,,,,,,,0.1373,,0.2,0.8,0.6,0.4,0.8,0.2,0.2,0.8,,,0.19,,0.8,0.2,0.4,0.6,0.6,0.4,0.8,0.2,1,0
,,66daf1642fab82cb5a1df01b,66dafa10abf8c672cf55adbe,2024-09-06_15h06.44.113,mdp,2024.2.1,Win32,60.24096386,66d7945b1baad48e845df3ce,,,,,,,,,,,,,,,,,,,,,1025.6095,1025.6095,1025.6098,1032.2425,1,1,right,6.1069,,1032.2486,1032.8925,0,0,left,1032.8931,1033.6757,1,1,right,0,1033.6757,1033.6757,1033.6762,1035.1758,0,41,41,41,1,0.4,0.6,0.2,0.8,,,,,,,,,,,,,,,0.1228,,0.2,0.8,0.6,0.4,0.8,0.2,0.2,0.8,,,0.2559,,0.8,0.2,0.4,0.6,0.6,0.4,0.8,0.2,1,0
,,66daf1642fab82cb5a1df01b,66dafa10abf8c672cf55adbe,2024-09-06_15h06.44.113,mdp,2024.2.1,Win32,60.24096386,66d7945b1baad48e845df3ce,,,,,,,,,,,,,,,,,,,,,1035.1761,1035.1761,1035.1766,1037.4258,1,1,right,1.7175,,1037.4262,1038.6924,0,0,left,1038.6931,1041.6925,1,0,right,1,1041.6925,1041.6925,1041.6932,1043.1925,0,42,42,42,1,0.4,0.6,0.2,0.8,,,,,,,,,,,,,,,0.7376,,0.2,0.8,0.6,0.4,0.8,0.2,0.2,0.8,,,2.4715,,0.8,0.2,0.4,0.6,0.6,0.4,0.8,0.2,1,0
,,66daf1642fab82cb5a1df01b,66dafa10abf8c672cf55adbe,2024-09-06_15h06.44.113,mdp,2024.2.1,Win32,60.24096386,66d7945b1baad48e845df3ce,,,,,,,,,,,,,,,,,,,,,1043.1928,1043.1928,1043.1933,1043.8924,1,0,right,0.1752,,1043.8931,1044.6591,0,0,left,1044.6595,1046.109,1,1,right,0,1046.1091,1046.1091,1046.1096,1047.6094,0,43,43,43,1,0.2,0.8,0.6,0.4,,,,,,,,,,,,,,,0.25,,0.2,0.8,0.6,0.4,0.8,0.2,0.2,0.8,,,0.9122,,0.8,0.2,0.4,0.6,0.6,0.4,0.8,0.2,1,0
,,66daf1642fab82cb5a1df01b,66dafa10abf8c672cf55adbe,2024-09-06_15h06.44.113,mdp,2024.2.1,Win32,60.24096386,66d7945b1baad48e845df3ce,,,,,,,,,,,,,,,,,,,,,1047.6096,1047.6096,1047.61,1049.0091,1,0,right,0.8707,,1049.0098,1049.8091,0,0,left,1049.8097,1050.6758,1,1,right,0,1050.6758,1050.6758,1050.6763,1052.1758,0,44,44,44,1,0.2,0.8,0.6,0.4,,,,,,,,,,,,,,,0.2754,,0.2,0.8,0.6,0.4,0.8,0.2,0.2,0.8,,,0.3444,,0.8,0.2,0.4,0.6,0.6,0.4,0.8,0.2,1,0
,,66daf1642fab82cb5a1df01b,66dafa10abf8c672cf55adbe,2024-09-06_15h06.44.113,mdp,2024.2.1,Win32,60.24096386,66d7945b1baad48e845df3ce,,,,,,,,,,,,,,,,,,,,,1052.176,1052.176,1052.1764,1053.559,1,1,right,0.8528,,1053.5596,1054.2926,0,1,left,1054.2931,1054.9925,1,0,right,1,1054.9925,1054.9925,1054.9932,1056.4923,0,45,45,45,1,0.2,0.8,0.6,0.4,,,,,,,,,,,,,,,0.2226,,0.4,0.6,0.2,0.8,0.8,0.2,0.2,0.8,,,0.1681,,0.8,0.2,0.4,0.6,0.6,0.4,0.8,0.2,1,0
,,66daf1642fab82cb5a1df01b,66dafa10abf8c672cf55adbe,2024-09-06_15h06.44.113,mdp,2024.2.1,Win32,60.24096386,66d7945b1baad48e845df3ce,,,,,,,,,,,,,,,,,,,,,1056.4926,1056.4927,1056.4932,1058.3757,1,0,right,1.3534,,1058.3762,1059.1757,0,0,left,1059.1763,1059.9757,1,0,right,1,1059.9757,1059.9757,1059.9763,1061.4757,0,46,46,46,1,0.2,0.8,0.6,0.4,,,,,,,,,,,,,,,0.2691,,0.4,0.6,0.2,0.8,0.8,0.2,0.2,0.8,,,0.2875,,0.8,0.2,0.4,0.6,0.6,0.4,0.8,0.2,1,0
,,66daf1642fab82cb5a1df01b,66dafa10abf8c672cf55adbe,2024-09-06_15h06.44.113,mdp,2024.2.1,Win32,60.24096386,66d7945b1baad48e845df3ce,,,,,,,,,,,,,,,,,,,,,1061.476,1061.476,1061.4764,1062.3424,0,1,left,0.3384,,1062.343,1062.9757,1,1,right,1062.9761,1063.659,0,0,left,1,1063.659,1063.659,1063.6596,1065.1591,0,47,47,47,1,0.2,0.8,0.6,0.4,,,,,,,,,,,,,,,0.0991,,0.4,0.6,0.2,0.8,0.8,0.2,0.2,0.8,,,0.1555,,0.8,0.2,0.4,0.6,0.6,0.4,0.8,0.2,1,0
,,66daf1642fab82cb5a1df01b,66dafa10abf8c672cf55adbe,2024-09-06_15h06.44.113,mdp,2024.2.1,Win32,60.24096386,66d7945b1baad48e845df3ce,,,,,,,,,,,,,,,,,,,,,1065.1593,1065.1593,1065.1597,1067.5258,1,0,right,1.8373,,1067.5263,1068.1924,0,1,left,1068.193,1068.809,1,0,right,1,1068.8091,1068.8091,1068.8096,1070.309,0,48,48,48,1,0.2,0.8,0.6,0.4,,,,,,,,,,,,,,,0.1365,,0.4,0.6,0.2,0.8,0.8,0.2,0.2,0.8,,,0.0924,,0.8,0.2,0.4,0.6,0.6,0.4,0.8,0.2,1,0
,,66daf1642fab82cb5a1df01b,66dafa10abf8c672cf55adbe,2024-09-06_15h06.44.113,mdp,2024.2.1,Win32,60.24096386,66d7945b1baad48e845df3ce,,,,,,,,,,,,,,,,,,,,,1070.3093,1070.3093,1070.3097,1071.109,1,0,right,0.2669,,1071.1096,1071.909,0,0,left,1071.9095,1072.6423,1,0,right,1,1072.6423,1072.6423,1072.6429,1074.1423,0,49,49,49,1,0.2,0.8,0.6,0.4,,,,,,,,,,,,,,,0.2717,,0.8,0.2,0.4,0.6,0.8,0.2,0.2,0.8,,,0.2168,,0.8,0.2,0.4,0.6,0.6,0.4,0.8,0.2,1,0
,,66daf1642fab82cb5a1df01b,66dafa10abf8c672cf55adbe,2024-09-06_15h06.44.113,mdp,2024.2.1,Win32,60.24096386,66d7945b1baad48e845df3ce,,,,,,,,,,,,,,,,,,,,,,,,,,,,,,,,,,,,,,,,,,,,,,,,,,,,,,,,1074.1426,1132.659,0,3,3,2,1,imgs/lion.png,imgs/elephant.png,imgs/goat.png,imgs/giraffe.png,imgs/squirrel.png,,,,,,,,,,,,,,,,,,,,,,,,
,,66daf1642fab82cb5a1df01b,66dafa10abf8c672cf55adbe,2024-09-06_15h06.44.113,mdp,2024.2.1,Win32,60.24096386,66d7945b1baad48e845df3ce,,,,,,,,,,,,,,1,seqs/st1seq31.csv,1132.6658,1134.6424,space,1.4548,,1134.6451,1134.6451,1134.6455,1135.6588,0,1,left,0.4902,,1135.6596,1135.66,0,0,,1135.6604,1135.6606,1,1,,0,1135.6606,1135.6606,1135.6608,1137.1589,0,0,0,0,1,0.8,0.2,0.4,0.6,1,0,,,,,,,,,,,,,,,,,,,,,,,,,,,,,,,,,,,,
,,66daf1642fab82cb5a1df01b,66dafa10abf8c672cf55adbe,2024-09-06_15h06.44.113,mdp,2024.2.1,Win32,60.24096386,66d7945b1baad48e845df3ce,,,,,,,,,,,,,,,,,,,,,1137.1592,1137.1592,1137.1596,1138.0589,1,1,right,0.367,,1138.0595,1138.0599,0,1,,1138.0602,1138.0604,1,1,,0,1138.0604,1138.0604,1138.0607,1139.5588,0,1,1,1,1,0.8,0.2,0.4,0.6,1,0,,,,,,,,,,,,,,,,,,,,,,,,,,,,,,,,,,,,
,,66daf1642fab82cb5a1df01b,66dafa10abf8c672cf55adbe,2024-09-06_15h06.44.113,mdp,2024.2.1,Win32,60.24096386,66d7945b1baad48e845df3ce,,,,,,,,,,,,,,,,,,,,,1139.559,1139.559,1139.5594,1140.1589,0,1,left,0.064,,1140.1594,1140.1598,0,1,,1140.1601,1140.1603,1,1,,0,1140.1603,1140.1603,1140.1606,1141.6589,0,2,2,2,1,0.8,0.2,0.4,0.6,1,0,,,,,,,,,,,,,,,,,,,,,,,,,,,,,,,,,,,,
,,66daf1642fab82cb5a1df01b,66dafa10abf8c672cf55adbe,2024-09-06_15h06.44.113,mdp,2024.2.1,Win32,60.24096386,66d7945b1baad48e845df3ce,,,,,,,,,,,,,,,,,,,,,1141.6591,1141.6591,1141.6597,1142.4588,0,0,left,0.2742,,1142.4596,1142.46,0,0,,1142.4603,1142.4605,1,0,,1,1142.4605,1142.4605,1142.4608,1143.9588,0,3,3,3,1,0.8,0.2,0.4,0.6,1,0,,,,,,,,,,,,,,,,,,,,,,,,,,,,,,,,,,,,
,,66daf1642fab82cb5a1df01b,66dafa10abf8c672cf55adbe,2024-09-06_15h06.44.113,mdp,2024.2.1,Win32,60.24096386,66d7945b1baad48e845df3ce,,,,,,,,,,,,,,,,,,,,,1143.959,1143.9591,1143.9594,1144.8088,1,1,right,0.3192,,1144.8093,1144.8096,0,0,,1144.8098,1144.81,1,1,,0,1144.81,1144.81,1144.8103,1146.3089,0,4,4,4,1,0.8,0.2,0.4,0.6,1,0,,,,,,,,,,,,,,,,,,,,,,,,,,,,,,,,,,,,
,,66daf1642fab82cb5a1df01b,66dafa10abf8c672cf55adbe,2024-09-06_15h06.44.113,mdp,2024.2.1,Win32,60.24096386,66d7945b1baad48e845df3ce,,,,,,,,,,,,,,,,,,,,,1146.3092,1146.3092,1146.3099,1146.9588,0,0,left,0.1172,,1146.9594,1146.9597,0,0,,1146.96,1146.9602,1,0,,1,1146.9603,1146.9603,1146.9605,1148.4588,0,5,5,5,1,0.8,0.2,0.4,0.6,1,0,,,,,,,,,,,,,,,,,,,,,,,,,,,,,,,,,,,,
,,66daf1642fab82cb5a1df01b,66dafa10abf8c672cf55adbe,2024-09-06_15h06.44.113,mdp,2024.2.1,Win32,60.24096386,66d7945b1baad48e845df3ce,,,,,,,,,,,,,,,,,,,,,1148.4591,1148.4591,1148.4595,1149.0422,0,1,left,0.0501,,1149.0428,1149.0431,0,0,,1149.0434,1149.0436,1,1,,0,1149.0436,1149.0436,1149.0439,1150.5422,0,6,6,6,1,0.6,0.4,0.6,0.4,1,0,,,,,,,,,,,,,,,,,,,,,,,,,,,,,,,,,,,,
,,66daf1642fab82cb5a1df01b,66dafa10abf8c672cf55adbe,2024-09-06_15h06.44.113,mdp,2024.2.1,Win32,60.24096386,66d7945b1baad48e845df3ce,,,,,,,,,,,,,,,,,,,,,1150.5425,1150.5425,1150.5431,1151.2922,0,0,left,0.2289,,1151.2928,1151.2932,0,0,,1151.2934,1151.2937,1,1,,1,1151.2937,1151.2937,1151.294,1152.7922,0,7,7,7,1,0.6,0.4,0.6,0.4,1,0,,,,,,,,,,,,,,,,,,,,,,,,,,,,,,,,,,,,
,,66daf1642fab82cb5a1df01b,66dafa10abf8c672cf55adbe,2024-09-06_15h06.44.113,mdp,2024.2.1,Win32,60.24096386,66d7945b1baad48e845df3ce,,,,,,,,,,,,,,,,,,,,,1152.7924,1152.7924,1152.7931,1153.6422,0,0,left,0.3297,,1153.6428,1153.6431,0,0,,1153.6435,1153.6438,1,0,,1,1153.6438,1153.6438,1153.644,1155.1422,0,8,8,8,1,0.6,0.4,0.6,0.4,1,0,,,,,,,,,,,,,,,,,,,,,,,,,,,,,,,,,,,,
,,66daf1642fab82cb5a1df01b,66dafa10abf8c672cf55adbe,2024-09-06_15h06.44.113,mdp,2024.2.1,Win32,60.24096386,66d7945b1baad48e845df3ce,,,,,,,,,,,,,,,,,,,,,1155.1426,1155.1426,1155.1432,1156.1922,0,0,left,0.5126,,1156.1929,1156.1933,0,0,,1156.1936,1156.1939,1,0,,1,1156.1939,1156.1939,1156.1941,1157.6921,0,9,9,9,1,0.8,0.2,0.4,0.6,1,0,,,,,,,,,,,,,,,,,,,,,,,,,,,,,,,,,,,,
,,66daf1642fab82cb5a1df01b,66dafa10abf8c672cf55adbe,2024-09-06_15h06.44.113,mdp,2024.2.1,Win32,60.24096386,66d7945b1baad48e845df3ce,,,,,,,,,,,,,,,,,,,,,1157.6924,1157.6924,1157.693,1158.6588,0,0,left,0.445,,1158.6596,1158.66,0,1,,1158.6602,1158.6604,1,1,,1,1158.6604,1158.6604,1158.6606,1160.1587,0,10,10,10,1,0.2,0.8,0.6,0.4,1,0,,,,,,,,,,,,,,,,,,,,,,,,,,,,,,,,,,,,
,,66daf1642fab82cb5a1df01b,66dafa10abf8c672cf55adbe,2024-09-06_15h06.44.113,mdp,2024.2.1,Win32,60.24096386,66d7945b1baad48e845df3ce,,,,,,,,,,,,,,,,,,,,,1160.159,1160.159,1160.1595,1161.0922,0,1,left,0.4113,,1161.0928,1161.0932,0,1,,1161.0935,1161.0938,1,1,,0,1161.0938,1161.0938,1161.0941,1162.5921,0,11,11,11,1,0.2,0.8,0.6,0.4,1,0,,,,,,,,,,,,,,,,,,,,,,,,,,,,,,,,,,,,
,,66daf1642fab82cb5a1df01b,66dafa10abf8c672cf55adbe,2024-09-06_15h06.44.113,mdp,2024.2.1,Win32,60.24096386,66d7945b1baad48e845df3ce,,,,,,,,,,,,,,,,,,,,,1162.5923,1162.5923,1162.5929,1163.4254,0,0,left,0.3095,,1163.4262,1163.4265,0,1,,1163.4267,1163.427,1,1,,1,1163.427,1163.427,1163.4273,1164.9255,0,12,12,12,1,0.2,0.8,0.6,0.4,1,0,,,,,,,,,,,,,,,,,,,,,,,,,,,,,,,,,,,,
,,66daf1642fab82cb5a1df01b,66dafa10abf8c672cf55adbe,2024-09-06_15h06.44.113,mdp,2024.2.1,Win32,60.24096386,66d7945b1baad48e845df3ce,,,,,,,,,,,,,,,,,,,,,1164.9257,1164.9257,1164.9262,1165.8254,0,1,left,0.3758,,1165.8262,1165.8267,0,1,,1165.8272,1165.8274,1,1,,0,1165.8274,1165.8274,1165.8277,1167.3255,0,13,13,13,1,0.2,0.8,0.6,0.4,1,0,,,,,,,,,,,,,,,,,,,,,,,,,,,,,,,,,,,,
,,66daf1642fab82cb5a1df01b,66dafa10abf8c672cf55adbe,2024-09-06_15h06.44.113,mdp,2024.2.1,Win32,60.24096386,66d7945b1baad48e845df3ce,,,,,,,,,,,,,,,,,,,,,1167.3259,1167.3259,1167.3265,1168.4755,0,1,left,0.6204,,1168.4762,1168.4765,0,1,,1168.4767,1168.477,1,1,,0,1168.477,1168.477,1168.4772,1169.9755,0,14,14,14,1,0.2,0.8,0.6,0.4,1,0,,,,,,,,,,,,,,,,,,,,,,,,,,,,,,,,,,,,
,,66daf1642fab82cb5a1df01b,66dafa10abf8c672cf55adbe,2024-09-06_15h06.44.113,mdp,2024.2.1,Win32,60.24096386,66d7945b1baad48e845df3ce,,,,,,,,,,,,,,,,,,,,,1169.9758,1169.9758,1169.9763,1170.7756,0,0,left,0.2657,,1170.7763,1170.7765,0,0,,1170.7768,1170.777,1,0,,1,1170.777,1170.777,1170.7772,1172.2756,0,15,15,15,1,0.8,0.2,0.2,0.8,1,0,,,,,,,,,,,,,,,,,,,,,,,,,,,,,,,,,,,,
,,66daf1642fab82cb5a1df01b,66dafa10abf8c672cf55adbe,2024-09-06_15h06.44.113,mdp,2024.2.1,Win32,60.24096386,66d7945b1baad48e845df3ce,,,,,,,,,,,,,,,,,,,,,1172.2758,1172.2758,1172.2763,1174.7423,0,0,left,1.9332,,1174.7491,1174.7495,0,0,,1174.7498,1174.7499,1,0,,1,1174.7499,1174.7499,1174.7501,1176.2421,0,16,16,16,1,0.8,0.2,0.2,0.8,1,0,,,,,,,,,,,,,,,,,,,,,,,,,,,,,,,,,,,,
,,66daf1642fab82cb5a1df01b,66dafa10abf8c672cf55adbe,2024-09-06_15h06.44.113,mdp,2024.2.1,Win32,60.24096386,66d7945b1baad48e845df3ce,,,,,,,,,,,,,,,,,,,,,1176.2424,1176.2424,1176.2429,1178.0923,0,0,left,1.3213,,1178.0929,1178.0934,0,0,,1178.0938,1178.0941,1,0,,1,1178.0941,1178.0941,1178.0943,1179.5922,0,17,17,17,1,0.8,0.2,0.2,0.8,1,0,,,,,,,,,,,,,,,,,,,,,,,,,,,,,,,,,,,,
,,66daf1642fab82cb5a1df01b,66dafa10abf8c672cf55adbe,2024-09-06_15h06.44.113,mdp,2024.2.1,Win32,60.24096386,66d7945b1baad48e845df3ce,,,,,,,,,,,,,,,,,,,,,1179.5926,1179.5926,1179.5933,1182.1589,0,0,left,2.039,,1182.1593,1182.1597,0,0,,1182.16,1182.1602,1,0,,1,1182.1602,1182.1602,1182.1604,1183.6587,0,18,18,18,1,0.8,0.2,0.2,0.8,1,0,,,,,,,,,,,,,,,,,,,,,,,,,,,,,,,,,,,,
,,66daf1642fab82cb5a1df01b,66dafa10abf8c672cf55adbe,2024-09-06_15h06.44.113,mdp,2024.2.1,Win32,60.24096386,66d7945b1baad48e845df3ce,,,,,,,,,,,,,,,,,,,,,1183.6589,1183.6589,1183.6594,1184.5921,0,0,left,0.3957,,1184.5929,1184.5933,0,0,,1184.5937,1184.5938,1,0,,1,1184.5938,1184.5938,1184.594,1186.0922,0,19,19,19,1,0.8,0.2,0.2,0.8,1,0,,,,,,,,,,,,,,,,,,,,,,,,,,,,,,,,,,,,
,,66daf1642fab82cb5a1df01b,66dafa10abf8c672cf55adbe,2024-09-06_15h06.44.113,mdp,2024.2.1,Win32,60.24096386,66d7945b1baad48e845df3ce,,,,,,,,,,,,,,,,,,,,,1186.0925,1186.0925,1186.0931,1187.2255,0,0,left,0.611,,1187.2262,1187.2265,0,1,,1187.2268,1187.2271,1,0,,1,1187.2271,1187.2271,1187.2272,1188.7255,0,20,20,20,1,0.8,0.2,0.2,0.8,1,0,,,,,,,,,,,,,,,,,,,,,,,,,,,,,,,,,,,,
,,66daf1642fab82cb5a1df01b,66dafa10abf8c672cf55adbe,2024-09-06_15h06.44.113,mdp,2024.2.1,Win32,60.24096386,66d7945b1baad48e845df3ce,,,,,,,,,,,,,,,,,,,,,1188.7256,1188.7256,1188.7261,1189.7088,0,0,left,0.45,,1189.7096,1189.71,0,0,,1189.7104,1189.7107,1,0,,1,1189.7107,1189.7107,1189.711,1191.2088,0,21,21,21,1,0.6,0.4,0.4,0.6,1,0,,,,,,,,,,,,,,,,,,,,,,,,,,,,,,,,,,,,
,,66daf1642fab82cb5a1df01b,66dafa10abf8c672cf55adbe,2024-09-06_15h06.44.113,mdp,2024.2.1,Win32,60.24096386,66d7945b1baad48e845df3ce,,,,,,,,,,,,,,,,,,,,,1191.209,1191.209,1191.2097,1191.8255,0,0,left,0.0915,,1191.8261,1191.8264,0,1,,1191.8267,1191.827,1,0,,1,1191.827,1191.827,1191.8273,1193.3254,0,22,22,22,1,0.6,0.4,0.4,0.6,1,0,,,,,,,,,,,,,,,,,,,,,,,,,,,,,,,,,,,,
,,66daf1642fab82cb5a1df01b,66dafa10abf8c672cf55adbe,2024-09-06_15h06.44.113,mdp,2024.2.1,Win32,60.24096386,66d7945b1baad48e845df3ce,,,,,,,,,,,,,,,,,,,,,1193.3256,1193.3256,1193.3263,1195.1254,0,1,left,1.2752,,1195.1265,1195.1271,0,0,,1195.1276,1195.1279,1,0,,0,1195.128,1195.128,1195.1283,1196.6254,0,23,23,23,1,0.6,0.4,0.4,0.6,1,0,,,,,,,,,,,,,,,,,,,,,,,,,,,,,,,,,,,,
,,66daf1642fab82cb5a1df01b,66dafa10abf8c672cf55adbe,2024-09-06_15h06.44.113,mdp,2024.2.1,Win32,60.24096386,66d7945b1baad48e845df3ce,,,,,,,,,,,,,,,,,,,,,1196.6256,1196.6256,1196.6259,1197.7754,0,0,left,0.6238,,1197.7762,1197.7766,0,0,,1197.777,1197.7772,1,0,,1,1197.7772,1197.7772,1197.7776,1199.2754,0,24,24,24,1,0.6,0.4,0.4,0.6,1,0,,,,,,,,,,,,,,,,,,,,,,,,,,,,,,,,,,,,
,,66daf1642fab82cb5a1df01b,66dafa10abf8c672cf55adbe,2024-09-06_15h06.44.113,mdp,2024.2.1,Win32,60.24096386,66d7945b1baad48e845df3ce,,,,,,,,,,,,,,,,,,,,,1199.2757,1199.2757,1199.2761,1200.6088,0,0,left,0.7976,,1200.6094,1200.6098,0,1,,1200.6101,1200.6103,1,0,,1,1200.6103,1200.6103,1200.6105,1202.1089,0,25,25,25,1,0.6,0.4,0.4,0.6,1,0,,,,,,,,,,,,,,,,,,,,,,,,,,,,,,,,,,,,
,,66daf1642fab82cb5a1df01b,66dafa10abf8c672cf55adbe,2024-09-06_15h06.44.113,mdp,2024.2.1,Win32,60.24096386,66d7945b1baad48e845df3ce,,,,,,,,,,,,,,,,,,,,,1202.1091,1202.1092,1202.1097,1203.0587,0,1,left,0.4193,,1203.0594,1203.0598,0,0,,1203.0603,1203.0606,1,1,,0,1203.0606,1203.0606,1203.0609,1204.5588,0,26,26,26,1,0.6,0.4,0.4,0.6,1,0,,,,,,,,,,,,,,,,,,,,,,,,,,,,,,,,,,,,
,,66daf1642fab82cb5a1df01b,66dafa10abf8c672cf55adbe,2024-09-06_15h06.44.113,mdp,2024.2.1,Win32,60.24096386,66d7945b1baad48e845df3ce,,,,,,,,,,,,,,,,,,,,,1204.559,1204.559,1204.5596,1205.3255,0,0,left,0.2433,,1205.3261,1205.3264,0,1,,1205.3269,1205.3272,1,0,,1,1205.3272,1205.3272,1205.3276,1206.8254,0,27,27,27,1,0.8,0.2,0.6,0.4,1,0,,,,,,,,,,,,,,,,,,,,,,,,,,,,,,,,,,,,
,,66daf1642fab82cb5a1df01b,66dafa10abf8c672cf55adbe,2024-09-06_15h06.44.113,mdp,2024.2.1,Win32,60.24096386,66d7945b1baad48e845df3ce,,,,,,,,,,,,,,,,,,,,,1206.8256,1206.8256,1206.8262,1207.7421,0,0,left,0.3875,,1207.7428,1207.7431,0,0,,1207.7434,1207.7436,1,0,,1,1207.7436,1207.7436,1207.7438,1209.2421,0,28,28,28,1,0.8,0.2,0.6,0.4,1,0,,,,,,,,,,,,,,,,,,,,,,,,,,,,,,,,,,,,
,,66daf1642fab82cb5a1df01b,66dafa10abf8c672cf55adbe,2024-09-06_15h06.44.113,mdp,2024.2.1,Win32,60.24096386,66d7945b1baad48e845df3ce,,,,,,,,,,,,,,,,,,,,,1209.2423,1209.2423,1209.2428,1210.4587,0,0,left,0.6896,,1210.4594,1210.4598,0,0,,1210.4602,1210.4605,1,0,,1,1210.4606,1210.4606,1210.4609,1211.9586,0,29,29,29,1,0.8,0.2,0.6,0.4,1,0,,,,,,,,,,,,,,,,,,,,,,,,,,,,,,,,,,,,
,,66daf1642fab82cb5a1df01b,66dafa10abf8c672cf55adbe,2024-09-06_15h06.44.113,mdp,2024.2.1,Win32,60.24096386,66d7945b1baad48e845df3ce,,,,,,,,,,,,,,,,,,,,,1211.9589,1211.9589,1211.9594,1212.7754,0,1,left,0.2794,,1212.776,1212.7764,0,0,,1212.7767,1212.7769,1,1,,0,1212.777,1212.777,1212.7772,1214.2754,0,30,30,30,1,0.6,0.4,0.4,0.6,1,0,,,,,,,,,,,,,,,,,,,,,,,,,,,,,,,,,,,,
,,66daf1642fab82cb5a1df01b,66dafa10abf8c672cf55adbe,2024-09-06_15h06.44.113,mdp,2024.2.1,Win32,60.24096386,66d7945b1baad48e845df3ce,,,,,,,,,,,,,,,,,,,,,1214.2757,1214.2757,1214.2763,1215.1087,0,0,left,0.3099,,1215.1094,1215.1096,0,1,,1215.1099,1215.11,1,1,,1,1215.11,1215.11,1215.1102,1216.6086,0,31,31,31,1,0.6,0.4,0.4,0.6,1,0,,,,,,,,,,,,,,,,,,,,,,,,,,,,,,,,,,,,
,,66daf1642fab82cb5a1df01b,66dafa10abf8c672cf55adbe,2024-09-06_15h06.44.113,mdp,2024.2.1,Win32,60.24096386,66d7945b1baad48e845df3ce,,,,,,,,,,,,,,,,,,,,,1216.6089,1216.6089,1216.6095,1217.492,0,1,left,0.3588,,1217.4926,1217.4929,0,0,,1217.4933,1217.4936,1,1,,0,1217.4936,1217.4936,1217.4938,1218.9921,0,32,32,32,1,0.2,0.8,0.6,0.4,1,0,,,,,,,,,,,,,,,,,,,,,,,,,,,,,,,,,,,,
,,66daf1642fab82cb5a1df01b,66dafa10abf8c672cf55adbe,2024-09-06_15h06.44.113,mdp,2024.2.1,Win32,60.24096386,66d7945b1baad48e845df3ce,,,,,,,,,,,,,,,,,,,,,1218.9923,1218.9923,1218.9931,1220.3088,0,0,left,0.7883,,1220.3095,1220.3097,0,1,,1220.31,1220.3103,1,1,,1,1220.3103,1220.3103,1220.3104,1221.8087,0,33,33,33,1,0.6,0.4,0.8,0.2,1,0,,,,,,,,,,,,,,,,,,,,,,,,,,,,,,,,,,,,
,,66daf1642fab82cb5a1df01b,66dafa10abf8c672cf55adbe,2024-09-06_15h06.44.113,mdp,2024.2.1,Win32,60.24096386,66d7945b1baad48e845df3ce,,,,,,,,,,,,,,,,,,,,,1221.809,1221.809,1221.8095,1223.4087,0,1,left,1.0729,,1223.4093,1223.4097,0,0,,1223.41,1223.4103,1,0,,0,1223.4103,1223.4103,1223.4106,1224.9086,0,34,34,34,1,0.6,0.4,0.8,0.2,1,0,,,,,,,,,,,,,,,,,,,,,,,,,,,,,,,,,,,,
,,66daf1642fab82cb5a1df01b,66dafa10abf8c672cf55adbe,2024-09-06_15h06.44.113,mdp,2024.2.1,Win32,60.24096386,66d7945b1baad48e845df3ce,,,,,,,,,,,,,,,,,,,,,1224.909,1224.909,1224.9095,1225.6922,0,1,left,0.2477,,1225.693,1225.6933,0,0,,1225.6937,1225.694,1,1,,0,1225.694,1225.694,1225.6942,1227.192,0,35,35,35,1,0.6,0.4,0.8,0.2,1,0,,,,,,,,,,,,,,,,,,,,,,,,,,,,,,,,,,,,
,,66daf1642fab82cb5a1df01b,66dafa10abf8c672cf55adbe,2024-09-06_15h06.44.113,mdp,2024.2.1,Win32,60.24096386,66d7945b1baad48e845df3ce,,,,,,,,,,,,,,,,,,,,,1227.1924,1227.1924,1227.1931,1228.092,0,1,left,0.3689,,1228.0927,1228.0931,0,0,,1228.0934,1228.0937,1,0,,0,1228.0937,1228.0937,1228.0939,1229.5921,0,36,36,36,1,0.6,0.4,0.8,0.2,1,0,,,,,,,,,,,,,,,,,,,,,,,,,,,,,,,,,,,,
,,66daf1642fab82cb5a1df01b,66dafa10abf8c672cf55adbe,2024-09-06_15h06.44.113,mdp,2024.2.1,Win32,60.24096386,66d7945b1baad48e845df3ce,,,,,,,,,,,,,,,,,,,,,1229.5924,1229.5924,1229.5931,1230.5921,0,0,left,0.4746,,1230.5929,1230.5934,0,1,,1230.5937,1230.5939,1,0,,1,1230.5939,1230.5939,1230.5942,1232.092,0,37,37,37,1,0.4,0.6,0.6,0.4,1,0,,,,,,,,,,,,,,,,,,,,,,,,,,,,,,,,,,,,
,,66daf1642fab82cb5a1df01b,66dafa10abf8c672cf55adbe,2024-09-06_15h06.44.113,mdp,2024.2.1,Win32,60.24096386,66d7945b1baad48e845df3ce,,,,,,,,,,,,,,,,,,,,,1232.0922,1232.0923,1232.093,1233.0587,0,1,left,0.4335,,1233.0593,1233.0597,0,1,,1233.0601,1233.0603,1,0,,0,1233.0603,1233.0603,1233.0604,1234.5587,0,38,38,38,1,0.4,0.6,0.6,0.4,1,0,,,,,,,,,,,,,,,,,,,,,,,,,,,,,,,,,,,,
,,66daf1642fab82cb5a1df01b,66dafa10abf8c672cf55adbe,2024-09-06_15h06.44.113,mdp,2024.2.1,Win32,60.24096386,66d7945b1baad48e845df3ce,,,,,,,,,,,,,,,,,,,,,1234.5589,1234.5589,1234.5594,1238.8754,0,0,left,3.7942,,1238.881,1238.8813,0,0,,1238.8816,1238.8818,1,0,,1,1238.8818,1238.8818,1238.882,1240.3753,0,39,39,39,1,0.4,0.6,0.6,0.4,1,0,,,,,,,,,,,,,,,,,,,,,,,,,,,,,,,,,,,,
,,66daf1642fab82cb5a1df01b,66dafa10abf8c672cf55adbe,2024-09-06_15h06.44.113,mdp,2024.2.1,Win32,60.24096386,66d7945b1baad48e845df3ce,,,,,,,,,,,,,,,,,,,,,1240.3756,1240.3756,1240.3762,1246.2087,0,0,left,5.3141,,1246.2147,1246.2151,0,0,,1246.2153,1246.2155,1,1,,1,1246.2155,1246.2155,1246.2157,1247.7086,0,40,40,40,1,0.6,0.4,0.2,0.8,1,0,,,,,,,,,,,,,,,,,,,,,,,,,,,,,,,,,,,,
,,66daf1642fab82cb5a1df01b,66dafa10abf8c672cf55adbe,2024-09-06_15h06.44.113,mdp,2024.2.1,Win32,60.24096386,66d7945b1baad48e845df3ce,,,,,,,,,,,,,,,,,,,,,1247.7089,1247.7089,1247.7093,1248.742,0,0,left,0.5096,,1248.7426,1248.7429,0,0,,1248.7433,1248.7434,1,1,,1,1248.7434,1248.7434,1248.7437,1250.242,0,41,41,41,1,0.6,0.4,0.2,0.8,1,0,,,,,,,,,,,,,,,,,,,,,,,,,,,,,,,,,,,,
