init_exp.started,init_exp.stopped,participant,session,date,expName,psychopyVersion,OS,frameRate,study_id,disp_instruction.started,disp_instruction.stopped,instruction.thisRepN,instruction.thisTrialN,instruction.thisN,instruction.thisIndex,instruction.ran,instimg_path,consent.started,consent.stopped,key_resp_3.keys,key_resp_3.rt,key_resp_3.duration,n_steps,sequence_path,init_block.started,init_block.stopped,key_resp.keys,key_resp.rt,key_resp.duration,init_trials.started,init_trials.stopped,step0.started,step0.stopped,act0,s1,res0.keys,res0.rt,res0.duration,step1.started,step1.stopped,act1,s2,res1.keys,step2.started,step2.stopped,act2,s3,res2.keys,rew,reward_comp.started,reward_comp.stopped,reward_disp.started,reward_disp.stopped,trials.thisRepN,trials.thisTrialN,trials.thisN,trials.thisIndex,trials.ran,s00a0s10,s00a0s11,s00a1s10,s00a1s11,rew10,rew11,break_block.started,break_block.stopped,block.thisRepN,block.thisTrialN,block.thisN,block.thisIndex,block.ran,s00path,s10path,s11path,s20path,s21path,res1.rt,res1.duration,s10a0s20,s10a0s21,s10a1s20,s10a1s21,s11a0s20,s11a0s21,s11a1s20,s11a1s21,rew20,rew21,res2.rt,res2.duration,s20a0s30,s20a0s31,s20a1s30,s20a1s31,s21a0s30,s21a0s31,s21a1s30,s21a1s31,rew30,rew31
0.001,0.005,66da1ee997e80ed7628558f3,66daf5b7788896b5b1c3e337,2024-09-06_14h32.38.588,mdp,2024.2.1,Win32,60.09615385,66d7945b1baad48e845df3ce,,,,,,,,,,,,,,,,,,,,,,,,,,,,,,,,,,,,,,,,,,,,,,,,,,,,,,,,,,,,,,,,,,,,,,,,,,,,,,,,,,,,,,,,,,,
,,66da1ee997e80ed7628558f3,66daf5b7788896b5b1c3e337,2024-09-06_14h32.38.588,mdp,2024.2.1,Win32,60.09615385,66d7945b1baad48e845df3ce,0.014,103.726,0,0,0,0,1,rlnn_exp/rlnn_exp.001.png,,,,,,,,,,,,,,,,,,,,,,,,,,,,,,,,,,,,,,,,,,,,,,,,,,,,,,,,,,,,,,,,,,,,,,,,,,,,,,,,,,,
,,66da1ee997e80ed7628558f3,66daf5b7788896b5b1c3e337,2024-09-06_14h32.38.588,mdp,2024.2.1,Win32,60.09615385,66d7945b1baad48e845df3ce,103.733,130.969,0,1,1,1,1,rlnn_exp/rlnn_exp.002.png,,,,,,,,,,,,,,,,,,,,,,,,,,,,,,,,,,,,,,,,,,,,,,,,,,,,,,,,,,,,,,,,,,,,,,,,,,,,,,,,,,,
,,66da1ee997e80ed7628558f3,66daf5b7788896b5b1c3e337,2024-09-06_14h32.38.588,mdp,2024.2.1,Win32,60.09615385,66d7945b1baad48e845df3ce,130.972,199.491,0,2,2,2,1,rlnn_exp/rlnn_exp.003.png,,,,,,,,,,,,,,,,,,,,,,,,,,,,,,,,,,,,,,,,,,,,,,,,,,,,,,,,,,,,,,,,,,,,,,,,,,,,,,,,,,,
,,66da1ee997e80ed7628558f3,66daf5b7788896b5b1c3e337,2024-09-06_14h32.38.588,mdp,2024.2.1,Win32,60.09615385,66d7945b1baad48e845df3ce,199.496,230.505,0,3,3,3,1,rlnn_exp/rlnn_exp.004.png,,,,,,,,,,,,,,,,,,,,,,,,,,,,,,,,,,,,,,,,,,,,,,,,,,,,,,,,,,,,,,,,,,,,,,,,,,,,,,,,,,,
,,66da1ee997e80ed7628558f3,66daf5b7788896b5b1c3e337,2024-09-06_14h32.38.588,mdp,2024.2.1,Win32,60.09615385,66d7945b1baad48e845df3ce,,,,,,,,,230.505,245.268,y,4.712,,,,,,,,,,,,,,,,,,,,,,,,,,,,,,,,,,,,,,,,,,,,,,,,,,,,,,,,,,,,,,,,,,,,,,,,,,,,,,,
,,66da1ee997e80ed7628558f3,66daf5b7788896b5b1c3e337,2024-09-06_14h32.38.588,mdp,2024.2.1,Win32,60.09615385,66d7945b1baad48e845df3ce,,,,,,,,,,,,,,1,seqs/st1seq7.csv,245.291,250.965,space,5.129,,250.984,250.984,250.986,280.824,1,0,right,29.285,,280.83,280.845,,0,,280.847,280.86,,0,,1,280.86,280.86,280.866,282.353,0,0,0,0,1,0.2,0.8,0.8,0.2,1,0,,,,,,,,,,,,,,,,,,,,,,,,,,,,,,,,,,,,
,,66da1ee997e80ed7628558f3,66daf5b7788896b5b1c3e337,2024-09-06_14h32.38.588,mdp,2024.2.1,Win32,60.09615385,66d7945b1baad48e845df3ce,,,,,,,,,,,,,,,,,,,,,282.354,282.354,282.357,286.692,1,0,right,3.787,,286.694,286.699,,0,,286.7,286.702,,0,,1,286.703,286.703,286.704,288.215,0,1,1,1,1,0.2,0.8,0.8,0.2,1,0,,,,,,,,,,,,,,,,,,,,,,,,,,,,,,,,,,,,
,,66da1ee997e80ed7628558f3,66daf5b7788896b5b1c3e337,2024-09-06_14h32.38.588,mdp,2024.2.1,Win32,60.09615385,66d7945b1baad48e845df3ce,,,,,,,,,,,,,,,,,,,,,288.216,288.216,288.219,291.046,0,0,left,2.295,,291.049,291.053,,1,,291.059,291.064,,1,,1,291.064,291.064,291.067,292.556,0,2,2,2,1,0.2,0.8,0.8,0.2,1,0,,,,,,,,,,,,,,,,,,,,,,,,,,,,,,,,,,,,
,,66da1ee997e80ed7628558f3,66daf5b7788896b5b1c3e337,2024-09-06_14h32.38.588,mdp,2024.2.1,Win32,60.09615385,66d7945b1baad48e845df3ce,,,,,,,,,,,,,,,,,,,,,292.557,292.557,292.559,294.276,1,1,right,1.178,,294.279,294.282,,0,,294.286,294.29,,0,,0,294.29,294.29,294.291,295.779,0,3,3,3,1,0.2,0.8,0.8,0.2,1,0,,,,,,,,,,,,,,,,,,,,,,,,,,,,,,,,,,,,
,,66da1ee997e80ed7628558f3,66daf5b7788896b5b1c3e337,2024-09-06_14h32.38.588,mdp,2024.2.1,Win32,60.09615385,66d7945b1baad48e845df3ce,,,,,,,,,,,,,,,,,,,,,295.781,295.781,295.782,297.616,0,0,left,1.31,,297.619,297.622,,1,,297.624,297.626,,0,,1,297.626,297.626,297.627,299.142,0,4,4,4,1,0.2,0.8,0.8,0.2,1,0,,,,,,,,,,,,,,,,,,,,,,,,,,,,,,,,,,,,
,,66da1ee997e80ed7628558f3,66daf5b7788896b5b1c3e337,2024-09-06_14h32.38.588,mdp,2024.2.1,Win32,60.09615385,66d7945b1baad48e845df3ce,,,,,,,,,,,,,,,,,,,,,299.143,299.143,299.145,301.79,1,1,right,2.106,,301.792,301.795,,1,,301.801,301.804,,0,,0,301.804,301.805,301.807,303.3,0,5,5,5,1,0.6,0.4,0.2,0.8,1,0,,,,,,,,,,,,,,,,,,,,,,,,,,,,,,,,,,,,
,,66da1ee997e80ed7628558f3,66daf5b7788896b5b1c3e337,2024-09-06_14h32.38.588,mdp,2024.2.1,Win32,60.09615385,66d7945b1baad48e845df3ce,,,,,,,,,,,,,,,,,,,,,303.301,303.301,303.303,304.574,0,0,left,0.728,,304.575,304.577,,0,,304.579,304.582,,0,,1,304.582,304.582,304.583,306.08,0,6,6,6,1,0.6,0.4,0.2,0.8,1,0,,,,,,,,,,,,,,,,,,,,,,,,,,,,,,,,,,,,
,,66da1ee997e80ed7628558f3,66daf5b7788896b5b1c3e337,2024-09-06_14h32.38.588,mdp,2024.2.1,Win32,60.09615385,66d7945b1baad48e845df3ce,,,,,,,,,,,,,,,,,,,,,306.083,306.083,306.085,307.579,0,0,left,0.961,,307.586,307.59,,0,,307.593,307.596,,0,,1,307.596,307.596,307.597,309.095,0,7,7,7,1,0.6,0.4,0.2,0.8,1,0,,,,,,,,,,,,,,,,,,,,,,,,,,,,,,,,,,,,
,,66da1ee997e80ed7628558f3,66daf5b7788896b5b1c3e337,2024-09-06_14h32.38.588,mdp,2024.2.1,Win32,60.09615385,66d7945b1baad48e845df3ce,,,,,,,,,,,,,,,,,,,,,309.096,309.096,309.098,310.317,0,0,left,0.691,,310.32,310.332,,0,,310.335,310.344,,1,,1,310.344,310.344,310.347,311.843,0,8,8,8,1,0.6,0.4,0.2,0.8,1,0,,,,,,,,,,,,,,,,,,,,,,,,,,,,,,,,,,,,
,,66da1ee997e80ed7628558f3,66daf5b7788896b5b1c3e337,2024-09-06_14h32.38.588,mdp,2024.2.1,Win32,60.09615385,66d7945b1baad48e845df3ce,,,,,,,,,,,,,,,,,,,,,311.843,311.843,311.844,313.524,0,0,left,1.151,,313.527,313.53,,0,,313.533,313.535,,1,,1,313.535,313.535,313.536,315.024,0,9,9,9,1,0.6,0.4,0.2,0.8,1,0,,,,,,,,,,,,,,,,,,,,,,,,,,,,,,,,,,,,
,,66da1ee997e80ed7628558f3,66daf5b7788896b5b1c3e337,2024-09-06_14h32.38.588,mdp,2024.2.1,Win32,60.09615385,66d7945b1baad48e845df3ce,,,,,,,,,,,,,,,,,,,,,315.025,315.025,315.028,316.515,0,1,left,0.961,,316.517,316.523,,1,,316.524,316.527,,0,,0,316.527,316.527,316.528,318.022,0,10,10,10,1,0.4,0.6,0.8,0.2,1,0,,,,,,,,,,,,,,,,,,,,,,,,,,,,,,,,,,,,
,,66da1ee997e80ed7628558f3,66daf5b7788896b5b1c3e337,2024-09-06_14h32.38.588,mdp,2024.2.1,Win32,60.09615385,66d7945b1baad48e845df3ce,,,,,,,,,,,,,,,,,,,,,318.022,318.023,318.024,319.162,0,1,left,0.605,,319.163,319.173,,0,,319.174,319.176,,0,,0,319.176,319.176,319.177,320.674,0,11,11,11,1,0.4,0.6,0.8,0.2,1,0,,,,,,,,,,,,,,,,,,,,,,,,,,,,,,,,,,,,
,,66da1ee997e80ed7628558f3,66daf5b7788896b5b1c3e337,2024-09-06_14h32.38.588,mdp,2024.2.1,Win32,60.09615385,66d7945b1baad48e845df3ce,,,,,,,,,,,,,,,,,,,,,320.675,320.675,320.676,321.702,0,0,left,0.483,,321.705,321.707,,1,,321.708,321.712,,0,,1,321.712,321.713,321.718,323.217,0,12,12,12,1,0.4,0.6,0.8,0.2,1,0,,,,,,,,,,,,,,,,,,,,,,,,,,,,,,,,,,,,
,,66da1ee997e80ed7628558f3,66daf5b7788896b5b1c3e337,2024-09-06_14h32.38.588,mdp,2024.2.1,Win32,60.09615385,66d7945b1baad48e845df3ce,,,,,,,,,,,,,,,,,,,,,323.218,323.218,323.219,324.242,0,1,left,0.497,,324.251,324.254,,0,,324.257,324.259,,1,,0,324.259,324.259,324.263,325.755,0,13,13,13,1,0.4,0.6,0.8,0.2,1,0,,,,,,,,,,,,,,,,,,,,,,,,,,,,,,,,,,,,
,,66da1ee997e80ed7628558f3,66daf5b7788896b5b1c3e337,2024-09-06_14h32.38.588,mdp,2024.2.1,Win32,60.09615385,66d7945b1baad48e845df3ce,,,,,,,,,,,,,,,,,,,,,325.756,325.756,325.758,326.4,1,0,right,0.1,,326.403,326.406,,0,,326.408,326.415,,0,,1,326.415,326.416,326.418,327.906,0,14,14,14,1,0.4,0.6,0.8,0.2,1,0,,,,,,,,,,,,,,,,,,,,,,,,,,,,,,,,,,,,
,,66da1ee997e80ed7628558f3,66daf5b7788896b5b1c3e337,2024-09-06_14h32.38.588,mdp,2024.2.1,Win32,60.09615385,66d7945b1baad48e845df3ce,,,,,,,,,,,,,,,,,,,,,327.907,327.907,327.913,328.645,1,1,right,0.194,,328.646,328.646,,1,,328.648,328.65,,0,,0,328.65,328.65,328.652,330.13,0,15,15,15,1,0.4,0.6,0.8,0.2,1,0,,,,,,,,,,,,,,,,,,,,,,,,,,,,,,,,,,,,
,,66da1ee997e80ed7628558f3,66daf5b7788896b5b1c3e337,2024-09-06_14h32.38.588,mdp,2024.2.1,Win32,60.09615385,66d7945b1baad48e845df3ce,,,,,,,,,,,,,,,,,,,,,330.133,330.133,330.134,331.627,1,0,right,0.953,,331.63,331.632,,0,,331.633,331.634,,0,,1,331.634,331.634,331.635,333.113,0,16,16,16,1,0.4,0.6,0.8,0.2,1,0,,,,,,,,,,,,,,,,,,,,,,,,,,,,,,,,,,,,
,,66da1ee997e80ed7628558f3,66daf5b7788896b5b1c3e337,2024-09-06_14h32.38.588,mdp,2024.2.1,Win32,60.09615385,66d7945b1baad48e845df3ce,,,,,,,,,,,,,,,,,,,,,333.114,333.114,333.116,333.809,0,1,left,0.161,,333.809,333.812,,0,,333.813,333.814,,1,,0,333.814,333.814,333.816,335.308,0,17,17,17,1,0.4,0.6,0.8,0.2,1,0,,,,,,,,,,,,,,,,,,,,,,,,,,,,,,,,,,,,
,,66da1ee997e80ed7628558f3,66daf5b7788896b5b1c3e337,2024-09-06_14h32.38.588,mdp,2024.2.1,Win32,60.09615385,66d7945b1baad48e845df3ce,,,,,,,,,,,,,,,,,,,,,335.308,335.308,335.311,335.965,0,1,left,0.121,,335.973,335.976,,0,,335.978,335.98,,1,,0,335.98,335.98,335.983,337.476,0,18,18,18,1,0.4,0.6,0.8,0.2,1,0,,,,,,,,,,,,,,,,,,,,,,,,,,,,,,,,,,,,
,,66da1ee997e80ed7628558f3,66daf5b7788896b5b1c3e337,2024-09-06_14h32.38.588,mdp,2024.2.1,Win32,60.09615385,66d7945b1baad48e845df3ce,,,,,,,,,,,,,,,,,,,,,337.477,337.477,337.477,338.012,0,1,left,0.003,,338.015,338.024,,0,,338.026,338.028,,0,,0,338.029,338.029,338.031,339.518,0,19,19,19,1,0.6,0.4,0.2,0.8,1,0,,,,,,,,,,,,,,,,,,,,,,,,,,,,,,,,,,,,
,,66da1ee997e80ed7628558f3,66daf5b7788896b5b1c3e337,2024-09-06_14h32.38.588,mdp,2024.2.1,Win32,60.09615385,66d7945b1baad48e845df3ce,,,,,,,,,,,,,,,,,,,,,339.519,339.519,339.52,340.72,0,0,left,0.667,,340.724,340.726,,0,,340.729,340.738,,0,,1,340.738,340.738,340.741,342.238,0,20,20,20,1,0.8,0.2,0.4,0.6,1,0,,,,,,,,,,,,,,,,,,,,,,,,,,,,,,,,,,,,
,,66da1ee997e80ed7628558f3,66daf5b7788896b5b1c3e337,2024-09-06_14h32.38.588,mdp,2024.2.1,Win32,60.09615385,66d7945b1baad48e845df3ce,,,,,,,,,,,,,,,,,,,,,342.242,342.242,342.251,342.816,1,1,right,0.048,,342.82,342.824,,1,,342.825,342.828,,1,,0,342.828,342.828,342.833,344.316,0,21,21,21,1,0.8,0.2,0.4,0.6,1,0,,,,,,,,,,,,,,,,,,,,,,,,,,,,,,,,,,,,
,,66da1ee997e80ed7628558f3,66daf5b7788896b5b1c3e337,2024-09-06_14h32.38.588,mdp,2024.2.1,Win32,60.09615385,66d7945b1baad48e845df3ce,,,,,,,,,,,,,,,,,,,,,344.318,344.318,344.32,344.975,0,1,left,0.124,,344.978,344.982,,1,,344.983,344.984,,1,,0,344.984,344.984,344.986,346.466,0,22,22,22,1,0.4,0.6,0.8,0.2,1,0,,,,,,,,,,,,,,,,,,,,,,,,,,,,,,,,,,,,
,,66da1ee997e80ed7628558f3,66daf5b7788896b5b1c3e337,2024-09-06_14h32.38.588,mdp,2024.2.1,Win32,60.09615385,66d7945b1baad48e845df3ce,,,,,,,,,,,,,,,,,,,,,346.467,346.467,346.469,348.435,0,1,left,1.425,,348.438,348.449,,1,,348.453,348.458,,1,,0,348.458,348.458,348.46,349.952,0,23,23,23,1,0.4,0.6,0.8,0.2,1,0,,,,,,,,,,,,,,,,,,,,,,,,,,,,,,,,,,,,
,,66da1ee997e80ed7628558f3,66daf5b7788896b5b1c3e337,2024-09-06_14h32.38.588,mdp,2024.2.1,Win32,60.09615385,66d7945b1baad48e845df3ce,,,,,,,,,,,,,,,,,,,,,349.953,349.954,349.963,351.549,1,0,right,1.07,,351.552,351.562,,1,,351.565,351.567,,0,,1,351.567,351.567,351.569,353.045,0,24,24,24,1,0.4,0.6,0.8,0.2,1,0,,,,,,,,,,,,,,,,,,,,,,,,,,,,,,,,,,,,
,,66da1ee997e80ed7628558f3,66daf5b7788896b5b1c3e337,2024-09-06_14h32.38.588,mdp,2024.2.1,Win32,60.09615385,66d7945b1baad48e845df3ce,,,,,,,,,,,,,,,,,,,,,353.046,353.046,353.048,354.692,1,0,right,1.117,,354.693,354.695,,0,,354.697,354.697,,0,,1,354.697,354.697,354.698,356.189,0,25,25,25,1,0.4,0.6,0.8,0.2,1,0,,,,,,,,,,,,,,,,,,,,,,,,,,,,,,,,,,,,
,,66da1ee997e80ed7628558f3,66daf5b7788896b5b1c3e337,2024-09-06_14h32.38.588,mdp,2024.2.1,Win32,60.09615385,66d7945b1baad48e845df3ce,,,,,,,,,,,,,,,,,,,,,356.191,356.191,356.193,356.837,0,0,left,0.101,,356.84,356.844,,1,,356.846,356.848,,1,,1,356.848,356.848,356.852,358.338,0,26,26,26,1,0.4,0.6,0.8,0.2,1,0,,,,,,,,,,,,,,,,,,,,,,,,,,,,,,,,,,,,
,,66da1ee997e80ed7628558f3,66daf5b7788896b5b1c3e337,2024-09-06_14h32.38.588,mdp,2024.2.1,Win32,60.09615385,66d7945b1baad48e845df3ce,,,,,,,,,,,,,,,,,,,,,358.339,358.339,358.34,359.059,1,0,right,0.185,,359.062,359.068,,0,,359.07,359.073,,1,,1,359.073,359.073,359.074,360.574,0,27,27,27,1,0.4,0.6,0.8,0.2,1,0,,,,,,,,,,,,,,,,,,,,,,,,,,,,,,,,,,,,
,,66da1ee997e80ed7628558f3,66daf5b7788896b5b1c3e337,2024-09-06_14h32.38.588,mdp,2024.2.1,Win32,60.09615385,66d7945b1baad48e845df3ce,,,,,,,,,,,,,,,,,,,,,360.576,360.576,360.578,361.244,0,1,left,0.136,,361.252,361.255,,1,,361.258,361.259,,0,,0,361.259,361.259,361.264,362.743,0,28,28,28,1,0.4,0.6,0.8,0.2,1,0,,,,,,,,,,,,,,,,,,,,,,,,,,,,,,,,,,,,
,,66da1ee997e80ed7628558f3,66daf5b7788896b5b1c3e337,2024-09-06_14h32.38.588,mdp,2024.2.1,Win32,60.09615385,66d7945b1baad48e845df3ce,,,,,,,,,,,,,,,,,,,,,362.744,362.744,362.749,364.055,0,1,left,0.795,,364.057,364.066,,0,,364.069,364.073,,0,,0,364.073,364.073,364.074,365.564,0,29,29,29,1,0.4,0.6,0.8,0.2,1,0,,,,,,,,,,,,,,,,,,,,,,,,,,,,,,,,,,,,
,,66da1ee997e80ed7628558f3,66daf5b7788896b5b1c3e337,2024-09-06_14h32.38.588,mdp,2024.2.1,Win32,60.09615385,66d7945b1baad48e845df3ce,,,,,,,,,,,,,,,,,,,,,365.564,365.565,365.567,366.439,0,0,left,0.354,,366.445,366.446,,1,,366.447,366.449,,0,,1,366.449,366.449,366.451,367.951,0,30,30,30,1,0.8,0.2,0.6,0.4,1,0,,,,,,,,,,,,,,,,,,,,,,,,,,,,,,,,,,,,
,,66da1ee997e80ed7628558f3,66daf5b7788896b5b1c3e337,2024-09-06_14h32.38.588,mdp,2024.2.1,Win32,60.09615385,66d7945b1baad48e845df3ce,,,,,,,,,,,,,,,,,,,,,367.952,367.952,367.954,368.53,1,0,right,0.03,,368.533,368.536,,1,,368.55,368.56,,1,,1,368.56,368.56,368.56,370.06,0,31,31,31,1,0.6,0.4,0.4,0.6,1,0,,,,,,,,,,,,,,,,,,,,,,,,,,,,,,,,,,,,
,,66da1ee997e80ed7628558f3,66daf5b7788896b5b1c3e337,2024-09-06_14h32.38.588,mdp,2024.2.1,Win32,60.09615385,66d7945b1baad48e845df3ce,,,,,,,,,,,,,,,,,,,,,370.062,370.062,370.065,370.695,1,0,right,0.081,,370.697,370.7,,0,,370.702,370.71,,1,,1,370.71,370.71,370.713,372.212,0,32,32,32,1,0.6,0.4,0.4,0.6,1,0,,,,,,,,,,,,,,,,,,,,,,,,,,,,,,,,,,,,
,,66da1ee997e80ed7628558f3,66daf5b7788896b5b1c3e337,2024-09-06_14h32.38.588,mdp,2024.2.1,Win32,60.09615385,66d7945b1baad48e845df3ce,,,,,,,,,,,,,,,,,,,,,372.213,372.213,372.216,373.057,0,1,left,0.304,,373.059,373.062,,1,,373.065,373.067,,0,,0,373.067,373.067,373.073,374.566,0,33,33,33,1,0.6,0.4,0.4,0.6,1,0,,,,,,,,,,,,,,,,,,,,,,,,,,,,,,,,,,,,
,,66da1ee997e80ed7628558f3,66daf5b7788896b5b1c3e337,2024-09-06_14h32.38.588,mdp,2024.2.1,Win32,60.09615385,66d7945b1baad48e845df3ce,,,,,,,,,,,,,,,,,,,,,374.566,374.566,374.573,375.738,1,1,right,0.639,,375.74,375.743,,0,,375.746,375.748,,1,,0,375.748,375.748,375.753,377.225,0,34,34,34,1,0.6,0.4,0.4,0.6,1,0,,,,,,,,,,,,,,,,,,,,,,,,,,,,,,,,,,,,
,,66da1ee997e80ed7628558f3,66daf5b7788896b5b1c3e337,2024-09-06_14h32.38.588,mdp,2024.2.1,Win32,60.09615385,66d7945b1baad48e845df3ce,,,,,,,,,,,,,,,,,,,,,377.226,377.226,377.228,378.306,1,1,right,0.519,,378.309,378.312,,1,,378.32,378.323,,1,,0,378.324,378.324,378.325,379.825,0,35,35,35,1,0.6,0.4,0.4,0.6,1,0,,,,,,,,,,,,,,,,,,,,,,,,,,,,,,,,,,,,
,,66da1ee997e80ed7628558f3,66daf5b7788896b5b1c3e337,2024-09-06_14h32.38.588,mdp,2024.2.1,Win32,60.09615385,66d7945b1baad48e845df3ce,,,,,,,,,,,,,,,,,,,,,379.838,379.838,379.849,380.642,1,1,right,0.258,,380.644,380.653,,1,,380.654,380.657,,0,,0,380.657,380.657,380.658,382.154,0,36,36,36,1,0.6,0.4,0.4,0.6,1,0,,,,,,,,,,,,,,,,,,,,,,,,,,,,,,,,,,,,
,,66da1ee997e80ed7628558f3,66daf5b7788896b5b1c3e337,2024-09-06_14h32.38.588,mdp,2024.2.1,Win32,60.09615385,66d7945b1baad48e845df3ce,,,,,,,,,,,,,,,,,,,,,382.154,382.154,382.156,382.7,0,0,left,0.02,,382.703,382.707,,0,,382.71,382.716,,0,,1,382.716,382.716,382.718,384.198,0,37,37,37,1,0.6,0.4,0.4,0.6,1,0,,,,,,,,,,,,,,,,,,,,,,,,,,,,,,,,,,,,
,,66da1ee997e80ed7628558f3,66daf5b7788896b5b1c3e337,2024-09-06_14h32.38.588,mdp,2024.2.1,Win32,60.09615385,66d7945b1baad48e845df3ce,,,,,,,,,,,,,,,,,,,,,384.199,384.199,384.201,384.798,0,0,left,0.057,,384.8,384.805,,0,,384.808,384.816,,0,,1,384.816,384.816,384.817,386.31,0,38,38,38,1,0.6,0.4,0.4,0.6,1,0,,,,,,,,,,,,,,,,,,,,,,,,,,,,,,,,,,,,
,,66da1ee997e80ed7628558f3,66daf5b7788896b5b1c3e337,2024-09-06_14h32.38.588,mdp,2024.2.1,Win32,60.09615385,66d7945b1baad48e845df3ce,,,,,,,,,,,,,,,,,,,,,386.312,386.312,386.314,386.978,1,0,right,0.122,,386.98,386.983,,0,,386.985,386.988,,1,,1,386.988,386.988,386.989,388.481,0,39,39,39,1,0.6,0.4,0.4,0.6,1,0,,,,,,,,,,,,,,,,,,,,,,,,,,,,,,,,,,,,
,,66da1ee997e80ed7628558f3,66daf5b7788896b5b1c3e337,2024-09-06_14h32.38.588,mdp,2024.2.1,Win32,60.09615385,66d7945b1baad48e845df3ce,,,,,,,,,,,,,,,,,,,,,388.482,388.482,388.484,389.27,0,0,left,0.266,,389.275,389.277,,0,,389.278,389.279,,0,,1,389.279,389.279,389.279,390.775,0,40,40,40,1,0.6,0.4,0.4,0.6,1,0,,,,,,,,,,,,,,,,,,,,,,,,,,,,,,,,,,,,
,,66da1ee997e80ed7628558f3,66daf5b7788896b5b1c3e337,2024-09-06_14h32.38.588,mdp,2024.2.1,Win32,60.09615385,66d7945b1baad48e845df3ce,,,,,,,,,,,,,,,,,,,,,390.776,390.776,390.778,391.426,1,1,right,0.119,,391.429,391.433,,1,,391.434,391.439,,0,,0,391.44,391.44,391.442,392.938,0,41,41,41,1,0.6,0.4,0.4,0.6,1,0,,,,,,,,,,,,,,,,,,,,,,,,,,,,,,,,,,,,
,,66da1ee997e80ed7628558f3,66daf5b7788896b5b1c3e337,2024-09-06_14h32.38.588,mdp,2024.2.1,Win32,60.09615385,66d7945b1baad48e845df3ce,,,,,,,,,,,,,,,,,,,,,392.939,392.939,392.941,393.722,0,0,left,0.247,,393.725,393.728,,0,,393.729,393.732,,1,,1,393.732,393.732,393.736,395.223,0,42,42,42,1,0.6,0.4,0.4,0.6,1,0,,,,,,,,,,,,,,,,,,,,,,,,,,,,,,,,,,,,
,,66da1ee997e80ed7628558f3,66daf5b7788896b5b1c3e337,2024-09-06_14h32.38.588,mdp,2024.2.1,Win32,60.09615385,66d7945b1baad48e845df3ce,,,,,,,,,,,,,,,,,,,,,395.224,395.224,395.225,396.322,0,1,left,0.559,,396.324,396.326,,1,,396.328,396.33,,0,,0,396.33,396.33,396.339,397.82,0,43,43,43,1,0.6,0.4,0.4,0.6,1,0,,,,,,,,,,,,,,,,,,,,,,,,,,,,,,,,,,,,
,,66da1ee997e80ed7628558f3,66daf5b7788896b5b1c3e337,2024-09-06_14h32.38.588,mdp,2024.2.1,Win32,60.09615385,66d7945b1baad48e845df3ce,,,,,,,,,,,,,,,,,,,,,397.821,397.821,397.823,398.555,1,1,right,0.191,,398.557,398.56,,1,,398.563,398.57,,1,,0,398.57,398.57,398.572,400.047,0,44,44,44,1,0.6,0.4,0.4,0.6,1,0,,,,,,,,,,,,,,,,,,,,,,,,,,,,,,,,,,,,
,,66da1ee997e80ed7628558f3,66daf5b7788896b5b1c3e337,2024-09-06_14h32.38.588,mdp,2024.2.1,Win32,60.09615385,66d7945b1baad48e845df3ce,,,,,,,,,,,,,,,,,,,,,400.048,400.048,400.049,401.026,0,1,left,0.447,,401.035,401.037,,0,,401.039,401.042,,0,,0,401.042,401.042,401.045,402.553,0,45,45,45,1,0.6,0.4,0.4,0.6,1,0,,,,,,,,,,,,,,,,,,,,,,,,,,,,,,,,,,,,
,,66da1ee997e80ed7628558f3,66daf5b7788896b5b1c3e337,2024-09-06_14h32.38.588,mdp,2024.2.1,Win32,60.09615385,66d7945b1baad48e845df3ce,,,,,,,,,,,,,,,,,,,,,402.554,402.554,402.565,403.967,0,0,left,0.885,,403.969,403.973,,0,,403.974,403.985,,1,,1,403.985,403.985,403.987,405.489,0,46,46,46,1,0.6,0.4,0.4,0.6,1,0,,,,,,,,,,,,,,,,,,,,,,,,,,,,,,,,,,,,
,,66da1ee997e80ed7628558f3,66daf5b7788896b5b1c3e337,2024-09-06_14h32.38.588,mdp,2024.2.1,Win32,60.09615385,66d7945b1baad48e845df3ce,,,,,,,,,,,,,,,,,,,,,405.49,405.49,405.495,406.279,1,1,right,0.266,,406.281,406.284,,1,,406.286,406.287,,1,,0,406.287,406.287,406.291,407.777,0,47,47,47,1,0.6,0.4,0.4,0.6,1,0,,,,,,,,,,,,,,,,,,,,,,,,,,,,,,,,,,,,
,,66da1ee997e80ed7628558f3,66daf5b7788896b5b1c3e337,2024-09-06_14h32.38.588,mdp,2024.2.1,Win32,60.09615385,66d7945b1baad48e845df3ce,,,,,,,,,,,,,,,,,,,,,407.778,407.778,407.78,408.411,1,1,right,0.105,,408.414,408.416,,0,,408.417,408.419,,0,,0,408.42,408.42,408.424,409.924,0,48,48,48,1,0.8,0.2,0.8,0.2,1,0,,,,,,,,,,,,,,,,,,,,,,,,,,,,,,,,,,,,
,,66da1ee997e80ed7628558f3,66daf5b7788896b5b1c3e337,2024-09-06_14h32.38.588,mdp,2024.2.1,Win32,60.09615385,66d7945b1baad48e845df3ce,,,,,,,,,,,,,,,,,,,,,409.925,409.925,409.927,411.093,0,0,left,0.633,,411.095,411.098,,0,,411.1,411.109,,1,,1,411.109,411.109,411.111,412.606,0,49,49,49,1,0.8,0.2,0.8,0.2,1,0,,,,,,,,,,,,,,,,,,,,,,,,,,,,,,,,,,,,
,,66da1ee997e80ed7628558f3,66daf5b7788896b5b1c3e337,2024-09-06_14h32.38.588,mdp,2024.2.1,Win32,60.09615385,66d7945b1baad48e845df3ce,,,,,,,,,,,,,,,,,,,,,,,,,,,,,,,,,,,,,,,,,,,,,,,,,,,,,,,,412.607,471.122,0,0,0,2,1,imgs/dog.png,imgs/cat.png,imgs/lion.png,imgs/elephant.png,imgs/goat.png,,,,,,,,,,,,,,,,,,,,,,,,
,,66da1ee997e80ed7628558f3,66daf5b7788896b5b1c3e337,2024-09-06_14h32.38.588,mdp,2024.2.1,Win32,60.09615385,66d7945b1baad48e845df3ce,,,,,,,,,,,,,,2,seqs/st2seq24.csv,471.144,473.753,space,2.085,,473.762,473.762,473.763,496.632,0,1,left,22.309,,496.639,499.85,0,1,left,499.853,499.858,,0,,0,499.859,499.859,499.863,501.35,0,0,0,0,1,0.6,0.4,0.4,0.6,,,,,,,,,,,,,,,2.67,,0.2,0.8,0.6,0.4,0.2,0.8,0.6,0.4,1,0,,,,,,,,,,,,
,,66da1ee997e80ed7628558f3,66daf5b7788896b5b1c3e337,2024-09-06_14h32.38.588,mdp,2024.2.1,Win32,60.09615385,66d7945b1baad48e845df3ce,,,,,,,,,,,,,,,,,,,,,501.351,501.352,501.352,502.486,1,1,right,0.593,,502.49,505.027,1,0,right,505.03,505.034,,1,,1,505.034,505.035,505.04,506.538,0,1,1,1,1,0.6,0.4,0.4,0.6,,,,,,,,,,,,,,,2.021,,0.2,0.8,0.6,0.4,0.2,0.8,0.6,0.4,1,0,,,,,,,,,,,,
,,66da1ee997e80ed7628558f3,66daf5b7788896b5b1c3e337,2024-09-06_14h32.38.588,mdp,2024.2.1,Win32,60.09615385,66d7945b1baad48e845df3ce,,,,,,,,,,,,,,,,,,,,,506.539,506.539,506.542,507.972,1,0,right,0.922,,507.973,553.787,0,1,left,553.808,553.819,,1,,0,553.819,553.819,553.824,555.304,0,2,2,2,1,0.6,0.4,0.4,0.6,,,,,,,,,,,,,,,45.26,,0.2,0.8,0.6,0.4,0.2,0.8,0.6,0.4,1,0,,,,,,,,,,,,
,,66da1ee997e80ed7628558f3,66daf5b7788896b5b1c3e337,2024-09-06_14h32.38.588,mdp,2024.2.1,Win32,60.09615385,66d7945b1baad48e845df3ce,,,,,,,,,,,,,,,,,,,,,555.305,555.305,555.307,566.023,1,1,right,10.167,,566.025,581.164,0,1,left,581.183,581.194,,1,,0,581.194,581.194,581.198,582.698,0,3,3,3,1,0.6,0.4,0.4,0.6,,,,,,,,,,,,,,,14.595,,0.2,0.8,0.6,0.4,0.2,0.8,0.6,0.4,1,0,,,,,,,,,,,,
,,66da1ee997e80ed7628558f3,66daf5b7788896b5b1c3e337,2024-09-06_14h32.38.588,mdp,2024.2.1,Win32,60.09615385,66d7945b1baad48e845df3ce,,,,,,,,,,,,,,,,,,,,,582.7,582.7,582.706,584.408,1,1,right,1.163,,584.412,586.44,1,0,right,586.443,586.457,,0,,1,586.457,586.457,586.459,587.953,0,4,4,4,1,0.6,0.4,0.4,0.6,,,,,,,,,,,,,,,1.511,,0.2,0.8,0.6,0.4,0.2,0.8,0.6,0.4,1,0,,,,,,,,,,,,
,,66da1ee997e80ed7628558f3,66daf5b7788896b5b1c3e337,2024-09-06_14h32.38.588,mdp,2024.2.1,Win32,60.09615385,66d7945b1baad48e845df3ce,,,,,,,,,,,,,,,,,,,,,587.957,587.957,587.96,591.3,1,1,right,2.8,,591.302,592.847,1,1,right,592.85,592.853,,1,,0,592.853,592.853,592.855,594.349,0,5,5,5,1,0.6,0.4,0.4,0.6,,,,,,,,,,,,,,,1.011,,0.2,0.8,0.6,0.4,0.2,0.8,0.6,0.4,1,0,,,,,,,,,,,,
,,66da1ee997e80ed7628558f3,66daf5b7788896b5b1c3e337,2024-09-06_14h32.38.588,mdp,2024.2.1,Win32,60.09615385,66d7945b1baad48e845df3ce,,,,,,,,,,,,,,,,,,,,,594.35,594.35,594.353,595.238,1,1,right,0.357,,595.241,596.164,1,1,right,596.167,596.169,,0,,0,596.169,596.169,596.172,597.67,0,6,6,6,1,0.6,0.4,0.4,0.6,,,,,,,,,,,,,,,0.408,,0.2,0.8,0.6,0.4,0.2,0.8,0.6,0.4,1,0,,,,,,,,,,,,
,,66da1ee997e80ed7628558f3,66daf5b7788896b5b1c3e337,2024-09-06_14h32.38.588,mdp,2024.2.1,Win32,60.09615385,66d7945b1baad48e845df3ce,,,,,,,,,,,,,,,,,,,,,597.671,597.671,597.675,598.668,0,0,left,0.481,,598.671,599.475,0,1,left,599.477,599.478,,1,,0,599.478,599.478,599.479,600.959,0,7,7,7,1,0.6,0.4,0.4,0.6,,,,,,,,,,,,,,,0.258,,0.2,0.8,0.6,0.4,0.2,0.8,0.6,0.4,1,0,,,,,,,,,,,,
,,66da1ee997e80ed7628558f3,66daf5b7788896b5b1c3e337,2024-09-06_14h32.38.588,mdp,2024.2.1,Win32,60.09615385,66d7945b1baad48e845df3ce,,,,,,,,,,,,,,,,,,,,,600.96,600.96,600.963,603.908,0,0,left,2.422,,603.91,605.157,1,0,right,605.159,605.163,,0,,1,605.163,605.163,605.165,606.665,0,8,8,8,1,0.6,0.4,0.4,0.6,,,,,,,,,,,,,,,0.723,,0.2,0.8,0.6,0.4,0.2,0.8,0.6,0.4,1,0,,,,,,,,,,,,
,,66da1ee997e80ed7628558f3,66daf5b7788896b5b1c3e337,2024-09-06_14h32.38.588,mdp,2024.2.1,Win32,60.09615385,66d7945b1baad48e845df3ce,,,,,,,,,,,,,,,,,,,,,606.669,606.669,606.67,607.763,0,0,left,0.567,,607.767,608.622,1,1,right,608.623,608.624,,0,,0,608.624,608.624,608.626,610.116,0,9,9,9,1,0.6,0.4,0.4,0.6,,,,,,,,,,,,,,,0.342,,0.2,0.8,0.6,0.4,0.2,0.8,0.6,0.4,1,0,,,,,,,,,,,,
,,66da1ee997e80ed7628558f3,66daf5b7788896b5b1c3e337,2024-09-06_14h32.38.588,mdp,2024.2.1,Win32,60.09615385,66d7945b1baad48e845df3ce,,,,,,,,,,,,,,,,,,,,,610.117,610.117,610.117,610.987,0,0,left,0.336,,611.005,611.93,0,1,left,611.931,611.934,,1,,0,611.934,611.935,611.936,613.42,0,10,10,10,1,0.6,0.4,0.4,0.6,,,,,,,,,,,,,,,0.401,,0.2,0.8,0.6,0.4,0.8,0.2,0.8,0.2,1,0,,,,,,,,,,,,
,,66da1ee997e80ed7628558f3,66daf5b7788896b5b1c3e337,2024-09-06_14h32.38.588,mdp,2024.2.1,Win32,60.09615385,66d7945b1baad48e845df3ce,,,,,,,,,,,,,,,,,,,,,613.424,613.424,613.435,614.117,0,0,left,0.155,,614.119,615.079,1,1,right,615.083,615.086,,0,,0,615.087,615.087,615.089,616.58,0,11,11,11,1,0.6,0.4,0.4,0.6,,,,,,,,,,,,,,,0.421,,0.2,0.8,0.6,0.4,0.8,0.2,0.8,0.2,1,0,,,,,,,,,,,,
,,66da1ee997e80ed7628558f3,66daf5b7788896b5b1c3e337,2024-09-06_14h32.38.588,mdp,2024.2.1,Win32,60.09615385,66d7945b1baad48e845df3ce,,,,,,,,,,,,,,,,,,,,,616.581,616.581,616.583,617.461,1,1,right,0.349,,617.464,618.344,0,0,left,618.346,618.352,,1,,1,618.352,618.352,618.359,619.842,0,12,12,12,1,0.6,0.4,0.4,0.6,,,,,,,,,,,,,,,0.341,,0.6,0.4,0.2,0.8,0.8,0.2,0.8,0.2,1,0,,,,,,,,,,,,
,,66da1ee997e80ed7628558f3,66daf5b7788896b5b1c3e337,2024-09-06_14h32.38.588,mdp,2024.2.1,Win32,60.09615385,66d7945b1baad48e845df3ce,,,,,,,,,,,,,,,,,,,,,619.843,619.843,619.845,621.056,1,1,right,0.687,,621.059,622.135,0,0,left,622.137,622.142,,0,,1,622.143,622.143,622.145,623.644,0,13,13,13,1,0.6,0.4,0.4,0.6,,,,,,,,,,,,,,,0.532,,0.6,0.4,0.2,0.8,0.8,0.2,0.8,0.2,1,0,,,,,,,,,,,,
,,66da1ee997e80ed7628558f3,66daf5b7788896b5b1c3e337,2024-09-06_14h32.38.588,mdp,2024.2.1,Win32,60.09615385,66d7945b1baad48e845df3ce,,,,,,,,,,,,,,,,,,,,,623.644,623.644,623.646,624.857,1,0,right,0.664,,624.859,626.137,0,1,left,626.139,626.143,,1,,0,626.143,626.143,626.145,627.637,0,14,14,14,1,0.6,0.4,0.4,0.6,,,,,,,,,,,,,,,0.72,,0.6,0.4,0.2,0.8,0.8,0.2,0.8,0.2,1,0,,,,,,,,,,,,
,,66da1ee997e80ed7628558f3,66daf5b7788896b5b1c3e337,2024-09-06_14h32.38.588,mdp,2024.2.1,Win32,60.09615385,66d7945b1baad48e845df3ce,,,,,,,,,,,,,,,,,,,,,627.638,627.639,627.641,628.726,1,0,right,0.553,,628.728,629.784,1,1,right,629.786,629.787,,1,,0,629.788,629.788,629.788,631.28,0,15,15,15,1,0.6,0.4,0.4,0.6,,,,,,,,,,,,,,,0.51,,0.6,0.4,0.2,0.8,0.8,0.2,0.8,0.2,1,0,,,,,,,,,,,,
,,66da1ee997e80ed7628558f3,66daf5b7788896b5b1c3e337,2024-09-06_14h32.38.588,mdp,2024.2.1,Win32,60.09615385,66d7945b1baad48e845df3ce,,,,,,,,,,,,,,,,,,,,,631.283,631.283,631.285,633.32,0,0,left,1.512,,633.324,634.748,0,1,left,634.75,634.753,,0,,0,634.753,634.753,634.753,636.232,0,16,16,16,1,0.6,0.4,0.4,0.6,,,,,,,,,,,,,,,0.886,,0.6,0.4,0.2,0.8,0.8,0.2,0.8,0.2,1,0,,,,,,,,,,,,
,,66da1ee997e80ed7628558f3,66daf5b7788896b5b1c3e337,2024-09-06_14h32.38.588,mdp,2024.2.1,Win32,60.09615385,66d7945b1baad48e845df3ce,,,,,,,,,,,,,,,,,,,,,636.233,636.233,636.235,636.844,1,1,right,0.072,,636.846,637.649,1,1,right,637.653,637.661,,1,,0,637.661,637.661,637.662,639.161,0,17,17,17,1,0.6,0.4,0.4,0.6,,,,,,,,,,,,,,,0.272,,0.6,0.4,0.2,0.8,0.8,0.2,0.8,0.2,1,0,,,,,,,,,,,,
,,66da1ee997e80ed7628558f3,66daf5b7788896b5b1c3e337,2024-09-06_14h32.38.588,mdp,2024.2.1,Win32,60.09615385,66d7945b1baad48e845df3ce,,,,,,,,,,,,,,,,,,,,,639.162,639.162,639.164,640.379,0,0,left,0.677,,640.38,641.226,1,1,right,641.227,641.23,,1,,0,641.23,641.23,641.233,642.73,0,18,18,18,1,0.6,0.4,0.4,0.6,,,,,,,,,,,,,,,0.281,,0.6,0.4,0.2,0.8,0.8,0.2,0.8,0.2,1,0,,,,,,,,,,,,
,,66da1ee997e80ed7628558f3,66daf5b7788896b5b1c3e337,2024-09-06_14h32.38.588,mdp,2024.2.1,Win32,60.09615385,66d7945b1baad48e845df3ce,,,,,,,,,,,,,,,,,,,,,642.732,642.732,642.741,644.544,0,1,left,1.274,,644.546,645.488,0,0,left,645.49,645.494,,0,,1,645.494,645.494,645.496,646.974,0,19,19,19,1,0.6,0.4,0.4,0.6,,,,,,,,,,,,,,,0.4,,0.6,0.4,0.2,0.8,0.8,0.2,0.8,0.2,1,0,,,,,,,,,,,,
,,66da1ee997e80ed7628558f3,66daf5b7788896b5b1c3e337,2024-09-06_14h32.38.588,mdp,2024.2.1,Win32,60.09615385,66d7945b1baad48e845df3ce,,,,,,,,,,,,,,,,,,,,,646.977,646.978,646.985,647.935,0,0,left,0.415,,647.941,648.8,0,0,left,648.805,648.81,,0,,1,648.81,648.81,648.818,650.314,0,20,20,20,1,0.6,0.4,0.4,0.6,,,,,,,,,,,,,,,0.319,,0.6,0.4,0.2,0.8,0.8,0.2,0.8,0.2,1,0,,,,,,,,,,,,
,,66da1ee997e80ed7628558f3,66daf5b7788896b5b1c3e337,2024-09-06_14h32.38.588,mdp,2024.2.1,Win32,60.09615385,66d7945b1baad48e845df3ce,,,,,,,,,,,,,,,,,,,,,650.316,650.316,650.318,650.954,0,0,left,0.102,,650.955,651.754,0,0,left,651.756,651.768,,1,,1,651.768,651.768,651.77,653.256,0,21,21,21,1,0.6,0.4,0.4,0.6,,,,,,,,,,,,,,,0.268,,0.6,0.4,0.2,0.8,0.8,0.2,0.8,0.2,1,0,,,,,,,,,,,,
,,66da1ee997e80ed7628558f3,66daf5b7788896b5b1c3e337,2024-09-06_14h32.38.588,mdp,2024.2.1,Win32,60.09615385,66d7945b1baad48e845df3ce,,,,,,,,,,,,,,,,,,,,,653.262,653.262,653.263,653.903,0,1,left,0.072,,653.905,654.631,0,1,left,654.635,654.639,,1,,0,654.639,654.639,654.648,656.144,0,22,22,22,1,0.6,0.4,0.4,0.6,,,,,,,,,,,,,,,0.169,,0.6,0.4,0.2,0.8,0.2,0.8,0.6,0.4,1,0,,,,,,,,,,,,
,,66da1ee997e80ed7628558f3,66daf5b7788896b5b1c3e337,2024-09-06_14h32.38.588,mdp,2024.2.1,Win32,60.09615385,66d7945b1baad48e845df3ce,,,,,,,,,,,,,,,,,,,,,656.145,656.145,656.148,657.117,1,0,right,0.428,,657.119,657.91,1,1,right,657.912,657.916,,0,,0,657.916,657.916,657.919,659.408,0,23,23,23,1,0.6,0.4,0.4,0.6,,,,,,,,,,,,,,,0.25,,0.6,0.4,0.2,0.8,0.2,0.8,0.6,0.4,1,0,,,,,,,,,,,,
,,66da1ee997e80ed7628558f3,66daf5b7788896b5b1c3e337,2024-09-06_14h32.38.588,mdp,2024.2.1,Win32,60.09615385,66d7945b1baad48e845df3ce,,,,,,,,,,,,,,,,,,,,,659.409,659.41,659.412,660.258,0,1,left,0.303,,660.261,661.212,1,1,right,661.214,661.224,,0,,0,661.224,661.224,661.226,662.746,0,24,24,24,1,0.6,0.4,0.4,0.6,,,,,,,,,,,,,,,0.406,,0.6,0.4,0.2,0.8,0.2,0.8,0.6,0.4,1,0,,,,,,,,,,,,
,,66da1ee997e80ed7628558f3,66daf5b7788896b5b1c3e337,2024-09-06_14h32.38.588,mdp,2024.2.1,Win32,60.09615385,66d7945b1baad48e845df3ce,,,,,,,,,,,,,,,,,,,,,662.747,662.747,662.75,663.76,1,1,right,0.486,,663.762,665.572,0,0,left,665.575,665.578,,1,,1,665.578,665.579,665.586,667.066,0,25,25,25,1,0.6,0.4,0.4,0.6,,,,,,,,,,,,,,,1.287,,0.6,0.4,0.2,0.8,0.2,0.8,0.6,0.4,1,0,,,,,,,,,,,,
,,66da1ee997e80ed7628558f3,66daf5b7788896b5b1c3e337,2024-09-06_14h32.38.588,mdp,2024.2.1,Win32,60.09615385,66d7945b1baad48e845df3ce,,,,,,,,,,,,,,,,,,,,,667.067,667.067,667.069,668.922,1,1,right,1.309,,668.923,669.809,0,1,left,669.817,669.819,,1,,0,669.819,669.819,669.82,671.306,0,26,26,26,1,0.6,0.4,0.4,0.6,,,,,,,,,,,,,,,0.357,,0.6,0.4,0.2,0.8,0.2,0.8,0.6,0.4,1,0,,,,,,,,,,,,
,,66da1ee997e80ed7628558f3,66daf5b7788896b5b1c3e337,2024-09-06_14h32.38.588,mdp,2024.2.1,Win32,60.09615385,66d7945b1baad48e845df3ce,,,,,,,,,,,,,,,,,,,,,671.307,671.307,671.314,672.757,0,1,left,0.936,,672.762,673.647,1,0,right,673.65,673.653,,0,,1,673.654,673.654,673.659,675.163,0,27,27,27,1,0.6,0.4,0.4,0.6,,,,,,,,,,,,,,,0.353,,0.6,0.4,0.2,0.8,0.2,0.8,0.6,0.4,1,0,,,,,,,,,,,,
,,66da1ee997e80ed7628558f3,66daf5b7788896b5b1c3e337,2024-09-06_14h32.38.588,mdp,2024.2.1,Win32,60.09615385,66d7945b1baad48e845df3ce,,,,,,,,,,,,,,,,,,,,,675.164,675.164,675.166,677.527,0,1,left,1.817,,677.529,678.657,1,0,right,678.659,678.66,,0,,1,678.661,678.661,678.663,680.161,0,28,28,28,1,0.6,0.4,0.4,0.6,,,,,,,,,,,,,,,0.594,,0.6,0.4,0.2,0.8,0.2,0.8,0.6,0.4,1,0,,,,,,,,,,,,
,,66da1ee997e80ed7628558f3,66daf5b7788896b5b1c3e337,2024-09-06_14h32.38.588,mdp,2024.2.1,Win32,60.09615385,66d7945b1baad48e845df3ce,,,,,,,,,,,,,,,,,,,,,680.162,680.162,680.164,682.025,0,1,left,1.317,,682.047,683.557,0,0,left,683.559,683.565,,1,,1,683.566,683.566,683.573,685.078,0,29,29,29,1,0.6,0.4,0.4,0.6,,,,,,,,,,,,,,,1.01,,0.6,0.4,0.2,0.8,0.2,0.8,0.6,0.4,1,0,,,,,,,,,,,,
,,66da1ee997e80ed7628558f3,66daf5b7788896b5b1c3e337,2024-09-06_14h32.38.588,mdp,2024.2.1,Win32,60.09615385,66d7945b1baad48e845df3ce,,,,,,,,,,,,,,,,,,,,,685.079,685.079,685.083,686.442,0,1,left,0.828,,686.443,688.14,0,1,left,688.149,688.155,,1,,0,688.156,688.156,688.158,689.636,0,30,30,30,1,0.6,0.4,0.4,0.6,,,,,,,,,,,,,,,1.179,,0.6,0.4,0.2,0.8,0.2,0.8,0.6,0.4,1,0,,,,,,,,,,,,
,,66da1ee997e80ed7628558f3,66daf5b7788896b5b1c3e337,2024-09-06_14h32.38.588,mdp,2024.2.1,Win32,60.09615385,66d7945b1baad48e845df3ce,,,,,,,,,,,,,,,,,,,,,689.637,689.637,689.64,690.522,0,0,left,0.368,,690.523,691.92,1,1,right,691.921,691.927,,1,,0,691.927,691.927,691.929,693.429,0,31,31,31,1,0.6,0.4,0.4,0.6,,,,,,,,,,,,,,,0.842,,0.6,0.4,0.2,0.8,0.2,0.8,0.6,0.4,1,0,,,,,,,,,,,,
,,66da1ee997e80ed7628558f3,66daf5b7788896b5b1c3e337,2024-09-06_14h32.38.588,mdp,2024.2.1,Win32,60.09615385,66d7945b1baad48e845df3ce,,,,,,,,,,,,,,,,,,,,,693.431,693.431,693.434,693.949,1,0,right,0.001,,693.951,695.144,0,0,left,695.146,695.148,,0,,1,695.149,695.149,695.151,696.658,0,32,32,32,1,0.6,0.4,0.4,0.6,,,,,,,,,,,,,,,0.676,,0.6,0.4,0.2,0.8,0.2,0.8,0.6,0.4,1,0,,,,,,,,,,,,
,,66da1ee997e80ed7628558f3,66daf5b7788896b5b1c3e337,2024-09-06_14h32.38.588,mdp,2024.2.1,Win32,60.09615385,66d7945b1baad48e845df3ce,,,,,,,,,,,,,,,,,,,,,696.658,696.658,696.659,697.696,1,0,right,0.51,,697.698,699.293,0,1,left,699.295,699.298,,1,,0,699.298,699.298,699.3,700.776,0,33,33,33,1,0.6,0.4,0.4,0.6,,,,,,,,,,,,,,,1.049,0.001,0.6,0.4,0.2,0.8,0.2,0.8,0.6,0.4,1,0,,,,,,,,,,,,
,,66da1ee997e80ed7628558f3,66daf5b7788896b5b1c3e337,2024-09-06_14h32.38.588,mdp,2024.2.1,Win32,60.09615385,66d7945b1baad48e845df3ce,,,,,,,,,,,,,,,,,,,,,700.777,700.777,700.778,701.771,1,1,right,0.47,,701.773,703.503,0,0,left,703.505,703.508,,1,,1,703.508,703.508,703.51,704.991,0,34,34,34,1,0.6,0.4,0.4,0.6,,,,,,,,,,,,,,,1.195,,0.6,0.4,0.2,0.8,0.2,0.8,0.6,0.4,1,0,,,,,,,,,,,,
,,66da1ee997e80ed7628558f3,66daf5b7788896b5b1c3e337,2024-09-06_14h32.38.588,mdp,2024.2.1,Win32,60.09615385,66d7945b1baad48e845df3ce,,,,,,,,,,,,,,,,,,,,,704.992,704.992,704.993,706.548,1,0,right,1.009,,706.55,707.797,1,1,right,707.799,707.799,,1,,0,707.799,707.799,707.8,709.292,0,35,35,35,1,0.6,0.4,0.4,0.6,,,,,,,,,,,,,,,0.7,,0.6,0.4,0.2,0.8,0.8,0.2,0.2,0.8,1,0,,,,,,,,,,,,
,,66da1ee997e80ed7628558f3,66daf5b7788896b5b1c3e337,2024-09-06_14h32.38.588,mdp,2024.2.1,Win32,60.09615385,66d7945b1baad48e845df3ce,,,,,,,,,,,,,,,,,,,,,709.295,709.295,709.298,710.178,1,1,right,0.332,,710.183,711.698,0,0,left,711.718,711.728,,0,,1,711.728,711.728,711.73,713.217,0,36,36,36,1,0.6,0.4,0.4,0.6,,,,,,,,,,,,,,,0.988,,0.6,0.4,0.2,0.8,0.8,0.2,0.2,0.8,1,0,,,,,,,,,,,,
,,66da1ee997e80ed7628558f3,66daf5b7788896b5b1c3e337,2024-09-06_14h32.38.588,mdp,2024.2.1,Win32,60.09615385,66d7945b1baad48e845df3ce,,,,,,,,,,,,,,,,,,,,,713.218,713.218,713.22,716.709,1,0,right,2.93,,716.713,717.626,0,0,left,717.629,717.633,,0,,1,717.633,717.633,717.64,719.121,0,37,37,37,1,0.6,0.4,0.4,0.6,,,,,,,,,,,,,,,0.356,,0.6,0.4,0.2,0.8,0.8,0.2,0.2,0.8,1,0,,,,,,,,,,,,
,,66da1ee997e80ed7628558f3,66daf5b7788896b5b1c3e337,2024-09-06_14h32.38.588,mdp,2024.2.1,Win32,60.09615385,66d7945b1baad48e845df3ce,,,,,,,,,,,,,,,,,,,,,719.122,719.122,719.124,720.188,1,1,right,0.542,,720.192,721.137,1,0,right,721.139,721.141,,0,,1,721.141,721.142,721.143,722.635,0,38,38,38,1,0.6,0.4,0.4,0.6,,,,,,,,,,,,,,,0.402,,0.6,0.4,0.2,0.8,0.4,0.6,0.8,0.2,1,0,,,,,,,,,,,,
,,66da1ee997e80ed7628558f3,66daf5b7788896b5b1c3e337,2024-09-06_14h32.38.588,mdp,2024.2.1,Win32,60.09615385,66d7945b1baad48e845df3ce,,,,,,,,,,,,,,,,,,,,,722.636,722.636,722.638,724.053,1,1,right,0.89,,724.056,725.887,0,1,left,725.889,725.892,,1,,0,725.892,725.892,725.9,727.369,0,39,39,39,1,0.6,0.4,0.4,0.6,,,,,,,,,,,,,,,1.289,,0.6,0.4,0.2,0.8,0.4,0.6,0.8,0.2,1,0,,,,,,,,,,,,
,,66da1ee997e80ed7628558f3,66daf5b7788896b5b1c3e337,2024-09-06_14h32.38.588,mdp,2024.2.1,Win32,60.09615385,66d7945b1baad48e845df3ce,,,,,,,,,,,,,,,,,,,,,727.37,727.37,727.374,728.337,1,0,right,0.423,,728.339,730.146,0,0,left,730.15,730.153,,0,,1,730.154,730.154,730.156,731.633,0,40,40,40,1,0.6,0.4,0.4,0.6,,,,,,,,,,,,,,,1.274,,0.6,0.4,0.2,0.8,0.4,0.6,0.8,0.2,1,0,,,,,,,,,,,,
,,66da1ee997e80ed7628558f3,66daf5b7788896b5b1c3e337,2024-09-06_14h32.38.588,mdp,2024.2.1,Win32,60.09615385,66d7945b1baad48e845df3ce,,,,,,,,,,,,,,,,,,,,,731.634,731.634,731.636,732.627,1,1,right,0.453,,732.629,734.099,0,1,left,734.102,734.112,,0,,0,734.112,734.112,734.114,735.601,0,41,41,41,1,0.6,0.4,0.4,0.6,,,,,,,,,,,,,,,0.924,,0.2,0.8,0.8,0.2,0.4,0.6,0.8,0.2,1,0,,,,,,,,,,,,
,,66da1ee997e80ed7628558f3,66daf5b7788896b5b1c3e337,2024-09-06_14h32.38.588,mdp,2024.2.1,Win32,60.09615385,66d7945b1baad48e845df3ce,,,,,,,,,,,,,,,,,,,,,735.602,735.602,735.607,736.557,1,1,right,0.428,,736.559,738.456,0,0,left,738.459,738.462,,0,,1,738.462,738.462,738.465,739.955,0,42,42,42,1,0.6,0.4,0.4,0.6,,,,,,,,,,,,,,,1.371,,0.2,0.8,0.8,0.2,0.4,0.6,0.8,0.2,1,0,,,,,,,,,,,,
,,66da1ee997e80ed7628558f3,66daf5b7788896b5b1c3e337,2024-09-06_14h32.38.588,mdp,2024.2.1,Win32,60.09615385,66d7945b1baad48e845df3ce,,,,,,,,,,,,,,,,,,,,,739.956,739.956,739.957,740.992,1,0,right,0.511,,740.993,743.557,1,0,right,743.561,743.573,,0,,1,743.573,743.573,743.575,745.055,0,43,43,43,1,0.6,0.4,0.4,0.6,,,,,,,,,,,,,,,2.025,,0.2,0.8,0.8,0.2,0.4,0.6,0.8,0.2,1,0,,,,,,,,,,,,
,,66da1ee997e80ed7628558f3,66daf5b7788896b5b1c3e337,2024-09-06_14h32.38.588,mdp,2024.2.1,Win32,60.09615385,66d7945b1baad48e845df3ce,,,,,,,,,,,,,,,,,,,,,745.056,745.056,745.058,747.24,1,1,right,1.628,,747.265,748.873,0,0,left,748.882,748.887,,0,,1,748.887,748.887,748.889,750.395,0,44,44,44,1,0.6,0.4,0.4,0.6,,,,,,,,,,,,,,,1.085,,0.2,0.8,0.8,0.2,0.4,0.6,0.8,0.2,1,0,,,,,,,,,,,,
,,66da1ee997e80ed7628558f3,66daf5b7788896b5b1c3e337,2024-09-06_14h32.38.588,mdp,2024.2.1,Win32,60.09615385,66d7945b1baad48e845df3ce,,,,,,,,,,,,,,,,,,,,,750.398,750.398,750.401,752.576,1,1,right,1.613,,752.577,754.075,1,0,right,754.078,754.083,,0,,1,754.083,754.083,754.086,755.561,0,45,45,45,1,0.6,0.4,0.4,0.6,,,,,,,,,,,,,,,0.946,,0.2,0.8,0.8,0.2,0.4,0.6,0.8,0.2,1,0,,,,,,,,,,,,
,,66da1ee997e80ed7628558f3,66daf5b7788896b5b1c3e337,2024-09-06_14h32.38.588,mdp,2024.2.1,Win32,60.09615385,66d7945b1baad48e845df3ce,,,,,,,,,,,,,,,,,,,,,755.562,755.562,755.565,758.509,1,1,right,2.402,,758.512,760.252,0,0,left,760.253,760.255,,1,,1,760.255,760.255,760.257,761.78,0,46,46,46,1,0.6,0.4,0.4,0.6,,,,,,,,,,,,,,,1.221,,0.2,0.8,0.8,0.2,0.4,0.6,0.8,0.2,1,0,,,,,,,,,,,,
,,66da1ee997e80ed7628558f3,66daf5b7788896b5b1c3e337,2024-09-06_14h32.38.588,mdp,2024.2.1,Win32,60.09615385,66d7945b1baad48e845df3ce,,,,,,,,,,,,,,,,,,,,,761.782,761.782,761.784,762.789,1,1,right,0.484,,762.79,765.523,0,0,left,765.525,765.53,,1,,1,765.53,765.53,765.532,767.019,0,47,47,47,1,0.6,0.4,0.4,0.6,,,,,,,,,,,,,,,2.189,,0.2,0.8,0.8,0.2,0.4,0.6,0.8,0.2,1,0,,,,,,,,,,,,
,,66da1ee997e80ed7628558f3,66daf5b7788896b5b1c3e337,2024-09-06_14h32.38.588,mdp,2024.2.1,Win32,60.09615385,66d7945b1baad48e845df3ce,,,,,,,,,,,,,,,,,,,,,767.02,767.02,767.022,768.696,1,0,right,1.138,,768.699,771.575,0,1,left,771.576,771.578,,1,,0,771.578,771.578,771.579,773.069,0,48,48,48,1,0.6,0.4,0.4,0.6,,,,,,,,,,,,,,,2.332,,0.2,0.8,0.8,0.2,0.4,0.6,0.8,0.2,1,0,,,,,,,,,,,,
,,66da1ee997e80ed7628558f3,66daf5b7788896b5b1c3e337,2024-09-06_14h32.38.588,mdp,2024.2.1,Win32,60.09615385,66d7945b1baad48e845df3ce,,,,,,,,,,,,,,,,,,,,,773.073,773.074,773.075,774.597,1,0,right,0.995,,774.598,777.908,0,1,left,777.927,777.937,,1,,0,777.937,777.938,777.94,779.42,0,49,49,49,1,0.6,0.4,0.4,0.6,,,,,,,,,,,,,,,2.775,,0.2,0.8,0.8,0.2,0.4,0.6,0.8,0.2,1,0,,,,,,,,,,,,
,,66da1ee997e80ed7628558f3,66daf5b7788896b5b1c3e337,2024-09-06_14h32.38.588,mdp,2024.2.1,Win32,60.09615385,66d7945b1baad48e845df3ce,,,,,,,,,,,,,,,,,,,,,,,,,,,,,,,,,,,,,,,,,,,,,,,,,,,,,,,,779.421,837.959,0,1,1,4,1,imgs/kangaroo.png,imgs/lion.png,imgs/giraffe.png,imgs/pig.png,imgs/rabbit.png,,,,,,,,,,,,,,,,,,,,,,,,
,,66da1ee997e80ed7628558f3,66daf5b7788896b5b1c3e337,2024-09-06_14h32.38.588,mdp,2024.2.1,Win32,60.09615385,66d7945b1baad48e845df3ce,,,,,,,,,,,,,,3,seqs/st3seq22.csv,837.979,914.41,space,75.906,0.002,914.426,914.426,914.433,920.6,0,1,left,5.625,,920.603,922.114,1,0,right,922.115,924.236,0,0,left,1,924.236,924.236,924.238,925.723,0,0,0,0,1,0.6,0.4,0.4,0.6,,,,,,,,,,,,,,,0.959,,0.8,0.2,0.6,0.4,0.2,0.8,0.8,0.2,,,1.579,,0.4,0.6,0.2,0.8,0.8,0.2,0.2,0.8,1,0
,,66da1ee997e80ed7628558f3,66daf5b7788896b5b1c3e337,2024-09-06_14h32.38.588,mdp,2024.2.1,Win32,60.09615385,66d7945b1baad48e845df3ce,,,,,,,,,,,,,,,,,,,,,925.724,925.724,925.725,927.164,0,0,left,0.889,,927.166,928.198,0,1,left,928.2,929.181,1,0,right,1,929.182,929.182,929.183,930.693,0,1,1,1,1,0.6,0.4,0.4,0.6,,,,,,,,,,,,,,,0.491,,0.8,0.2,0.6,0.4,0.2,0.8,0.8,0.2,,,0.412,,0.4,0.6,0.2,0.8,0.8,0.2,0.2,0.8,1,0
,,66da1ee997e80ed7628558f3,66daf5b7788896b5b1c3e337,2024-09-06_14h32.38.588,mdp,2024.2.1,Win32,60.09615385,66d7945b1baad48e845df3ce,,,,,,,,,,,,,,,,,,,,,930.694,930.694,930.695,931.96,0,1,left,0.692,,931.962,933.554,1,1,right,933.56,934.468,1,1,right,0,934.469,934.469,934.47,935.946,0,2,2,2,1,0.6,0.4,0.4,0.6,,,,,,,,,,,,,,,1.019,,0.8,0.2,0.6,0.4,0.2,0.8,0.8,0.2,,,0.375,,0.4,0.6,0.2,0.8,0.8,0.2,0.2,0.8,1,0
,,66da1ee997e80ed7628558f3,66daf5b7788896b5b1c3e337,2024-09-06_14h32.38.588,mdp,2024.2.1,Win32,60.09615385,66d7945b1baad48e845df3ce,,,,,,,,,,,,,,,,,,,,,935.947,935.947,935.949,937.664,0,0,left,1.17,,937.666,938.679,1,0,right,938.681,939.714,0,1,left,0,939.714,939.715,939.716,941.201,0,3,3,3,1,0.6,0.4,0.4,0.6,,,,,,,,,,,,,,,0.44,,0.8,0.2,0.6,0.4,0.2,0.8,0.8,0.2,,,0.485,,0.6,0.4,0.6,0.4,0.8,0.2,0.2,0.8,1,0
,,66da1ee997e80ed7628558f3,66daf5b7788896b5b1c3e337,2024-09-06_14h32.38.588,mdp,2024.2.1,Win32,60.09615385,66d7945b1baad48e845df3ce,,,,,,,,,,,,,,,,,,,,,941.202,941.202,941.203,942.12,1,1,right,0.346,,942.122,943,0,1,left,943.002,943.847,0,1,left,0,943.847,943.847,943.848,945.334,0,4,4,4,1,0.6,0.4,0.4,0.6,,,,,,,,,,,,,,,0.34,,0.8,0.2,0.6,0.4,0.2,0.8,0.8,0.2,,,0.31,,0.6,0.4,0.6,0.4,0.8,0.2,0.2,0.8,1,0
,,66da1ee997e80ed7628558f3,66daf5b7788896b5b1c3e337,2024-09-06_14h32.38.588,mdp,2024.2.1,Win32,60.09615385,66d7945b1baad48e845df3ce,,,,,,,,,,,,,,,,,,,,,945.334,945.334,945.335,946.292,1,1,right,0.407,,946.293,947.878,0,1,left,947.879,949.148,1,1,right,0,949.148,949.148,949.15,950.647,0,5,5,5,1,0.6,0.4,0.4,0.6,,,,,,,,,,,,,,,1.044,,0.8,0.2,0.6,0.4,0.2,0.8,0.8,0.2,,,0.733,,0.6,0.4,0.6,0.4,0.8,0.2,0.2,0.8,1,0
,,66da1ee997e80ed7628558f3,66daf5b7788896b5b1c3e337,2024-09-06_14h32.38.588,mdp,2024.2.1,Win32,60.09615385,66d7945b1baad48e845df3ce,,,,,,,,,,,,,,,,,,,,,950.647,950.648,950.653,952.55,1,1,right,1.34,,952.552,953.583,1,0,right,953.584,955.308,1,1,right,0,955.308,955.308,955.309,956.814,0,6,6,6,1,0.6,0.4,0.4,0.6,,,,,,,,,,,,,,,0.479,,0.8,0.2,0.6,0.4,0.2,0.8,0.8,0.2,,,1.2,,0.6,0.4,0.6,0.4,0.8,0.2,0.2,0.8,1,0
,,66da1ee997e80ed7628558f3,66daf5b7788896b5b1c3e337,2024-09-06_14h32.38.588,mdp,2024.2.1,Win32,60.09615385,66d7945b1baad48e845df3ce,,,,,,,,,,,,,,,,,,,,,956.815,956.815,956.816,957.812,1,0,right,0.452,,957.814,958.762,0,0,left,958.764,959.602,0,0,left,1,959.602,959.602,959.603,961.1,0,7,7,7,1,0.6,0.4,0.4,0.6,,,,,,,,,,,,,,,0.387,,0.8,0.2,0.6,0.4,0.2,0.8,0.8,0.2,,,0.285,,0.6,0.4,0.6,0.4,0.8,0.2,0.2,0.8,1,0
,,66da1ee997e80ed7628558f3,66daf5b7788896b5b1c3e337,2024-09-06_14h32.38.588,mdp,2024.2.1,Win32,60.09615385,66d7945b1baad48e845df3ce,,,,,,,,,,,,,,,,,,,,,961.101,961.101,961.102,962.149,1,1,right,0.493,,962.15,964.148,1,0,right,964.149,965.176,0,0,left,1,965.176,965.176,965.178,966.668,0,8,8,8,1,0.6,0.4,0.4,0.6,,,,,,,,,,,,,,,1.395,,0.8,0.2,0.6,0.4,0.2,0.8,0.8,0.2,,,0.476,,0.6,0.4,0.6,0.4,0.8,0.2,0.2,0.8,1,0
,,66da1ee997e80ed7628558f3,66daf5b7788896b5b1c3e337,2024-09-06_14h32.38.588,mdp,2024.2.1,Win32,60.09615385,66d7945b1baad48e845df3ce,,,,,,,,,,,,,,,,,,,,,966.675,966.675,966.68,969.003,1,1,right,1.772,,969.007,970.154,1,0,right,970.155,971.809,0,0,left,1,971.809,971.809,971.811,973.317,0,9,9,9,1,0.6,0.4,0.4,0.6,,,,,,,,,,,,,,,0.618,,0.8,0.2,0.6,0.4,0.2,0.8,0.8,0.2,,,1.109,,0.6,0.4,0.6,0.4,0.8,0.2,0.2,0.8,1,0
,,66da1ee997e80ed7628558f3,66daf5b7788896b5b1c3e337,2024-09-06_14h32.38.588,mdp,2024.2.1,Win32,60.09615385,66d7945b1baad48e845df3ce,,,,,,,,,,,,,,,,,,,,,973.317,973.318,973.319,974.476,1,1,right,0.62,,974.477,975.715,1,0,right,975.716,977.029,0,1,left,0,977.029,977.029,977.031,978.532,0,10,10,10,1,0.6,0.4,0.4,0.6,,,,,,,,,,,,,,,0.684,,0.8,0.2,0.6,0.4,0.2,0.8,0.8,0.2,,,0.755,,0.6,0.4,0.6,0.4,0.8,0.2,0.2,0.8,1,0
,,66da1ee997e80ed7628558f3,66daf5b7788896b5b1c3e337,2024-09-06_14h32.38.588,mdp,2024.2.1,Win32,60.09615385,66d7945b1baad48e845df3ce,,,,,,,,,,,,,,,,,,,,,978.533,978.533,978.534,980.004,0,1,left,0.903,,980.006,980.911,1,1,right,980.913,981.925,1,1,right,0,981.926,981.926,981.927,983.414,0,11,11,11,1,0.6,0.4,0.4,0.6,,,,,,,,,,,,,,,0.335,,0.8,0.2,0.6,0.4,0.2,0.8,0.8,0.2,,,0.447,,0.6,0.4,0.6,0.4,0.8,0.2,0.2,0.8,1,0
,,66da1ee997e80ed7628558f3,66daf5b7788896b5b1c3e337,2024-09-06_14h32.38.588,mdp,2024.2.1,Win32,60.09615385,66d7945b1baad48e845df3ce,,,,,,,,,,,,,,,,,,,,,983.415,983.415,983.416,984.51,0,0,left,0.541,,984.511,986.89,0,0,left,986.891,987.823,1,1,right,0,987.823,987.823,987.824,989.347,0,12,12,12,1,0.4,0.6,0.2,0.8,,,,,,,,,,,,,,,1.817,,0.8,0.2,0.6,0.4,0.2,0.8,0.8,0.2,,,0.377,,0.6,0.4,0.6,0.4,0.8,0.2,0.2,0.8,1,0
,,66da1ee997e80ed7628558f3,66daf5b7788896b5b1c3e337,2024-09-06_14h32.38.588,mdp,2024.2.1,Win32,60.09615385,66d7945b1baad48e845df3ce,,,,,,,,,,,,,,,,,,,,,989.351,989.351,989.353,990.295,1,0,right,0.393,,990.296,992.225,1,0,right,992.226,993.455,0,0,left,1,993.455,993.455,993.456,994.965,0,13,13,13,1,0.4,0.6,0.2,0.8,,,,,,,,,,,,,,,1.378,,0.8,0.2,0.6,0.4,0.2,0.8,0.8,0.2,,,0.675,,0.6,0.4,0.6,0.4,0.8,0.2,0.2,0.8,1,0
,,66da1ee997e80ed7628558f3,66daf5b7788896b5b1c3e337,2024-09-06_14h32.38.588,mdp,2024.2.1,Win32,60.09615385,66d7945b1baad48e845df3ce,,,,,,,,,,,,,,,,,,,,,994.966,994.966,994.967,997.26,0,1,left,1.746,,997.262,998.993,1,1,right,998.996,1000.165,0,0,left,1,1000.165,1000.165,1000.167,1001.662,0,14,14,14,1,0.4,0.6,0.2,0.8,,,,,,,,,,,,,,,1.179,,0.8,0.2,0.6,0.4,0.4,0.6,0.2,0.8,,,0.61,,0.6,0.4,0.6,0.4,0.8,0.2,0.2,0.8,1,0
,,66da1ee997e80ed7628558f3,66daf5b7788896b5b1c3e337,2024-09-06_14h32.38.588,mdp,2024.2.1,Win32,60.09615385,66d7945b1baad48e845df3ce,,,,,,,,,,,,,,,,,,,,,1001.663,1001.663,1001.664,1006.422,0,0,left,4.211,,1006.429,1007.819,0,0,left,1007.821,1008.706,1,0,right,1,1008.707,1008.707,1008.708,1010.209,0,15,15,15,1,0.4,0.6,0.2,0.8,,,,,,,,,,,,,,,0.829,,0.8,0.2,0.6,0.4,0.4,0.6,0.2,0.8,,,0.329,,0.6,0.4,0.6,0.4,0.8,0.2,0.2,0.8,1,0
,,66da1ee997e80ed7628558f3,66daf5b7788896b5b1c3e337,2024-09-06_14h32.38.588,mdp,2024.2.1,Win32,60.09615385,66d7945b1baad48e845df3ce,,,,,,,,,,,,,,,,,,,,,1010.21,1010.21,1010.212,1011.424,0,1,left,0.676,,1011.426,1012.465,1,1,right,1012.467,1013.372,1,1,right,0,1013.373,1013.373,1013.374,1014.866,0,16,16,16,1,0.4,0.6,0.2,0.8,,,,,,,,,,,,,,,0.465,,0.8,0.2,0.6,0.4,0.4,0.6,0.2,0.8,,,0.325,,0.6,0.4,0.6,0.4,0.8,0.2,0.2,0.8,1,0
,,66da1ee997e80ed7628558f3,66daf5b7788896b5b1c3e337,2024-09-06_14h32.38.588,mdp,2024.2.1,Win32,60.09615385,66d7945b1baad48e845df3ce,,,,,,,,,,,,,,,,,,,,,1014.867,1014.867,1014.868,1016.028,1,0,right,0.62,,1016.03,1017.414,0,0,left,1017.415,1018.21,0,0,left,1,1018.21,1018.21,1018.212,1019.702,0,17,17,17,1,0.2,0.8,0.8,0.2,,,,,,,,,,,,,,,0.836,,0.8,0.2,0.6,0.4,0.4,0.6,0.2,0.8,,,0.234,,0.6,0.4,0.6,0.4,0.8,0.2,0.2,0.8,1,0
,,66da1ee997e80ed7628558f3,66daf5b7788896b5b1c3e337,2024-09-06_14h32.38.588,mdp,2024.2.1,Win32,60.09615385,66d7945b1baad48e845df3ce,,,,,,,,,,,,,,,,,,,,,1019.703,1019.703,1019.704,1021.134,1,0,right,0.87,,1021.135,1022.343,0,0,left,1022.344,1023.24,0,0,left,1,1023.24,1023.24,1023.241,1024.727,0,18,18,18,1,0.2,0.8,0.8,0.2,,,,,,,,,,,,,,,0.664,,0.8,0.2,0.6,0.4,0.4,0.6,0.2,0.8,,,0.335,,0.6,0.4,0.6,0.4,0.8,0.2,0.2,0.8,1,0
,,66da1ee997e80ed7628558f3,66daf5b7788896b5b1c3e337,2024-09-06_14h32.38.588,mdp,2024.2.1,Win32,60.09615385,66d7945b1baad48e845df3ce,,,,,,,,,,,,,,,,,,,,,1024.728,1024.728,1024.729,1025.723,1,1,right,0.437,,1025.724,1026.653,0,1,left,1026.655,1028.224,1,1,right,0,1028.224,1028.224,1028.225,1029.726,0,19,19,19,1,0.2,0.8,0.8,0.2,,,,,,,,,,,,,,,0.371,,0.8,0.2,0.6,0.4,0.4,0.6,0.2,0.8,,,1.02,,0.8,0.2,0.8,0.2,0.8,0.2,0.2,0.8,1,0
,,66da1ee997e80ed7628558f3,66daf5b7788896b5b1c3e337,2024-09-06_14h32.38.588,mdp,2024.2.1,Win32,60.09615385,66d7945b1baad48e845df3ce,,,,,,,,,,,,,,,,,,,,,1029.727,1029.727,1029.728,1030.857,1,0,right,0.581,,1030.859,1031.866,0,0,left,1031.868,1032.982,0,0,left,1,1032.982,1032.982,1032.983,1034.439,0,20,20,20,1,0.2,0.8,0.8,0.2,,,,,,,,,,,,,,,0.476,,0.8,0.2,0.6,0.4,0.4,0.6,0.2,0.8,,,0.551,,0.8,0.2,0.8,0.2,0.8,0.2,0.2,0.8,1,0
,,66da1ee997e80ed7628558f3,66daf5b7788896b5b1c3e337,2024-09-06_14h32.38.588,mdp,2024.2.1,Win32,60.09615385,66d7945b1baad48e845df3ce,,,,,,,,,,,,,,,,,,,,,1034.439,1034.439,1034.44,1035.439,1,0,right,0.448,,1035.44,1036.477,0,1,left,1036.479,1037.178,0,0,left,1,1037.178,1037.178,1037.178,1038.684,0,21,21,21,1,0.2,0.8,0.8,0.2,,,,,,,,,,,,,,,0.466,,0.8,0.2,0.6,0.4,0.4,0.6,0.2,0.8,,,0.151,,0.4,0.6,0.2,0.8,0.8,0.2,0.2,0.8,1,0
,,66da1ee997e80ed7628558f3,66daf5b7788896b5b1c3e337,2024-09-06_14h32.38.588,mdp,2024.2.1,Win32,60.09615385,66d7945b1baad48e845df3ce,,,,,,,,,,,,,,,,,,,,,1038.686,1038.686,1038.696,1039.57,1,0,right,0.327,,1039.577,1040.498,0,0,left,1040.5,1041.394,0,0,left,1,1041.394,1041.394,1041.397,1042.87,0,22,22,22,1,0.2,0.8,0.8,0.2,,,,,,,,,,,,,,,0.366,,0.8,0.2,0.6,0.4,0.4,0.6,0.2,0.8,,,0.363,,0.4,0.6,0.2,0.8,0.8,0.2,0.2,0.8,1,0
,,66da1ee997e80ed7628558f3,66daf5b7788896b5b1c3e337,2024-09-06_14h32.38.588,mdp,2024.2.1,Win32,60.09615385,66d7945b1baad48e845df3ce,,,,,,,,,,,,,,,,,,,,,1042.872,1042.872,1042.874,1043.874,1,0,right,0.46,,1043.875,1044.721,0,1,left,1044.723,1047.305,0,0,left,1,1047.305,1047.305,1047.308,1048.788,0,23,23,23,1,0.2,0.8,0.8,0.2,,,,,,,,,,,,,,,0.293,,0.4,0.6,0.4,0.6,0.4,0.6,0.2,0.8,,,2.013,0.005,0.4,0.6,0.2,0.8,0.8,0.2,0.2,0.8,1,0
,,66da1ee997e80ed7628558f3,66daf5b7788896b5b1c3e337,2024-09-06_14h32.38.588,mdp,2024.2.1,Win32,60.09615385,66d7945b1baad48e845df3ce,,,,,,,,,,,,,,,,,,,,,1048.788,1048.788,1048.79,1054.071,1,0,right,4.755,,1054.073,1054.973,0,1,left,1054.979,1055.96,1,1,right,0,1055.961,1055.961,1055.963,1057.476,0,24,24,24,1,0.2,0.8,0.8,0.2,,,,,,,,,,,,,,,0.343,,0.4,0.6,0.4,0.6,0.4,0.6,0.2,0.8,,,0.421,,0.4,0.6,0.2,0.8,0.8,0.2,0.2,0.8,1,0
,,66da1ee997e80ed7628558f3,66daf5b7788896b5b1c3e337,2024-09-06_14h32.38.588,mdp,2024.2.1,Win32,60.09615385,66d7945b1baad48e845df3ce,,,,,,,,,,,,,,,,,,,,,1057.477,1057.477,1057.478,1059.334,0,1,left,1.303,,1059.336,1060.477,0,1,left,1060.478,1061.665,1,0,right,1,1061.665,1061.665,1061.667,1063.144,0,25,25,25,1,0.2,0.8,0.8,0.2,,,,,,,,,,,,,,,0.573,,0.4,0.6,0.4,0.6,0.4,0.6,0.2,0.8,,,0.636,,0.4,0.6,0.2,0.8,0.4,0.6,0.6,0.4,1,0
,,66da1ee997e80ed7628558f3,66daf5b7788896b5b1c3e337,2024-09-06_14h32.38.588,mdp,2024.2.1,Win32,60.09615385,66d7945b1baad48e845df3ce,,,,,,,,,,,,,,,,,,,,,1063.145,1063.145,1063.145,1066.318,0,1,left,2.613,,1066.319,1067.619,0,1,left,1067.62,1068.571,1,0,right,1,1068.571,1068.571,1068.572,1070.065,0,26,26,26,1,0.2,0.8,0.8,0.2,,,,,,,,,,,,,,,0.76,,0.4,0.6,0.4,0.6,0.4,0.6,0.2,0.8,,,0.396,,0.4,0.6,0.2,0.8,0.4,0.6,0.6,0.4,1,0
,,66da1ee997e80ed7628558f3,66daf5b7788896b5b1c3e337,2024-09-06_14h32.38.588,mdp,2024.2.1,Win32,60.09615385,66d7945b1baad48e845df3ce,,,,,,,,,,,,,,,,,,,,,1070.066,1070.066,1070.067,1071.126,0,1,left,0.514,,1071.13,1072.457,0,1,left,1072.458,1074.094,1,0,right,1,1074.094,1074.094,1074.095,1075.576,0,27,27,27,1,0.2,0.8,0.8,0.2,,,,,,,,,,,,,,,0.781,,0.8,0.2,0.2,0.8,0.4,0.6,0.2,0.8,,,1.085,,0.4,0.6,0.2,0.8,0.4,0.6,0.6,0.4,1,0
,,66da1ee997e80ed7628558f3,66daf5b7788896b5b1c3e337,2024-09-06_14h32.38.588,mdp,2024.2.1,Win32,60.09615385,66d7945b1baad48e845df3ce,,,,,,,,,,,,,,,,,,,,,1075.577,1075.577,1075.578,1076.826,0,1,left,0.707,,1076.827,1077.936,1,0,right,1077.947,1079.564,0,1,left,0,1079.565,1079.565,1079.566,1081.038,0,28,28,28,1,0.2,0.8,0.8,0.2,,,,,,,,,,,,,,,0.561,,0.8,0.2,0.2,0.8,0.4,0.6,0.2,0.8,,,1.08,,0.4,0.6,0.2,0.8,0.4,0.6,0.6,0.4,1,0
,,66da1ee997e80ed7628558f3,66daf5b7788896b5b1c3e337,2024-09-06_14h32.38.588,mdp,2024.2.1,Win32,60.09615385,66d7945b1baad48e845df3ce,,,,,,,,,,,,,,,,,,,,,1081.038,1081.038,1081.04,1082.023,0,1,left,0.44,,1082.024,1083.47,0,1,left,1083.474,1084.39,1,1,right,0,1084.39,1084.39,1084.392,1085.87,0,29,29,29,1,0.2,0.8,0.8,0.2,,,,,,,,,,,,,,,0.913,,0.8,0.2,0.2,0.8,0.4,0.6,0.2,0.8,,,0.368,,0.4,0.6,0.2,0.8,0.4,0.6,0.6,0.4,1,0
,,66da1ee997e80ed7628558f3,66daf5b7788896b5b1c3e337,2024-09-06_14h32.38.588,mdp,2024.2.1,Win32,60.09615385,66d7945b1baad48e845df3ce,,,,,,,,,,,,,,,,,,,,,1085.87,1085.87,1085.872,1087.056,1,1,right,0.659,,1087.057,1088.25,0,0,left,1088.252,1090.019,0,1,left,0,1090.019,1090.019,1090.02,1091.522,0,30,30,30,1,0.2,0.8,0.8,0.2,,,,,,,,,,,,,,,0.639,,0.8,0.2,0.2,0.8,0.4,0.6,0.2,0.8,,,1.202,,0.4,0.6,0.2,0.8,0.4,0.6,0.6,0.4,1,0
,,66da1ee997e80ed7628558f3,66daf5b7788896b5b1c3e337,2024-09-06_14h32.38.588,mdp,2024.2.1,Win32,60.09615385,66d7945b1baad48e845df3ce,,,,,,,,,,,,,,,,,,,,,1091.523,1091.523,1091.524,1092.38,1,0,right,0.319,,1092.383,1093.532,0,0,left,1093.533,1094.76,1,1,right,0,1094.76,1094.76,1094.762,1096.273,0,31,31,31,1,0.2,0.8,0.8,0.2,,,,,,,,,,,,,,,0.585,,0.8,0.2,0.2,0.8,0.4,0.6,0.2,0.8,,,0.667,,0.4,0.6,0.2,0.8,0.4,0.6,0.6,0.4,1,0
,,66da1ee997e80ed7628558f3,66daf5b7788896b5b1c3e337,2024-09-06_14h32.38.588,mdp,2024.2.1,Win32,60.09615385,66d7945b1baad48e845df3ce,,,,,,,,,,,,,,,,,,,,,1096.274,1096.274,1096.275,1097.077,1,0,right,0.241,,1097.079,1097.992,0,0,left,1097.993,1099.33,0,1,left,0,1099.33,1099.33,1099.331,1100.829,0,32,32,32,1,0.2,0.8,0.8,0.2,,,,,,,,,,,,,,,0.37,,0.8,0.2,0.2,0.8,0.4,0.6,0.2,0.8,,,0.804,,0.4,0.6,0.2,0.8,0.4,0.6,0.6,0.4,1,0
,,66da1ee997e80ed7628558f3,66daf5b7788896b5b1c3e337,2024-09-06_14h32.38.588,mdp,2024.2.1,Win32,60.09615385,66d7945b1baad48e845df3ce,,,,,,,,,,,,,,,,,,,,,1100.829,1100.829,1100.831,1101.598,1,0,right,0.217,,1101.6,1102.58,1,1,right,1102.582,1103.558,1,1,right,0,1103.559,1103.559,1103.56,1105.065,0,33,33,33,1,0.2,0.8,0.8,0.2,,,,,,,,,,,,,,,0.428,,0.8,0.2,0.2,0.8,0.4,0.6,0.2,0.8,,,0.44,,0.4,0.6,0.2,0.8,0.4,0.6,0.6,0.4,1,0
,,66da1ee997e80ed7628558f3,66daf5b7788896b5b1c3e337,2024-09-06_14h32.38.588,mdp,2024.2.1,Win32,60.09615385,66d7945b1baad48e845df3ce,,,,,,,,,,,,,,,,,,,,,1105.065,1105.065,1105.067,1106.5,1,0,right,0.886,,1106.502,1107.642,0,0,left,1107.642,1108.422,0,0,left,1,1108.422,1108.422,1108.423,1109.899,0,34,34,34,1,0.2,0.8,0.8,0.2,,,,,,,,,,,,,,,0.585,,0.8,0.2,0.2,0.8,0.4,0.6,0.2,0.8,,,0.215,,0.4,0.6,0.2,0.8,0.4,0.6,0.6,0.4,1,0
,,66da1ee997e80ed7628558f3,66daf5b7788896b5b1c3e337,2024-09-06_14h32.38.588,mdp,2024.2.1,Win32,60.09615385,66d7945b1baad48e845df3ce,,,,,,,,,,,,,,,,,,,,,1109.899,1109.899,1109.9,1111.7,1,0,right,1.25,,1111.713,1112.919,0,1,left,1112.919,1113.961,0,1,left,0,1113.961,1113.961,1113.963,1115.445,0,35,35,35,1,0.2,0.8,0.8,0.2,,,,,,,,,,,,,,,0.653,,0.4,0.6,0.6,0.4,0.4,0.6,0.2,0.8,,,0.488,,0.4,0.6,0.2,0.8,0.4,0.6,0.6,0.4,1,0
,,66da1ee997e80ed7628558f3,66daf5b7788896b5b1c3e337,2024-09-06_14h32.38.588,mdp,2024.2.1,Win32,60.09615385,66d7945b1baad48e845df3ce,,,,,,,,,,,,,,,,,,,,,1115.446,1115.446,1115.447,1116.611,1,0,right,0.615,,1116.612,1117.512,1,0,right,1117.513,1118.599,1,0,right,1,1118.599,1118.599,1118.601,1120.09,0,36,36,36,1,0.2,0.8,0.8,0.2,,,,,,,,,,,,,,,0.356,,0.4,0.6,0.6,0.4,0.4,0.6,0.2,0.8,,,0.526,,0.4,0.6,0.2,0.8,0.4,0.6,0.6,0.4,1,0
,,66da1ee997e80ed7628558f3,66daf5b7788896b5b1c3e337,2024-09-06_14h32.38.588,mdp,2024.2.1,Win32,60.09615385,66d7945b1baad48e845df3ce,,,,,,,,,,,,,,,,,,,,,1120.091,1120.091,1120.092,1121.196,1,0,right,0.547,,1121.198,1122.104,1,0,right,1122.106,1123.071,1,1,right,0,1123.071,1123.071,1123.075,1124.551,0,37,37,37,1,0.2,0.8,0.8,0.2,,,,,,,,,,,,,,,0.365,,0.4,0.6,0.6,0.4,0.4,0.6,0.2,0.8,,,0.406,0.001,0.4,0.6,0.2,0.8,0.4,0.6,0.6,0.4,1,0
,,66da1ee997e80ed7628558f3,66daf5b7788896b5b1c3e337,2024-09-06_14h32.38.588,mdp,2024.2.1,Win32,60.09615385,66d7945b1baad48e845df3ce,,,,,,,,,,,,,,,,,,,,,1124.552,1124.552,1124.553,1125.152,1,0,right,0.001,,1125.152,1126.07,1,0,right,1126.072,1126.977,0,1,left,0,1126.977,1126.977,1126.983,1128.47,0,38,38,38,1,0.2,0.8,0.8,0.2,,,,,,,,,,,,,,,0.372,,0.4,0.6,0.6,0.4,0.4,0.6,0.2,0.8,,,0.365,,0.4,0.6,0.2,0.8,0.4,0.6,0.6,0.4,1,0
,,66da1ee997e80ed7628558f3,66daf5b7788896b5b1c3e337,2024-09-06_14h32.38.588,mdp,2024.2.1,Win32,60.09615385,66d7945b1baad48e845df3ce,,,,,,,,,,,,,,,,,,,,,1128.47,1128.47,1128.472,1129.664,0,1,left,0.65,,1129.665,1130.539,1,1,right,1130.54,1131.191,1,0,right,1,1131.195,1131.195,1131.196,1132.684,0,39,39,39,1,0.2,0.8,0.8,0.2,,,,,,,,,,,,,,,0.324,,0.4,0.6,0.6,0.4,0.4,0.6,0.2,0.8,,,0.104,,0.4,0.6,0.2,0.8,0.4,0.6,0.6,0.4,1,0
,,66da1ee997e80ed7628558f3,66daf5b7788896b5b1c3e337,2024-09-06_14h32.38.588,mdp,2024.2.1,Win32,60.09615385,66d7945b1baad48e845df3ce,,,,,,,,,,,,,,,,,,,,,1132.685,1132.685,1132.686,1134.36,0,0,left,1.13,,1134.361,1135.195,1,1,right,1135.197,1136.024,1,0,right,1,1136.024,1136.024,1136.025,1137.53,0,40,40,40,1,0.2,0.8,0.8,0.2,,,,,,,,,,,,,,,0.287,,0.4,0.6,0.6,0.4,0.4,0.6,0.2,0.8,,,0.277,,0.4,0.6,0.2,0.8,0.4,0.6,0.6,0.4,1,0
,,66da1ee997e80ed7628558f3,66daf5b7788896b5b1c3e337,2024-09-06_14h32.38.588,mdp,2024.2.1,Win32,60.09615385,66d7945b1baad48e845df3ce,,,,,,,,,,,,,,,,,,,,,1137.53,1137.53,1137.531,1138.333,0,1,left,0.235,,1138.334,1139.305,1,1,right,1139.307,1140.054,1,0,right,1,1140.054,1140.054,1140.055,1141.562,0,41,41,41,1,0.2,0.8,0.8,0.2,,,,,,,,,,,,,,,0.414,,0.4,0.6,0.6,0.4,0.4,0.6,0.2,0.8,,,0.184,,0.4,0.6,0.2,0.8,0.4,0.6,0.6,0.4,1,0
,,66da1ee997e80ed7628558f3,66daf5b7788896b5b1c3e337,2024-09-06_14h32.38.588,mdp,2024.2.1,Win32,60.09615385,66d7945b1baad48e845df3ce,,,,,,,,,,,,,,,,,,,,,1141.563,1141.563,1141.564,1142.635,0,1,left,0.522,,1142.635,1144.037,1,0,right,1144.044,1144.719,1,1,right,0,1144.719,1144.719,1144.722,1146.211,0,42,42,42,1,0.2,0.8,0.8,0.2,,,,,,,,,,,,,,,0.829,,0.4,0.6,0.6,0.4,0.4,0.6,0.2,0.8,,,0.117,,0.4,0.6,0.2,0.8,0.4,0.6,0.6,0.4,1,0
,,66da1ee997e80ed7628558f3,66daf5b7788896b5b1c3e337,2024-09-06_14h32.38.588,mdp,2024.2.1,Win32,60.09615385,66d7945b1baad48e845df3ce,,,,,,,,,,,,,,,,,,,,,1146.216,1146.216,1146.217,1147.332,1,0,right,0.569,,1147.334,1148.102,0,1,left,1148.103,1148.848,0,1,left,0,1148.848,1148.848,1148.85,1150.331,0,43,43,43,1,0.2,0.8,0.8,0.2,,,,,,,,,,,,,,,0.204,,0.4,0.6,0.6,0.4,0.4,0.6,0.2,0.8,,,0.185,,0.4,0.6,0.2,0.8,0.4,0.6,0.6,0.4,1,0
,,66da1ee997e80ed7628558f3,66daf5b7788896b5b1c3e337,2024-09-06_14h32.38.588,mdp,2024.2.1,Win32,60.09615385,66d7945b1baad48e845df3ce,,,,,,,,,,,,,,,,,,,,,1150.333,1150.333,1150.335,1151.245,1,0,right,0.369,,1151.247,1152.831,1,1,right,1152.833,1153.784,1,1,right,0,1153.784,1153.784,1153.785,1155.291,0,44,44,44,1,0.2,0.8,0.8,0.2,,,,,,,,,,,,,,,1.039,,0.4,0.6,0.6,0.4,0.4,0.6,0.2,0.8,,,0.396,,0.4,0.6,0.2,0.8,0.4,0.6,0.6,0.4,1,0
,,66da1ee997e80ed7628558f3,66daf5b7788896b5b1c3e337,2024-09-06_14h32.38.588,mdp,2024.2.1,Win32,60.09615385,66d7945b1baad48e845df3ce,,,,,,,,,,,,,,,,,,,,,1155.292,1155.292,1155.293,1156.1,1,0,right,0.254,,1156.102,1157.255,0,1,left,1157.256,1158.198,0,1,left,0,1158.199,1158.199,1158.2,1159.689,0,45,45,45,1,0.2,0.8,0.8,0.2,,,,,,,,,,,,,,,0.608,,0.4,0.6,0.6,0.4,0.4,0.6,0.2,0.8,,,0.365,,0.4,0.6,0.2,0.8,0.4,0.6,0.6,0.4,1,0
,,66da1ee997e80ed7628558f3,66daf5b7788896b5b1c3e337,2024-09-06_14h32.38.588,mdp,2024.2.1,Win32,60.09615385,66d7945b1baad48e845df3ce,,,,,,,,,,,,,,,,,,,,,1159.69,1159.69,1159.691,1160.695,0,1,left,0.44,,1160.697,1161.669,0,1,left,1161.67,1163.356,1,1,right,0,1163.356,1163.356,1163.358,1164.84,0,46,46,46,1,0.2,0.8,0.8,0.2,,,,,,,,,,,,,,,0.399,,0.4,0.6,0.6,0.4,0.4,0.6,0.2,0.8,,,1.138,,0.4,0.6,0.2,0.8,0.4,0.6,0.6,0.4,1,0
,,66da1ee997e80ed7628558f3,66daf5b7788896b5b1c3e337,2024-09-06_14h32.38.588,mdp,2024.2.1,Win32,60.09615385,66d7945b1baad48e845df3ce,,,,,,,,,,,,,,,,,,,,,1164.84,1164.84,1164.842,1165.89,0,1,left,0.493,,1165.891,1166.599,1,0,right,1166.6,1167.186,1,0,right,1,1167.186,1167.186,1167.188,1168.673,0,47,47,47,1,0.2,0.8,0.8,0.2,,,,,,,,,,,,,,,0.14,,0.4,0.6,0.6,0.4,0.4,0.6,0.2,0.8,,,0.001,,0.4,0.6,0.2,0.8,0.4,0.6,0.6,0.4,1,0
,,66da1ee997e80ed7628558f3,66daf5b7788896b5b1c3e337,2024-09-06_14h32.38.588,mdp,2024.2.1,Win32,60.09615385,66d7945b1baad48e845df3ce,,,,,,,,,,,,,,,,,,,,,1168.674,1168.674,1168.679,1170.205,0,1,left,0.978,,1170.207,1171.006,1,0,right,1171.012,1172.25,1,1,right,0,1172.25,1172.25,1172.251,1173.741,0,48,48,48,1,0.2,0.8,0.8,0.2,,,,,,,,,,,,,,,0.253,,0.4,0.6,0.6,0.4,0.4,0.6,0.2,0.8,,,0.683,,0.4,0.6,0.2,0.8,0.8,0.2,0.8,0.2,1,0
,,66da1ee997e80ed7628558f3,66daf5b7788896b5b1c3e337,2024-09-06_14h32.38.588,mdp,2024.2.1,Win32,60.09615385,66d7945b1baad48e845df3ce,,,,,,,,,,,,,,,,,,,,,1173.742,1173.742,1173.743,1177.865,1,0,right,3.548,,1177.866,1178.839,0,1,left,1178.839,1179.894,0,0,left,1,1179.894,1179.894,1179.895,1181.383,0,49,49,49,1,0.2,0.8,0.8,0.2,,,,,,,,,,,,,,,0.423,,0.4,0.6,0.6,0.4,0.4,0.6,0.2,0.8,,,0.474,,0.4,0.6,0.2,0.8,0.8,0.2,0.8,0.2,1,0
,,66da1ee997e80ed7628558f3,66daf5b7788896b5b1c3e337,2024-09-06_14h32.38.588,mdp,2024.2.1,Win32,60.09615385,66d7945b1baad48e845df3ce,,,,,,,,,,,,,,,,,,,,,,,,,,,,,,,,,,,,,,,,,,,,,,,,,,,,,,,,1181.383,1239.894,0,2,2,5,1,imgs/elephant.png,imgs/goat.png,imgs/horse.png,imgs/bear.png,imgs/cat.png,,,,,,,,,,,,,,,,,,,,,,,,
,,66da1ee997e80ed7628558f3,66daf5b7788896b5b1c3e337,2024-09-06_14h32.38.588,mdp,2024.2.1,Win32,60.09615385,66d7945b1baad48e845df3ce,,,,,,,,,,,,,,3,seqs/st3seq45.csv,1239.903,1310.458,space,70,,1310.477,1310.477,1310.482,1327.714,0,0,left,16.692,,1327.726,1334.379,1,1,right,1334.38,1341.062,0,1,left,0,1341.063,1341.063,1341.064,1342.544,0,0,0,0,1,0.2,0.8,0.2,0.8,,,,,,,,,,,,,,,6.122,,0.8,0.2,0.6,0.4,0.6,0.4,0.2,0.8,,,6.137,,0.2,0.8,0.4,0.6,0.2,0.8,0.8,0.2,1,0
,,66da1ee997e80ed7628558f3,66daf5b7788896b5b1c3e337,2024-09-06_14h32.38.588,mdp,2024.2.1,Win32,60.09615385,66d7945b1baad48e845df3ce,,,,,,,,,,,,,,,,,,,,,1342.545,1342.545,1342.547,1351.938,0,1,left,8.85,,1351.945,1352.669,1,1,right,1352.671,1353.212,1,0,right,1,1353.212,1353.212,1353.214,1354.718,0,1,1,1,1,0.2,0.8,0.2,0.8,,,,,,,,,,,,,,,0.184,,0.8,0.2,0.6,0.4,0.6,0.4,0.2,0.8,,,0.001,,0.2,0.8,0.4,0.6,0.2,0.8,0.8,0.2,1,0
,,66da1ee997e80ed7628558f3,66daf5b7788896b5b1c3e337,2024-09-06_14h32.38.588,mdp,2024.2.1,Win32,60.09615385,66d7945b1baad48e845df3ce,,,,,,,,,,,,,,,,,,,,,1354.719,1354.719,1354.721,1357.193,0,1,left,1.93,,1357.197,1358.946,0,0,left,1358.948,1359.91,1,1,right,0,1359.911,1359.911,1359.913,1361.42,0,2,2,2,1,0.2,0.8,0.2,0.8,,,,,,,,,,,,,,,1.211,,0.8,0.2,0.6,0.4,0.4,0.6,0.4,0.6,,,0.416,,0.2,0.8,0.4,0.6,0.2,0.8,0.8,0.2,1,0
,,66da1ee997e80ed7628558f3,66daf5b7788896b5b1c3e337,2024-09-06_14h32.38.588,mdp,2024.2.1,Win32,60.09615385,66d7945b1baad48e845df3ce,,,,,,,,,,,,,,,,,,,,,1361.421,1361.421,1361.422,1362.003,0,1,left,0.04,,1362.005,1363.643,0,0,left,1363.644,1364.566,0,1,left,0,1364.566,1364.566,1364.568,1366.041,0,3,3,3,1,0.2,0.8,0.2,0.8,,,,,,,,,,,,,,,1.066,,0.8,0.2,0.6,0.4,0.6,0.4,0.2,0.8,,,0.373,,0.2,0.8,0.4,0.6,0.2,0.8,0.8,0.2,1,0
,,66da1ee997e80ed7628558f3,66daf5b7788896b5b1c3e337,2024-09-06_14h32.38.588,mdp,2024.2.1,Win32,60.09615385,66d7945b1baad48e845df3ce,,,,,,,,,,,,,,,,,,,,,1366.042,1366.042,1366.042,1367.03,1,1,right,0.43,,1367.032,1368.655,0,1,left,1368.657,1369.799,0,1,left,0,1369.799,1369.799,1369.804,1371.288,0,4,4,4,1,0.2,0.8,0.2,0.8,,,,,,,,,,,,,,,1.094,,0.8,0.2,0.6,0.4,0.6,0.4,0.2,0.8,,,0.589,,0.2,0.8,0.4,0.6,0.2,0.8,0.8,0.2,1,0
,,66da1ee997e80ed7628558f3,66daf5b7788896b5b1c3e337,2024-09-06_14h32.38.588,mdp,2024.2.1,Win32,60.09615385,66d7945b1baad48e845df3ce,,,,,,,,,,,,,,,,,,,,,1371.289,1371.289,1371.29,1372.204,1,0,right,0.365,,1372.205,1373.433,0,0,left,1373.434,1374.349,1,1,right,0,1374.35,1374.35,1374.351,1375.815,0,5,5,5,1,0.2,0.8,0.2,0.8,,,,,,,,,,,,,,,0.683,,0.8,0.2,0.6,0.4,0.6,0.4,0.2,0.8,,,0.361,,0.2,0.8,0.4,0.6,0.2,0.8,0.8,0.2,1,0
,,66da1ee997e80ed7628558f3,66daf5b7788896b5b1c3e337,2024-09-06_14h32.38.588,mdp,2024.2.1,Win32,60.09615385,66d7945b1baad48e845df3ce,,,,,,,,,,,,,,,,,,,,,1375.817,1375.817,1375.823,1383.126,1,0,right,6.74,,1383.128,1384.046,1,1,right,1384.048,1385.179,0,1,left,0,1385.179,1385.179,1385.181,1386.657,0,6,6,6,1,0.2,0.8,0.2,0.8,,,,,,,,,,,,,,,0.391,,0.8,0.2,0.6,0.4,0.6,0.4,0.2,0.8,,,0.575,,0.2,0.8,0.4,0.6,0.2,0.8,0.8,0.2,1,0
,,66da1ee997e80ed7628558f3,66daf5b7788896b5b1c3e337,2024-09-06_14h32.38.588,mdp,2024.2.1,Win32,60.09615385,66d7945b1baad48e845df3ce,,,,,,,,,,,,,,,,,,,,,1386.658,1386.658,1386.659,1387.288,1,1,right,0.09,,1387.289,1388.17,0,1,left,1388.172,1388.961,0,1,left,0,1388.961,1388.961,1388.962,1390.437,0,7,7,7,1,0.2,0.8,0.2,0.8,,,,,,,,,,,,,,,0.339,,0.8,0.2,0.6,0.4,0.6,0.4,0.2,0.8,,,0.252,,0.2,0.8,0.4,0.6,0.2,0.8,0.8,0.2,1,0
,,66da1ee997e80ed7628558f3,66daf5b7788896b5b1c3e337,2024-09-06_14h32.38.588,mdp,2024.2.1,Win32,60.09615385,66d7945b1baad48e845df3ce,,,,,,,,,,,,,,,,,,,,,1390.438,1390.438,1390.439,1391.518,0,0,left,0.523,,1391.519,1392.227,1,0,right,1392.228,1393.177,1,1,right,0,1393.177,1393.177,1393.179,1394.673,0,8,8,8,1,0.2,0.8,0.2,0.8,,,,,,,,,,,,,,,0.143,,0.8,0.2,0.6,0.4,0.6,0.4,0.2,0.8,,,0.396,,0.2,0.8,0.4,0.6,0.2,0.8,0.8,0.2,1,0
,,66da1ee997e80ed7628558f3,66daf5b7788896b5b1c3e337,2024-09-06_14h32.38.588,mdp,2024.2.1,Win32,60.09615385,66d7945b1baad48e845df3ce,,,,,,,,,,,,,,,,,,,,,1394.673,1394.673,1394.673,1395.677,0,1,left,0.449,,1395.683,1396.665,1,1,right,1396.668,1398.316,1,0,right,1,1398.316,1398.316,1398.317,1399.828,0,9,9,9,1,0.2,0.8,0.2,0.8,,,,,,,,,,,,,,,0.42,,0.8,0.2,0.6,0.4,0.6,0.4,0.2,0.8,,,1.103,,0.2,0.8,0.4,0.6,0.2,0.8,0.8,0.2,1,0
,,66da1ee997e80ed7628558f3,66daf5b7788896b5b1c3e337,2024-09-06_14h32.38.588,mdp,2024.2.1,Win32,60.09615385,66d7945b1baad48e845df3ce,,,,,,,,,,,,,,,,,,,,,1399.829,1399.829,1399.831,1400.665,0,1,left,0.274,,1400.666,1401.56,0,1,left,1401.561,1402.449,1,1,right,0,1402.45,1402.45,1402.451,1403.932,0,10,10,10,1,0.2,0.8,0.2,0.8,,,,,,,,,,,,,,,0.33,,0.8,0.2,0.6,0.4,0.6,0.4,0.2,0.8,,,0.354,,0.2,0.8,0.4,0.6,0.2,0.8,0.8,0.2,1,0
,,66da1ee997e80ed7628558f3,66daf5b7788896b5b1c3e337,2024-09-06_14h32.38.588,mdp,2024.2.1,Win32,60.09615385,66d7945b1baad48e845df3ce,,,,,,,,,,,,,,,,,,,,,1403.933,1403.933,1403.934,1404.893,1,1,right,0.42,,1404.894,1405.874,1,1,right,1405.875,1406.773,0,1,left,0,1406.773,1406.773,1406.774,1408.255,0,11,11,11,1,0.2,0.8,0.2,0.8,,,,,,,,,,,,,,,0.436,,0.8,0.2,0.6,0.4,0.6,0.4,0.2,0.8,,,0.354,,0.2,0.8,0.4,0.6,0.2,0.8,0.8,0.2,1,0
,,66da1ee997e80ed7628558f3,66daf5b7788896b5b1c3e337,2024-09-06_14h32.38.588,mdp,2024.2.1,Win32,60.09615385,66d7945b1baad48e845df3ce,,,,,,,,,,,,,,,,,,,,,1408.255,1408.255,1408.257,1409.206,1,1,right,0.388,,1409.206,1410.852,0,1,left,1410.854,1412.536,1,0,right,1,1412.536,1412.536,1412.537,1414,0,12,12,12,1,0.2,0.8,0.2,0.8,,,,,,,,,,,,,,,1.092,,0.8,0.2,0.6,0.4,0.6,0.4,0.2,0.8,,,1.158,,0.2,0.8,0.4,0.6,0.2,0.8,0.8,0.2,1,0
,,66da1ee997e80ed7628558f3,66daf5b7788896b5b1c3e337,2024-09-06_14h32.38.588,mdp,2024.2.1,Win32,60.09615385,66d7945b1baad48e845df3ce,,,,,,,,,,,,,,,,,,,,,1414.003,1414.003,1414.008,1415.516,1,0,right,0.96,,1415.518,1417.22,1,0,right,1417.223,1418.916,0,1,left,0,1418.917,1418.917,1418.919,1420.413,0,13,13,13,1,0.2,0.8,0.2,0.8,,,,,,,,,,,,,,,1.131,,0.8,0.2,0.6,0.4,0.6,0.4,0.2,0.8,,,1.123,,0.2,0.8,0.4,0.6,0.2,0.8,0.8,0.2,1,0
,,66da1ee997e80ed7628558f3,66daf5b7788896b5b1c3e337,2024-09-06_14h32.38.588,mdp,2024.2.1,Win32,60.09615385,66d7945b1baad48e845df3ce,,,,,,,,,,,,,,,,,,,,,1420.413,1420.413,1420.415,1421.375,1,1,right,0.424,,1421.376,1422.482,1,1,right,1422.483,1424.655,1,1,right,0,1424.655,1424.655,1424.657,1426.158,0,14,14,14,1,0.2,0.8,0.2,0.8,,,,,,,,,,,,,,,0.556,,0.8,0.2,0.6,0.4,0.6,0.4,0.2,0.8,,,1.614,,0.2,0.8,0.4,0.6,0.2,0.8,0.8,0.2,1,0
,,66da1ee997e80ed7628558f3,66daf5b7788896b5b1c3e337,2024-09-06_14h32.38.588,mdp,2024.2.1,Win32,60.09615385,66d7945b1baad48e845df3ce,,,,,,,,,,,,,,,,,,,,,1426.159,1426.159,1426.162,1427.122,0,1,left,0.4,,1427.124,1428.954,1,0,right,1428.955,1429.851,0,1,left,0,1429.852,1429.852,1429.853,1431.367,0,15,15,15,1,0.2,0.8,0.2,0.8,,,,,,,,,,,,,,,1.294,,0.8,0.2,0.6,0.4,0.6,0.4,0.2,0.8,,,0.349,,0.2,0.8,0.4,0.6,0.2,0.8,0.8,0.2,1,0
,,66da1ee997e80ed7628558f3,66daf5b7788896b5b1c3e337,2024-09-06_14h32.38.588,mdp,2024.2.1,Win32,60.09615385,66d7945b1baad48e845df3ce,,,,,,,,,,,,,,,,,,,,,1431.367,1431.367,1431.368,1438.727,1,1,right,6.821,,1438.729,1439.832,0,1,left,1439.833,1440.587,0,1,left,0,1440.592,1440.592,1440.594,1442.057,0,16,16,16,1,0.2,0.8,0.2,0.8,,,,,,,,,,,,,,,0.54,,0.8,0.2,0.6,0.4,0.6,0.4,0.2,0.8,,,0.202,,0.2,0.8,0.4,0.6,0.2,0.8,0.8,0.2,1,0
,,66da1ee997e80ed7628558f3,66daf5b7788896b5b1c3e337,2024-09-06_14h32.38.588,mdp,2024.2.1,Win32,60.09615385,66d7945b1baad48e845df3ce,,,,,,,,,,,,,,,,,,,,,1442.058,1442.058,1442.059,1443.224,0,1,left,0.603,,1443.225,1444.2,1,0,right,1444.205,1445.32,1,0,right,1,1445.32,1445.32,1445.321,1446.805,0,17,17,17,1,0.2,0.8,0.2,0.8,,,,,,,,,,,,,,,0.432,,0.8,0.2,0.6,0.4,0.6,0.4,0.2,0.8,,,0.572,,0.2,0.8,0.4,0.6,0.2,0.8,0.8,0.2,1,0
,,66da1ee997e80ed7628558f3,66daf5b7788896b5b1c3e337,2024-09-06_14h32.38.588,mdp,2024.2.1,Win32,60.09615385,66d7945b1baad48e845df3ce,,,,,,,,,,,,,,,,,,,,,1446.808,1446.808,1446.813,1447.847,0,1,left,0.466,,1447.855,1448.793,1,0,right,1448.795,1450.016,0,1,left,0,1450.016,1450.016,1450.019,1451.517,0,18,18,18,1,0.2,0.8,0.2,0.8,,,,,,,,,,,,,,,0.409,,0.8,0.2,0.6,0.4,0.6,0.4,0.2,0.8,,,0.671,,0.2,0.8,0.4,0.6,0.6,0.4,0.2,0.8,1,0
,,66da1ee997e80ed7628558f3,66daf5b7788896b5b1c3e337,2024-09-06_14h32.38.588,mdp,2024.2.1,Win32,60.09615385,66d7945b1baad48e845df3ce,,,,,,,,,,,,,,,,,,,,,1451.517,1451.517,1451.518,1452.715,0,1,left,0.641,,1452.717,1453.535,0,0,left,1453.538,1454.605,0,0,left,1,1454.606,1454.606,1454.607,1456.101,0,19,19,19,1,0.2,0.8,0.2,0.8,,,,,,,,,,,,,,,0.251,,0.8,0.2,0.6,0.4,0.6,0.4,0.2,0.8,,,0.513,,0.2,0.8,0.4,0.6,0.6,0.4,0.2,0.8,1,0
,,66da1ee997e80ed7628558f3,66daf5b7788896b5b1c3e337,2024-09-06_14h32.38.588,mdp,2024.2.1,Win32,60.09615385,66d7945b1baad48e845df3ce,,,,,,,,,,,,,,,,,,,,,1456.102,1456.102,1456.103,1457.082,0,0,left,0.432,,1457.084,1458.037,1,0,right,1458.039,1458.947,1,1,right,0,1458.947,1458.947,1458.948,1460.427,0,20,20,20,1,0.2,0.8,0.2,0.8,,,,,,,,,,,,,,,0.405,,0.8,0.2,0.6,0.4,0.6,0.4,0.2,0.8,,,0.362,,0.2,0.8,0.4,0.6,0.6,0.4,0.2,0.8,1,0
,,66da1ee997e80ed7628558f3,66daf5b7788896b5b1c3e337,2024-09-06_14h32.38.588,mdp,2024.2.1,Win32,60.09615385,66d7945b1baad48e845df3ce,,,,,,,,,,,,,,,,,,,,,1460.428,1460.428,1460.429,1461.102,0,0,left,0.097,,1461.103,1462.091,1,0,right,1462.093,1463.247,0,1,left,0,1463.247,1463.247,1463.248,1464.759,0,21,21,21,1,0.2,0.8,0.2,0.8,,,,,,,,,,,,,,,0.44,,0.8,0.2,0.6,0.4,0.6,0.4,0.2,0.8,,,0.615,,0.2,0.8,0.4,0.6,0.6,0.4,0.2,0.8,1,0
,,66da1ee997e80ed7628558f3,66daf5b7788896b5b1c3e337,2024-09-06_14h32.38.588,mdp,2024.2.1,Win32,60.09615385,66d7945b1baad48e845df3ce,,,,,,,,,,,,,,,,,,,,,1464.76,1464.76,1464.761,1465.812,0,1,left,0.491,,1465.814,1466.586,1,0,right,1466.587,1467.258,1,0,right,1,1467.259,1467.259,1467.264,1468.733,0,22,22,22,1,0.2,0.8,0.2,0.8,,,,,,,,,,,,,,,0.214,,0.8,0.2,0.6,0.4,0.6,0.4,0.2,0.8,,,0.136,,0.2,0.8,0.4,0.6,0.6,0.4,0.2,0.8,1,0
,,66da1ee997e80ed7628558f3,66daf5b7788896b5b1c3e337,2024-09-06_14h32.38.588,mdp,2024.2.1,Win32,60.09615385,66d7945b1baad48e845df3ce,,,,,,,,,,,,,,,,,,,,,1468.734,1468.734,1468.735,1469.579,0,1,left,0.293,,1469.584,1470.384,1,0,right,1470.386,1471.316,1,0,right,1,1471.317,1471.317,1471.318,1472.838,0,23,23,23,1,0.2,0.8,0.2,0.8,,,,,,,,,,,,,,,0.257,,0.8,0.2,0.6,0.4,0.6,0.4,0.2,0.8,,,0.375,,0.2,0.8,0.4,0.6,0.6,0.4,0.2,0.8,1,0
,,66da1ee997e80ed7628558f3,66daf5b7788896b5b1c3e337,2024-09-06_14h32.38.588,mdp,2024.2.1,Win32,60.09615385,66d7945b1baad48e845df3ce,,,,,,,,,,,,,,,,,,,,,1472.839,1472.839,1472.84,1473.996,1,1,right,0.603,,1473.997,1474.704,0,0,left,1474.706,1475.519,0,1,left,0,1475.519,1475.519,1475.52,1477.004,0,24,24,24,1,0.2,0.8,0.2,0.8,,,,,,,,,,,,,,,0.168,,0.8,0.2,0.6,0.4,0.6,0.4,0.2,0.8,,,0.276,,0.2,0.8,0.4,0.6,0.6,0.4,0.2,0.8,1,0
,,66da1ee997e80ed7628558f3,66daf5b7788896b5b1c3e337,2024-09-06_14h32.38.588,mdp,2024.2.1,Win32,60.09615385,66d7945b1baad48e845df3ce,,,,,,,,,,,,,,,,,,,,,1477.004,1477.004,1477.005,1478.018,1,1,right,0.461,,1478.019,1478.861,0,1,left,1478.867,1479.578,0,0,left,1,1479.578,1479.578,1479.58,1481.08,0,25,25,25,1,0.2,0.8,0.2,0.8,,,,,,,,,,,,,,,0.299,,0.8,0.2,0.6,0.4,0.2,0.8,0.4,0.6,,,0.169,,0.2,0.8,0.4,0.6,0.6,0.4,0.2,0.8,1,0
,,66da1ee997e80ed7628558f3,66daf5b7788896b5b1c3e337,2024-09-06_14h32.38.588,mdp,2024.2.1,Win32,60.09615385,66d7945b1baad48e845df3ce,,,,,,,,,,,,,,,,,,,,,1481.081,1481.081,1481.084,1482.06,1,1,right,0.435,,1482.062,1483.15,0,1,left,1483.157,1484.113,1,1,right,0,1484.113,1484.113,1484.114,1485.604,0,26,26,26,1,0.2,0.8,0.2,0.8,,,,,,,,,,,,,,,0.543,,0.8,0.2,0.6,0.4,0.2,0.8,0.4,0.6,,,0.394,,0.2,0.8,0.4,0.6,0.6,0.4,0.2,0.8,1,0
,,66da1ee997e80ed7628558f3,66daf5b7788896b5b1c3e337,2024-09-06_14h32.38.588,mdp,2024.2.1,Win32,60.09615385,66d7945b1baad48e845df3ce,,,,,,,,,,,,,,,,,,,,,1485.605,1485.605,1485.608,1486.302,1,0,right,0.145,,1486.304,1487.517,0,0,left,1487.518,1488.374,0,1,left,0,1488.374,1488.374,1488.376,1489.85,0,27,27,27,1,0.2,0.8,0.2,0.8,,,,,,,,,,,,,,,0.668,,0.8,0.2,0.6,0.4,0.2,0.8,0.4,0.6,,,0.324,,0.2,0.8,0.4,0.6,0.8,0.2,0.6,0.4,1,0
,,66da1ee997e80ed7628558f3,66daf5b7788896b5b1c3e337,2024-09-06_14h32.38.588,mdp,2024.2.1,Win32,60.09615385,66d7945b1baad48e845df3ce,,,,,,,,,,,,,,,,,,,,,1489.852,1489.852,1489.855,1490.888,0,0,left,0.475,,1490.89,1492.075,0,0,left,1492.076,1493.003,1,1,right,0,1493.004,1493.004,1493.004,1494.485,0,28,28,28,1,0.2,0.8,0.2,0.8,,,,,,,,,,,,,,,0.641,,0.8,0.2,0.6,0.4,0.2,0.8,0.4,0.6,,,0.364,,0.2,0.8,0.4,0.6,0.8,0.2,0.6,0.4,1,0
,,66da1ee997e80ed7628558f3,66daf5b7788896b5b1c3e337,2024-09-06_14h32.38.588,mdp,2024.2.1,Win32,60.09615385,66d7945b1baad48e845df3ce,,,,,,,,,,,,,,,,,,,,,1494.485,1494.485,1494.487,1495.478,1,1,right,0.433,,1495.479,1497.277,0,1,left,1497.28,1497.97,0,0,left,1,1497.97,1497.97,1497.976,1499.438,0,29,29,29,1,0.2,0.8,0.2,0.8,,,,,,,,,,,,,,,1.236,,0.8,0.2,0.6,0.4,0.2,0.8,0.4,0.6,,,0.145,,0.2,0.8,0.4,0.6,0.8,0.2,0.6,0.4,1,0
,,66da1ee997e80ed7628558f3,66daf5b7788896b5b1c3e337,2024-09-06_14h32.38.588,mdp,2024.2.1,Win32,60.09615385,66d7945b1baad48e845df3ce,,,,,,,,,,,,,,,,,,,,,1499.438,1499.439,1499.44,1501.215,1,1,right,1.232,,1501.216,1502.405,1,1,right,1502.406,1503.32,0,0,left,1,1503.32,1503.32,1503.322,1504.803,0,30,30,30,1,0.2,0.8,0.2,0.8,,,,,,,,,,,,,,,0.623,,0.8,0.2,0.6,0.4,0.2,0.8,0.4,0.6,,,0.34,,0.2,0.8,0.4,0.6,0.8,0.2,0.6,0.4,1,0
,,66da1ee997e80ed7628558f3,66daf5b7788896b5b1c3e337,2024-09-06_14h32.38.588,mdp,2024.2.1,Win32,60.09615385,66d7945b1baad48e845df3ce,,,,,,,,,,,,,,,,,,,,,1504.803,1504.803,1504.805,1506.418,1,1,right,1.055,,1506.419,1507.449,1,0,right,1507.45,1508.384,1,1,right,0,1508.384,1508.384,1508.385,1509.866,0,31,31,31,1,0.2,0.8,0.2,0.8,,,,,,,,,,,,,,,0.482,,0.8,0.2,0.6,0.4,0.2,0.8,0.4,0.6,,,0.395,,0.2,0.8,0.4,0.6,0.8,0.2,0.6,0.4,1,0
,,66da1ee997e80ed7628558f3,66daf5b7788896b5b1c3e337,2024-09-06_14h32.38.588,mdp,2024.2.1,Win32,60.09615385,66d7945b1baad48e845df3ce,,,,,,,,,,,,,,,,,,,,,1509.866,1509.866,1509.868,1510.455,1,1,right,0.04,,1510.457,1511.331,0,1,left,1511.333,1512.031,0,0,left,1,1512.031,1512.031,1512.037,1513.518,0,32,32,32,1,0.2,0.8,0.2,0.8,,,,,,,,,,,,,,,0.325,,0.8,0.2,0.6,0.4,0.2,0.8,0.4,0.6,,,0.151,,0.4,0.6,0.6,0.4,0.8,0.2,0.6,0.4,1,0
,,66da1ee997e80ed7628558f3,66daf5b7788896b5b1c3e337,2024-09-06_14h32.38.588,mdp,2024.2.1,Win32,60.09615385,66d7945b1baad48e845df3ce,,,,,,,,,,,,,,,,,,,,,1513.52,1513.52,1513.522,1514.228,1,0,right,0.155,,1514.23,1514.995,0,0,left,1514.997,1515.937,1,0,right,1,1515.937,1515.937,1515.938,1517.424,0,33,33,33,1,0.8,0.2,0.4,0.6,,,,,,,,,,,,,,,0.186,,0.8,0.2,0.6,0.4,0.2,0.8,0.4,0.6,,,0.408,,0.4,0.6,0.6,0.4,0.8,0.2,0.6,0.4,1,0
,,66da1ee997e80ed7628558f3,66daf5b7788896b5b1c3e337,2024-09-06_14h32.38.588,mdp,2024.2.1,Win32,60.09615385,66d7945b1baad48e845df3ce,,,,,,,,,,,,,,,,,,,,,1517.425,1517.425,1517.427,1518.341,1,0,right,0.363,,1518.343,1519.456,1,0,right,1519.456,1520.621,0,1,left,0,1520.621,1520.621,1520.623,1522.111,0,34,34,34,1,0.8,0.2,0.4,0.6,,,,,,,,,,,,,,,0.551,,0.8,0.2,0.6,0.4,0.2,0.8,0.4,0.6,,,0.621,,0.4,0.6,0.6,0.4,0.8,0.2,0.6,0.4,1,0
,,66da1ee997e80ed7628558f3,66daf5b7788896b5b1c3e337,2024-09-06_14h32.38.588,mdp,2024.2.1,Win32,60.09615385,66d7945b1baad48e845df3ce,,,,,,,,,,,,,,,,,,,,,1522.112,1522.112,1522.114,1523.152,1,0,right,0.484,,1523.154,1524.005,1,0,right,1524.007,1525.154,0,0,left,1,1525.154,1525.154,1525.155,1526.65,0,35,35,35,1,0.8,0.2,0.4,0.6,,,,,,,,,,,,,,,0.318,,0.8,0.2,0.6,0.4,0.2,0.8,0.4,0.6,,,0.609,,0.4,0.6,0.6,0.4,0.8,0.2,0.6,0.4,1,0
,,66da1ee997e80ed7628558f3,66daf5b7788896b5b1c3e337,2024-09-06_14h32.38.588,mdp,2024.2.1,Win32,60.09615385,66d7945b1baad48e845df3ce,,,,,,,,,,,,,,,,,,,,,1526.651,1526.651,1526.652,1527.784,1,1,right,0.609,,1527.785,1528.432,1,1,right,1528.433,1529.764,0,0,left,1,1529.764,1529.764,1529.766,1531.249,0,36,36,36,1,0.8,0.2,0.4,0.6,,,,,,,,,,,,,,,0.075,,0.8,0.2,0.6,0.4,0.2,0.8,0.4,0.6,,,0.769,,0.4,0.6,0.6,0.4,0.8,0.2,0.6,0.4,1,0
,,66da1ee997e80ed7628558f3,66daf5b7788896b5b1c3e337,2024-09-06_14h32.38.588,mdp,2024.2.1,Win32,60.09615385,66d7945b1baad48e845df3ce,,,,,,,,,,,,,,,,,,,,,1531.25,1531.25,1531.253,1532.747,1,1,right,0.931,,1532.748,1536.596,0,0,left,1536.598,1539.077,0,0,left,1,1539.077,1539.077,1539.078,1540.588,0,37,37,37,1,0.8,0.2,0.4,0.6,,,,,,,,,,,,,,,3.309,,0.8,0.2,0.6,0.4,0.2,0.8,0.4,0.6,,,1.92,,0.4,0.6,0.6,0.4,0.8,0.2,0.6,0.4,1,0
,,66da1ee997e80ed7628558f3,66daf5b7788896b5b1c3e337,2024-09-06_14h32.38.588,mdp,2024.2.1,Win32,60.09615385,66d7945b1baad48e845df3ce,,,,,,,,,,,,,,,,,,,,,1540.589,1540.589,1540.589,1558.093,1,0,right,16.951,,1558.107,1559.607,0,0,left,1559.61,1562.204,0,0,left,1,1562.204,1562.204,1562.205,1563.693,0,38,38,38,1,0.8,0.2,0.4,0.6,,,,,,,,,,,,,,,0.952,,0.8,0.2,0.6,0.4,0.2,0.8,0.4,0.6,,,2.047,,0.4,0.6,0.6,0.4,0.8,0.2,0.6,0.4,1,0
,,66da1ee997e80ed7628558f3,66daf5b7788896b5b1c3e337,2024-09-06_14h32.38.588,mdp,2024.2.1,Win32,60.09615385,66d7945b1baad48e845df3ce,,,,,,,,,,,,,,,,,,,,,1563.694,1563.694,1563.696,1567.183,0,1,left,2.969,,1567.187,1567.882,1,0,right,1567.884,1569.264,1,0,right,1,1569.264,1569.264,1569.266,1570.74,0,39,39,39,1,0.8,0.2,0.4,0.6,,,,,,,,,,,,,,,0.136,,0.8,0.2,0.6,0.4,0.2,0.8,0.4,0.6,,,0.839,,0.4,0.6,0.6,0.4,0.8,0.2,0.6,0.4,1,0
,,66da1ee997e80ed7628558f3,66daf5b7788896b5b1c3e337,2024-09-06_14h32.38.588,mdp,2024.2.1,Win32,60.09615385,66d7945b1baad48e845df3ce,,,,,,,,,,,,,,,,,,,,,1570.741,1570.741,1570.745,1573.36,1,1,right,2.083,,1573.361,1574.579,0,1,left,1574.581,1576.923,0,0,left,1,1576.923,1576.923,1576.925,1578.407,0,40,40,40,1,0.8,0.2,0.4,0.6,,,,,,,,,,,,,,,0.68,,0.8,0.2,0.6,0.4,0.2,0.8,0.4,0.6,,,1.806,,0.4,0.6,0.6,0.4,0.8,0.2,0.6,0.4,1,0
,,66da1ee997e80ed7628558f3,66daf5b7788896b5b1c3e337,2024-09-06_14h32.38.588,mdp,2024.2.1,Win32,60.09615385,66d7945b1baad48e845df3ce,,,,,,,,,,,,,,,,,,,,,1578.408,1578.408,1578.409,1579.89,0,0,left,0.939,,1579.891,1580.806,1,0,right,1580.807,1581.735,1,0,right,1,1581.735,1581.735,1581.736,1583.246,0,41,41,41,1,0.8,0.2,0.4,0.6,,,,,,,,,,,,,,,0.371,,0.8,0.2,0.6,0.4,0.2,0.8,0.4,0.6,,,0.366,,0.6,0.4,0.4,0.6,0.8,0.2,0.6,0.4,1,0
,,66da1ee997e80ed7628558f3,66daf5b7788896b5b1c3e337,2024-09-06_14h32.38.588,mdp,2024.2.1,Win32,60.09615385,66d7945b1baad48e845df3ce,,,,,,,,,,,,,,,,,,,,,1583.253,1583.253,1583.259,1585.773,0,0,left,1.974,,1585.775,1586.904,1,0,right,1586.906,1588.517,1,1,right,0,1588.517,1588.517,1588.519,1590.017,0,42,42,42,1,0.8,0.2,0.4,0.6,,,,,,,,,,,,,,,0.581,,0.8,0.2,0.6,0.4,0.2,0.8,0.4,0.6,,,1.067,,0.6,0.4,0.4,0.6,0.8,0.2,0.6,0.4,1,0
,,66da1ee997e80ed7628558f3,66daf5b7788896b5b1c3e337,2024-09-06_14h32.38.588,mdp,2024.2.1,Win32,60.09615385,66d7945b1baad48e845df3ce,,,,,,,,,,,,,,,,,,,,,1590.018,1590.018,1590.019,1592.476,1,1,right,1.899,,1592.478,1594.829,1,0,right,1594.83,1596.407,0,0,left,1,1596.407,1596.407,1596.408,1597.916,0,43,43,43,1,0.8,0.2,0.4,0.6,,,,,,,,,,,,,,,1.793,0.002,0.8,0.2,0.6,0.4,0.2,0.8,0.4,0.6,,,1.018,,0.6,0.4,0.4,0.6,0.8,0.2,0.6,0.4,1,0
,,66da1ee997e80ed7628558f3,66daf5b7788896b5b1c3e337,2024-09-06_14h32.38.588,mdp,2024.2.1,Win32,60.09615385,66d7945b1baad48e845df3ce,,,,,,,,,,,,,,,,,,,,,1597.917,1597.917,1597.922,1600.426,1,1,right,1.966,,1600.428,1602.11,1,1,right,1602.112,1603.667,0,1,left,0,1603.667,1603.667,1603.668,1605.156,0,44,44,44,1,0.8,0.2,0.4,0.6,,,,,,,,,,,,,,,1.141,,0.8,0.2,0.6,0.4,0.2,0.8,0.4,0.6,,,0.999,,0.6,0.4,0.4,0.6,0.8,0.2,0.6,0.4,1,0
,,66da1ee997e80ed7628558f3,66daf5b7788896b5b1c3e337,2024-09-06_14h32.38.588,mdp,2024.2.1,Win32,60.09615385,66d7945b1baad48e845df3ce,,,,,,,,,,,,,,,,,,,,,1605.158,1605.158,1605.158,1607.223,0,0,left,1.523,,1607.224,1608.789,0,0,left,1608.791,1609.744,1,0,right,1,1609.744,1609.744,1609.745,1611.247,0,45,45,45,1,0.8,0.2,0.4,0.6,,,,,,,,,,,,,,,0.996,,0.8,0.2,0.6,0.4,0.2,0.8,0.4,0.6,,,0.405,,0.6,0.4,0.4,0.6,0.8,0.2,0.6,0.4,1,0
,,66da1ee997e80ed7628558f3,66daf5b7788896b5b1c3e337,2024-09-06_14h32.38.588,mdp,2024.2.1,Win32,60.09615385,66d7945b1baad48e845df3ce,,,,,,,,,,,,,,,,,,,,,1611.248,1611.248,1611.249,1614.807,0,0,left,3.008,,1614.809,1615.717,0,1,left,1615.718,1617.532,1,1,right,0,1617.532,1617.532,1617.533,1619.036,0,46,46,46,1,0.8,0.2,0.4,0.6,,,,,,,,,,,,,,,0.364,,0.8,0.2,0.6,0.4,0.2,0.8,0.4,0.6,,,1.256,,0.6,0.4,0.4,0.6,0.8,0.2,0.6,0.4,1,0
,,66da1ee997e80ed7628558f3,66daf5b7788896b5b1c3e337,2024-09-06_14h32.38.588,mdp,2024.2.1,Win32,60.09615385,66d7945b1baad48e845df3ce,,,,,,,,,,,,,,,,,,,,,1619.037,1619.037,1619.038,1623.022,0,0,left,3.444,,1623.028,1624.024,0,0,left,1624.025,1624.816,1,1,right,0,1624.816,1624.816,1624.817,1626.324,0,47,47,47,1,0.8,0.2,0.4,0.6,,,,,,,,,,,,,,,0.442,,0.8,0.2,0.6,0.4,0.2,0.8,0.4,0.6,,,0.236,,0.6,0.4,0.4,0.6,0.8,0.2,0.6,0.4,1,0
,,66da1ee997e80ed7628558f3,66daf5b7788896b5b1c3e337,2024-09-06_14h32.38.588,mdp,2024.2.1,Win32,60.09615385,66d7945b1baad48e845df3ce,,,,,,,,,,,,,,,,,,,,,1626.326,1626.326,1626.331,1627.066,1,0,right,0.196,,1627.068,1628.098,1,0,right,1628.098,1629.149,0,0,left,1,1629.149,1629.149,1629.151,1630.655,0,48,48,48,1,0.8,0.2,0.4,0.6,,,,,,,,,,,,,,,0.47,,0.8,0.2,0.6,0.4,0.8,0.2,0.2,0.8,,,0.499,,0.6,0.4,0.4,0.6,0.8,0.2,0.6,0.4,1,0
,,66da1ee997e80ed7628558f3,66daf5b7788896b5b1c3e337,2024-09-06_14h32.38.588,mdp,2024.2.1,Win32,60.09615385,66d7945b1baad48e845df3ce,,,,,,,,,,,,,,,,,,,,,1630.659,1630.659,1630.661,1633.486,1,0,right,2.278,,1633.492,1634.433,1,0,right,1634.434,1635.967,0,1,left,0,1635.967,1635.968,1635.975,1637.468,0,49,49,49,1,0.4,0.6,0.6,0.4,,,,,,,,,,,,,,,0.378,,0.8,0.2,0.6,0.4,0.8,0.2,0.2,0.8,,,0.998,,0.6,0.4,0.4,0.6,0.8,0.2,0.6,0.4,1,0
,,66da1ee997e80ed7628558f3,66daf5b7788896b5b1c3e337,2024-09-06_14h32.38.588,mdp,2024.2.1,Win32,60.09615385,66d7945b1baad48e845df3ce,,,,,,,,,,,,,,,,,,,,,,,,,,,,,,,,,,,,,,,,,,,,,,,,,,,,,,,,1637.469,1695.996,0,3,3,0,1,imgs/kangaroo.png,imgs/dog.png,imgs/giraffe.png,imgs/rabbit.png,imgs/squirrel.png,,,,,,,,,,,,,,,,,,,,,,,,
,,66da1ee997e80ed7628558f3,66daf5b7788896b5b1c3e337,2024-09-06_14h32.38.588,mdp,2024.2.1,Win32,60.09615385,66d7945b1baad48e845df3ce,,,,,,,,,,,,,,1,seqs/st1seq1.csv,1696.007,1698.862,space,2.326,,1698.876,1698.876,1698.877,1718.39,0,0,left,18.964,,1718.393,1718.396,1,0,,1718.4,1718.404,0,0,,1,1718.405,1718.405,1718.406,1719.885,0,0,0,0,1,0.4,0.6,0.8,0.2,1,0,,,,,,,,,,,,,,,,,,,,,,,,,,,,,,,,,,,,
,,66da1ee997e80ed7628558f3,66daf5b7788896b5b1c3e337,2024-09-06_14h32.38.588,mdp,2024.2.1,Win32,60.09615385,66d7945b1baad48e845df3ce,,,,,,,,,,,,,,,,,,,,,1719.886,1719.886,1719.887,1722.203,0,1,left,1.769,,1722.205,1722.207,1,1,,1722.208,1722.214,0,0,,0,1722.214,1722.214,1722.216,1723.703,0,1,1,1,1,0.4,0.6,0.8,0.2,1,0,,,,,,,,,,,,,,,,,,,,,,,,,,,,,,,,,,,,
,,66da1ee997e80ed7628558f3,66daf5b7788896b5b1c3e337,2024-09-06_14h32.38.588,mdp,2024.2.1,Win32,60.09615385,66d7945b1baad48e845df3ce,,,,,,,,,,,,,,,,,,,,,1723.704,1723.704,1723.706,1724.92,0,0,left,0.66,,1724.921,1724.924,1,1,,1724.929,1724.93,0,1,,1,1724.93,1724.93,1724.931,1726.396,0,2,2,2,1,0.4,0.6,0.8,0.2,1,0,,,,,,,,,,,,,,,,,,,,,,,,,,,,,,,,,,,,
,,66da1ee997e80ed7628558f3,66daf5b7788896b5b1c3e337,2024-09-06_14h32.38.588,mdp,2024.2.1,Win32,60.09615385,66d7945b1baad48e845df3ce,,,,,,,,,,,,,,,,,,,,,1726.397,1726.397,1726.399,1727.826,1,1,right,0.871,,1727.828,1727.829,1,0,,1727.83,1727.831,0,1,,0,1727.831,1727.831,1727.833,1729.341,0,3,3,3,1,0.8,0.2,0.2,0.8,1,0,,,,,,,,,,,,,,,,,,,,,,,,,,,,,,,,,,,,
,,66da1ee997e80ed7628558f3,66daf5b7788896b5b1c3e337,2024-09-06_14h32.38.588,mdp,2024.2.1,Win32,60.09615385,66d7945b1baad48e845df3ce,,,,,,,,,,,,,,,,,,,,,1729.346,1729.346,1729.351,1730.439,1,1,right,0.522,,1730.44,1730.444,1,1,,1730.445,1730.448,0,0,,0,1730.448,1730.448,1730.45,1731.926,0,4,4,4,1,0.8,0.2,0.2,0.8,1,0,,,,,,,,,,,,,,,,,,,,,,,,,,,,,,,,,,,,
,,66da1ee997e80ed7628558f3,66daf5b7788896b5b1c3e337,2024-09-06_14h32.38.588,mdp,2024.2.1,Win32,60.09615385,66d7945b1baad48e845df3ce,,,,,,,,,,,,,,,,,,,,,1731.926,1731.926,1731.928,1733.056,1,1,right,0.579,,1733.057,1733.059,1,1,,1733.061,1733.063,0,1,,0,1733.064,1733.064,1733.064,1734.568,0,5,5,5,1,0.8,0.2,0.2,0.8,1,0,,,,,,,,,,,,,,,,,,,,,,,,,,,,,,,,,,,,
,,66da1ee997e80ed7628558f3,66daf5b7788896b5b1c3e337,2024-09-06_14h32.38.588,mdp,2024.2.1,Win32,60.09615385,66d7945b1baad48e845df3ce,,,,,,,,,,,,,,,,,,,,,1734.569,1734.569,1734.57,1735.521,0,0,left,0.397,,1735.523,1735.524,1,0,,1735.526,1735.528,0,1,,1,1735.528,1735.528,1735.529,1737.023,0,6,6,6,1,0.8,0.2,0.2,0.8,1,0,,,,,,,,,,,,,,,,,,,,,,,,,,,,,,,,,,,,
,,66da1ee997e80ed7628558f3,66daf5b7788896b5b1c3e337,2024-09-06_14h32.38.588,mdp,2024.2.1,Win32,60.09615385,66d7945b1baad48e845df3ce,,,,,,,,,,,,,,,,,,,,,1737.023,1737.023,1737.024,1737.983,0,1,left,0.416,,1737.985,1737.986,1,0,,1737.987,1737.987,0,0,,0,1737.988,1737.988,1737.989,1739.475,0,7,7,7,1,0.8,0.2,0.2,0.8,1,0,,,,,,,,,,,,,,,,,,,,,,,,,,,,,,,,,,,,
,,66da1ee997e80ed7628558f3,66daf5b7788896b5b1c3e337,2024-09-06_14h32.38.588,mdp,2024.2.1,Win32,60.09615385,66d7945b1baad48e845df3ce,,,,,,,,,,,,,,,,,,,,,1739.476,1739.476,1739.477,1740.502,1,0,right,0.491,,1740.503,1740.504,1,0,,1740.505,1740.507,0,0,,1,1740.507,1740.507,1740.508,1741.986,0,8,8,8,1,0.2,0.8,0.6,0.4,1,0,,,,,,,,,,,,,,,,,,,,,,,,,,,,,,,,,,,,
,,66da1ee997e80ed7628558f3,66daf5b7788896b5b1c3e337,2024-09-06_14h32.38.588,mdp,2024.2.1,Win32,60.09615385,66d7945b1baad48e845df3ce,,,,,,,,,,,,,,,,,,,,,1741.986,1741.987,1741.988,1743.04,1,0,right,0.5,,1743.045,1743.047,1,0,,1743.048,1743.049,0,0,,1,1743.049,1743.05,1743.051,1744.56,0,9,9,9,1,0.2,0.8,0.6,0.4,1,0,,,,,,,,,,,,,,,,,,,,,,,,,,,,,,,,,,,,
,,66da1ee997e80ed7628558f3,66daf5b7788896b5b1c3e337,2024-09-06_14h32.38.588,mdp,2024.2.1,Win32,60.09615385,66d7945b1baad48e845df3ce,,,,,,,,,,,,,,,,,,,,,1744.56,1744.56,1744.561,1745.588,1,0,right,0.484,,1745.588,1745.595,1,1,,1745.596,1745.597,0,0,,1,1745.597,1745.597,1745.598,1747.098,0,10,10,10,1,0.2,0.8,0.6,0.4,1,0,,,,,,,,,,,,,,,,,,,,,,,,,,,,,,,,,,,,
,,66da1ee997e80ed7628558f3,66daf5b7788896b5b1c3e337,2024-09-06_14h32.38.588,mdp,2024.2.1,Win32,60.09615385,66d7945b1baad48e845df3ce,,,,,,,,,,,,,,,,,,,,,1747.099,1747.099,1747.1,1748.327,1,1,right,0.69,,1748.329,1748.33,1,0,,1748.332,1748.334,0,0,,0,1748.334,1748.334,1748.335,1749.832,0,11,11,11,1,0.2,0.8,0.6,0.4,1,0,,,,,,,,,,,,,,,,,,,,,,,,,,,,,,,,,,,,
,,66da1ee997e80ed7628558f3,66daf5b7788896b5b1c3e337,2024-09-06_14h32.38.588,mdp,2024.2.1,Win32,60.09615385,66d7945b1baad48e845df3ce,,,,,,,,,,,,,,,,,,,,,1749.833,1749.833,1749.834,1751.829,0,1,left,1.451,,1751.83,1751.832,1,1,,1751.837,1751.839,0,1,,0,1751.839,1751.839,1751.84,1753.322,0,12,12,12,1,0.2,0.8,0.6,0.4,1,0,,,,,,,,,,,,,,,,,,,,,,,,,,,,,,,,,,,,
,,66da1ee997e80ed7628558f3,66daf5b7788896b5b1c3e337,2024-09-06_14h32.38.588,mdp,2024.2.1,Win32,60.09615385,66d7945b1baad48e845df3ce,,,,,,,,,,,,,,,,,,,,,1753.323,1753.323,1753.324,1754.263,0,1,left,0.392,,1754.271,1754.274,1,1,,1754.276,1754.278,0,1,,0,1754.278,1754.278,1754.28,1755.767,0,13,13,13,1,0.2,0.8,0.6,0.4,1,0,,,,,,,,,,,,,,,,,,,,,,,,,,,,,,,,,,,,
,,66da1ee997e80ed7628558f3,66daf5b7788896b5b1c3e337,2024-09-06_14h32.38.588,mdp,2024.2.1,Win32,60.09615385,66d7945b1baad48e845df3ce,,,,,,,,,,,,,,,,,,,,,1755.767,1755.767,1755.768,1756.745,1,0,right,0.435,,1756.751,1756.753,1,1,,1756.753,1756.754,0,0,,1,1756.754,1756.754,1756.755,1758.238,0,14,14,14,1,0.2,0.8,0.6,0.4,1,0,,,,,,,,,,,,,,,,,,,,,,,,,,,,,,,,,,,,
,,66da1ee997e80ed7628558f3,66daf5b7788896b5b1c3e337,2024-09-06_14h32.38.588,mdp,2024.2.1,Win32,60.09615385,66d7945b1baad48e845df3ce,,,,,,,,,,,,,,,,,,,,,1758.239,1758.239,1758.24,1759.752,1,1,right,0.965,,1759.753,1759.754,1,0,,1759.755,1759.756,0,0,,0,1759.757,1759.757,1759.758,1761.25,0,15,15,15,1,0.4,0.6,0.8,0.2,1,0,,,,,,,,,,,,,,,,,,,,,,,,,,,,,,,,,,,,
,,66da1ee997e80ed7628558f3,66daf5b7788896b5b1c3e337,2024-09-06_14h32.38.588,mdp,2024.2.1,Win32,60.09615385,66d7945b1baad48e845df3ce,,,,,,,,,,,,,,,,,,,,,1761.251,1761.251,1761.254,1762.554,0,0,left,0.753,,1762.555,1762.556,1,1,,1762.563,1762.564,0,1,,1,1762.564,1762.564,1762.564,1764.047,0,16,16,16,1,0.4,0.6,0.8,0.2,1,0,,,,,,,,,,,,,,,,,,,,,,,,,,,,,,,,,,,,
,,66da1ee997e80ed7628558f3,66daf5b7788896b5b1c3e337,2024-09-06_14h32.38.588,mdp,2024.2.1,Win32,60.09615385,66d7945b1baad48e845df3ce,,,,,,,,,,,,,,,,,,,,,1764.048,1764.048,1764.049,1765.752,0,0,left,1.157,,1765.763,1765.767,1,0,,1765.769,1765.771,0,0,,1,1765.771,1765.771,1765.773,1767.275,0,17,17,17,1,0.4,0.6,0.8,0.2,1,0,,,,,,,,,,,,,,,,,,,,,,,,,,,,,,,,,,,,
,,66da1ee997e80ed7628558f3,66daf5b7788896b5b1c3e337,2024-09-06_14h32.38.588,mdp,2024.2.1,Win32,60.09615385,66d7945b1baad48e845df3ce,,,,,,,,,,,,,,,,,,,,,1767.276,1767.276,1767.276,1768.445,1,0,right,0.618,,1768.446,1768.448,1,0,,1768.449,1768.45,0,1,,1,1768.451,1768.451,1768.457,1769.956,0,18,18,18,1,0.4,0.6,0.8,0.2,1,0,,,,,,,,,,,,,,,,,,,,,,,,,,,,,,,,,,,,
,,66da1ee997e80ed7628558f3,66daf5b7788896b5b1c3e337,2024-09-06_14h32.38.588,mdp,2024.2.1,Win32,60.09615385,66d7945b1baad48e845df3ce,,,,,,,,,,,,,,,,,,,,,1769.956,1769.956,1769.958,1771.08,1,0,right,0.559,,1771.081,1771.083,1,0,,1771.089,1771.09,0,0,,1,1771.09,1771.09,1771.092,1772.569,0,19,19,19,1,0.4,0.6,0.8,0.2,1,0,,,,,,,,,,,,,,,,,,,,,,,,,,,,,,,,,,,,
,,66da1ee997e80ed7628558f3,66daf5b7788896b5b1c3e337,2024-09-06_14h32.38.588,mdp,2024.2.1,Win32,60.09615385,66d7945b1baad48e845df3ce,,,,,,,,,,,,,,,,,,,,,1772.57,1772.57,1772.571,1774.92,0,0,left,1.799,,1774.922,1774.923,1,0,,1774.924,1774.926,0,1,,1,1774.926,1774.926,1774.927,1776.418,0,20,20,20,1,0.4,0.6,0.8,0.2,1,0,,,,,,,,,,,,,,,,,,,,,,,,,,,,,,,,,,,,
,,66da1ee997e80ed7628558f3,66daf5b7788896b5b1c3e337,2024-09-06_14h32.38.588,mdp,2024.2.1,Win32,60.09615385,66d7945b1baad48e845df3ce,,,,,,,,,,,,,,,,,,,,,1776.419,1776.419,1776.421,1778.609,0,1,left,1.622,,1778.61,1778.615,1,0,,1778.617,1778.618,0,1,,0,1778.618,1778.618,1778.618,1780.113,0,21,21,21,1,0.4,0.6,0.8,0.2,1,0,,,,,,,,,,,,,,,,,,,,,,,,,,,,,,,,,,,,
,,66da1ee997e80ed7628558f3,66daf5b7788896b5b1c3e337,2024-09-06_14h32.38.588,mdp,2024.2.1,Win32,60.09615385,66d7945b1baad48e845df3ce,,,,,,,,,,,,,,,,,,,,,1780.113,1780.113,1780.114,1781.832,1,1,right,1.151,,1781.833,1781.834,1,1,,1781.835,1781.836,0,1,,0,1781.836,1781.836,1781.837,1783.317,0,22,22,22,1,0.4,0.6,0.8,0.2,1,0,,,,,,,,,,,,,,,,,,,,,,,,,,,,,,,,,,,,
,,66da1ee997e80ed7628558f3,66daf5b7788896b5b1c3e337,2024-09-06_14h32.38.588,mdp,2024.2.1,Win32,60.09615385,66d7945b1baad48e845df3ce,,,,,,,,,,,,,,,,,,,,,1783.318,1783.318,1783.319,1784.929,0,1,left,1.046,,1784.932,1784.934,1,0,,1784.935,1784.936,0,1,,0,1784.936,1784.936,1784.937,1786.424,0,23,23,23,1,0.2,0.8,0.6,0.4,1,0,,,,,,,,,,,,,,,,,,,,,,,,,,,,,,,,,,,,
,,66da1ee997e80ed7628558f3,66daf5b7788896b5b1c3e337,2024-09-06_14h32.38.588,mdp,2024.2.1,Win32,60.09615385,66d7945b1baad48e845df3ce,,,,,,,,,,,,,,,,,,,,,1786.425,1786.425,1786.426,1787.762,0,1,left,0.799,,1787.763,1787.765,1,1,,1787.766,1787.766,0,1,,0,1787.767,1787.767,1787.768,1789.267,0,24,24,24,1,0.2,0.8,0.6,0.4,1,0,,,,,,,,,,,,,,,,,,,,,,,,,,,,,,,,,,,,
,,66da1ee997e80ed7628558f3,66daf5b7788896b5b1c3e337,2024-09-06_14h32.38.588,mdp,2024.2.1,Win32,60.09615385,66d7945b1baad48e845df3ce,,,,,,,,,,,,,,,,,,,,,1789.267,1789.268,1789.273,1790.37,1,0,right,0.565,,1790.372,1790.373,1,0,,1790.375,1790.375,0,0,,1,1790.375,1790.375,1790.376,1791.852,0,25,25,25,1,0.2,0.8,0.6,0.4,1,0,,,,,,,,,,,,,,,,,,,,,,,,,,,,,,,,,,,,
,,66da1ee997e80ed7628558f3,66daf5b7788896b5b1c3e337,2024-09-06_14h32.38.588,mdp,2024.2.1,Win32,60.09615385,66d7945b1baad48e845df3ce,,,,,,,,,,,,,,,,,,,,,1791.853,1791.853,1791.854,1792.817,1,0,right,0.411,,1792.818,1792.82,1,1,,1792.821,1792.823,0,1,,1,1792.823,1792.823,1792.823,1794.305,0,26,26,26,1,0.2,0.8,0.6,0.4,1,0,,,,,,,,,,,,,,,,,,,,,,,,,,,,,,,,,,,,
,,66da1ee997e80ed7628558f3,66daf5b7788896b5b1c3e337,2024-09-06_14h32.38.588,mdp,2024.2.1,Win32,60.09615385,66d7945b1baad48e845df3ce,,,,,,,,,,,,,,,,,,,,,1794.305,1794.305,1794.307,1795.309,1,1,right,0.44,,1795.311,1795.317,1,1,,1795.318,1795.319,0,1,,0,1795.319,1795.319,1795.32,1796.81,0,27,27,27,1,0.6,0.4,0.4,0.6,1,0,,,,,,,,,,,,,,,,,,,,,,,,,,,,,,,,,,,,
,,66da1ee997e80ed7628558f3,66daf5b7788896b5b1c3e337,2024-09-06_14h32.38.588,mdp,2024.2.1,Win32,60.09615385,66d7945b1baad48e845df3ce,,,,,,,,,,,,,,,,,,,,,1796.814,1796.814,1796.816,1798.525,0,1,left,1.152,,1798.531,1798.533,1,0,,1798.534,1798.535,0,1,,0,1798.535,1798.535,1798.536,1800.028,0,28,28,28,1,0.6,0.4,0.4,0.6,1,0,,,,,,,,,,,,,,,,,,,,,,,,,,,,,,,,,,,,
,,66da1ee997e80ed7628558f3,66daf5b7788896b5b1c3e337,2024-09-06_14h32.38.588,mdp,2024.2.1,Win32,60.09615385,66d7945b1baad48e845df3ce,,,,,,,,,,,,,,,,,,,,,1800.028,1800.028,1800.029,1802.077,1,1,right,1.5,,1802.078,1802.079,1,1,,1802.08,1802.082,0,0,,0,1802.082,1802.082,1802.083,1803.569,0,29,29,29,1,0.6,0.4,0.4,0.6,1,0,,,,,,,,,,,,,,,,,,,,,,,,,,,,,,,,,,,,
,,66da1ee997e80ed7628558f3,66daf5b7788896b5b1c3e337,2024-09-06_14h32.38.588,mdp,2024.2.1,Win32,60.09615385,66d7945b1baad48e845df3ce,,,,,,,,,,,,,,,,,,,,,1803.576,1803.576,1803.581,1804.876,0,0,left,0.742,,1804.879,1804.884,1,1,,1804.886,1804.897,0,1,,1,1804.897,1804.897,1804.902,1806.391,0,30,30,30,1,0.6,0.4,0.4,0.6,1,0,,,,,,,,,,,,,,,,,,,,,,,,,,,,,,,,,,,,
,,66da1ee997e80ed7628558f3,66daf5b7788896b5b1c3e337,2024-09-06_14h32.38.588,mdp,2024.2.1,Win32,60.09615385,66d7945b1baad48e845df3ce,,,,,,,,,,,,,,,,,,,,,1806.392,1806.392,1806.393,1807.149,0,1,left,0.207,,1807.15,1807.154,1,0,,1807.157,1807.159,0,0,,0,1807.159,1807.159,1807.16,1808.628,0,31,31,31,1,0.6,0.4,0.4,0.6,1,0,,,,,,,,,,,,,,,,,,,,,,,,,,,,,,,,,,,,
,,66da1ee997e80ed7628558f3,66daf5b7788896b5b1c3e337,2024-09-06_14h32.38.588,mdp,2024.2.1,Win32,60.09615385,66d7945b1baad48e845df3ce,,,,,,,,,,,,,,,,,,,,,1808.629,1808.629,1808.63,1810.224,0,0,left,1.041,,1810.226,1810.228,1,0,,1810.23,1810.232,0,1,,1,1810.236,1810.236,1810.238,1811.738,0,32,32,32,1,0.6,0.4,0.4,0.6,1,0,,,,,,,,,,,,,,,,,,,,,,,,,,,,,,,,,,,,
,,66da1ee997e80ed7628558f3,66daf5b7788896b5b1c3e337,2024-09-06_14h32.38.588,mdp,2024.2.1,Win32,60.09615385,66d7945b1baad48e845df3ce,,,,,,,,,,,,,,,,,,,,,1811.738,1811.738,1811.739,1812.935,0,0,left,0.651,,1812.938,1812.943,1,1,,1812.945,1812.954,0,0,,1,1812.954,1812.954,1812.956,1814.46,0,33,33,33,1,0.6,0.4,0.4,0.6,1,0,,,,,,,,,,,,,,,,,,,,,,,,,,,,,,,,,,,,
,,66da1ee997e80ed7628558f3,66daf5b7788896b5b1c3e337,2024-09-06_14h32.38.588,mdp,2024.2.1,Win32,60.09615385,66d7945b1baad48e845df3ce,,,,,,,,,,,,,,,,,,,,,1814.461,1814.461,1814.462,1816.385,0,0,left,1.374,,1816.386,1816.388,1,0,,1816.39,1816.391,0,0,,1,1816.391,1816.391,1816.392,1817.875,0,34,34,34,1,0.6,0.4,0.4,0.6,1,0,,,,,,,,,,,,,,,,,,,,,,,,,,,,,,,,,,,,
,,66da1ee997e80ed7628558f3,66daf5b7788896b5b1c3e337,2024-09-06_14h32.38.588,mdp,2024.2.1,Win32,60.09615385,66d7945b1baad48e845df3ce,,,,,,,,,,,,,,,,,,,,,1817.875,1817.875,1817.88,1820.064,1,0,right,1.644,,1820.065,1820.066,1,1,,1820.068,1820.069,0,0,,1,1820.069,1820.069,1820.069,1821.588,0,35,35,35,1,0.2,0.8,0.6,0.4,1,0,,,,,,,,,,,,,,,,,,,,,,,,,,,,,,,,,,,,
,,66da1ee997e80ed7628558f3,66daf5b7788896b5b1c3e337,2024-09-06_14h32.38.588,mdp,2024.2.1,Win32,60.09615385,66d7945b1baad48e845df3ce,,,,,,,,,,,,,,,,,,,,,1821.589,1821.589,1821.594,1822.747,1,1,right,0.612,,1822.748,1822.749,1,0,,1822.751,1822.753,0,1,,0,1822.753,1822.753,1822.754,1824.225,0,36,36,36,1,0.2,0.8,0.6,0.4,1,0,,,,,,,,,,,,,,,,,,,,,,,,,,,,,,,,,,,,
,,66da1ee997e80ed7628558f3,66daf5b7788896b5b1c3e337,2024-09-06_14h32.38.588,mdp,2024.2.1,Win32,60.09615385,66d7945b1baad48e845df3ce,,,,,,,,,,,,,,,,,,,,,1824.226,1824.226,1824.227,1825.275,0,1,left,0.507,,1825.276,1825.278,1,0,,1825.279,1825.28,0,1,,0,1825.28,1825.28,1825.281,1826.756,0,37,37,37,1,0.2,0.8,0.6,0.4,1,0,,,,,,,,,,,,,,,,,,,,,,,,,,,,,,,,,,,,
,,66da1ee997e80ed7628558f3,66daf5b7788896b5b1c3e337,2024-09-06_14h32.38.588,mdp,2024.2.1,Win32,60.09615385,66d7945b1baad48e845df3ce,,,,,,,,,,,,,,,,,,,,,1826.757,1826.757,1826.758,1827.858,0,1,left,0.554,,1827.859,1827.861,1,0,,1827.863,1827.864,0,1,,0,1827.864,1827.864,1827.865,1829.355,0,38,38,38,1,0.2,0.8,0.6,0.4,1,0,,,,,,,,,,,,,,,,,,,,,,,,,,,,,,,,,,,,
,,66da1ee997e80ed7628558f3,66daf5b7788896b5b1c3e337,2024-09-06_14h32.38.588,mdp,2024.2.1,Win32,60.09615385,66d7945b1baad48e845df3ce,,,,,,,,,,,,,,,,,,,,,1829.356,1829.356,1829.357,1830.436,1,0,right,0.52,,1830.438,1830.439,1,1,,1830.44,1830.441,0,0,,1,1830.441,1830.441,1830.442,1831.942,0,39,39,39,1,0.2,0.8,0.6,0.4,1,0,,,,,,,,,,,,,,,,,,,,,,,,,,,,,,,,,,,,
,,66da1ee997e80ed7628558f3,66daf5b7788896b5b1c3e337,2024-09-06_14h32.38.588,mdp,2024.2.1,Win32,60.09615385,66d7945b1baad48e845df3ce,,,,,,,,,,,,,,,,,,,,,1831.943,1831.943,1831.944,1833.117,1,0,right,0.621,,1833.118,1833.12,1,0,,1833.121,1833.122,0,1,,1,1833.122,1833.122,1833.123,1834.616,0,40,40,40,1,0.2,0.8,0.6,0.4,1,0,,,,,,,,,,,,,,,,,,,,,,,,,,,,,,,,,,,,
,,66da1ee997e80ed7628558f3,66daf5b7788896b5b1c3e337,2024-09-06_14h32.38.588,mdp,2024.2.1,Win32,60.09615385,66d7945b1baad48e845df3ce,,,,,,,,,,,,,,,,,,,,,1834.616,1834.616,1834.617,1835.252,1,0,right,0.073,,1835.254,1835.255,1,0,,1835.255,1835.256,0,1,,1,1835.257,1835.257,1835.258,1836.74,0,41,41,41,1,0.2,0.8,0.6,0.4,1,0,,,,,,,,,,,,,,,,,,,,,,,,,,,,,,,,,,,,
,,66da1ee997e80ed7628558f3,66daf5b7788896b5b1c3e337,2024-09-06_14h32.38.588,mdp,2024.2.1,Win32,60.09615385,66d7945b1baad48e845df3ce,,,,,,,,,,,,,,,,,,,,,1836.74,1836.74,1836.742,1838.447,1,0,right,1.162,,1838.45,1838.453,1,0,,1838.455,1838.457,0,0,,1,1838.457,1838.457,1838.46,1839.938,0,42,42,42,1,0.2,0.8,0.6,0.4,1,0,,,,,,,,,,,,,,,,,,,,,,,,,,,,,,,,,,,,
,,66da1ee997e80ed7628558f3,66daf5b7788896b5b1c3e337,2024-09-06_14h32.38.588,mdp,2024.2.1,Win32,60.09615385,66d7945b1baad48e845df3ce,,,,,,,,,,,,,,,,,,,,,1839.946,1839.946,1839.951,1841.538,0,0,left,1.018,,1841.545,1841.549,1,1,,1841.55,1841.552,0,1,,1,1841.552,1841.552,1841.553,1843.036,0,43,43,43,1,0.4,0.6,0.8,0.2,1,0,,,,,,,,,,,,,,,,,,,,,,,,,,,,,,,,,,,,
,,66da1ee997e80ed7628558f3,66daf5b7788896b5b1c3e337,2024-09-06_14h32.38.588,mdp,2024.2.1,Win32,60.09615385,66d7945b1baad48e845df3ce,,,,,,,,,,,,,,,,,,,,,1843.037,1843.037,1843.043,1844.094,0,1,left,0.514,,1844.095,1844.096,1,0,,1844.098,1844.1,0,0,,0,1844.1,1844.1,1844.102,1845.589,0,44,44,44,1,0.4,0.6,0.8,0.2,1,0,,,,,,,,,,,,,,,,,,,,,,,,,,,,,,,,,,,,
,,66da1ee997e80ed7628558f3,66daf5b7788896b5b1c3e337,2024-09-06_14h32.38.588,mdp,2024.2.1,Win32,60.09615385,66d7945b1baad48e845df3ce,,,,,,,,,,,,,,,,,,,,,1845.591,1845.591,1845.595,1846.739,1,1,right,0.576,,1846.741,1846.745,1,1,,1846.746,1846.747,0,0,,0,1846.748,1846.748,1846.749,1848.24,0,45,45,45,1,0.4,0.6,0.8,0.2,1,0,,,,,,,,,,,,,,,,,,,,,,,,,,,,,,,,,,,,
,,66da1ee997e80ed7628558f3,66daf5b7788896b5b1c3e337,2024-09-06_14h32.38.588,mdp,2024.2.1,Win32,60.09615385,66d7945b1baad48e845df3ce,,,,,,,,,,,,,,,,,,,,,1848.241,1848.241,1848.243,1849.246,0,0,left,0.463,,1849.247,1849.254,1,0,,1849.255,1849.256,0,0,,1,1849.256,1849.256,1849.257,1850.738,0,46,46,46,1,0.8,0.2,0.4,0.6,1,0,,,,,,,,,,,,,,,,,,,,,,,,,,,,,,,,,,,,
,,66da1ee997e80ed7628558f3,66daf5b7788896b5b1c3e337,2024-09-06_14h32.38.588,mdp,2024.2.1,Win32,60.09615385,66d7945b1baad48e845df3ce,,,,,,,,,,,,,,,,,,,,,1850.738,1850.738,1850.739,1851.652,0,0,left,0.368,,1851.653,1851.655,1,0,,1851.656,1851.657,0,1,,1,1851.657,1851.657,1851.658,1853.165,0,47,47,47,1,0.8,0.2,0.4,0.6,1,0,,,,,,,,,,,,,,,,,,,,,,,,,,,,,,,,,,,,
,,66da1ee997e80ed7628558f3,66daf5b7788896b5b1c3e337,2024-09-06_14h32.38.588,mdp,2024.2.1,Win32,60.09615385,66d7945b1baad48e845df3ce,,,,,,,,,,,,,,,,,,,,,1853.165,1853.165,1853.166,1853.986,0,1,left,0.287,,1853.988,1853.99,1,1,,1853.991,1853.993,0,0,,0,1853.993,1853.993,1853.994,1855.502,0,48,48,48,1,0.8,0.2,0.4,0.6,1,0,,,,,,,,,,,,,,,,,,,,,,,,,,,,,,,,,,,,
