init_exp.started,init_exp.stopped,participant,session,date,expName,psychopyVersion,OS,frameRate,study_id,disp_instruction.started,disp_instruction.stopped,instruction.thisRepN,instruction.thisTrialN,instruction.thisN,instruction.thisIndex,instruction.ran,instimg_path,consent.started,consent.stopped,key_resp_3.keys,key_resp_3.rt,key_resp_3.duration,n_steps,sequence_path,init_block.started,init_block.stopped,key_resp.keys,key_resp.rt,key_resp.duration,init_trials.started,init_trials.stopped,step0.started,step0.stopped,act0,s1,res0.keys,res0.rt,res0.duration,step1.started,step1.stopped,act1,s2,res1.keys,step2.started,step2.stopped,act2,s3,res2.keys,rew,reward_comp.started,reward_comp.stopped,reward_disp.started,reward_disp.stopped,trials.thisRepN,trials.thisTrialN,trials.thisN,trials.thisIndex,trials.ran,s00a0s10,s00a0s11,s00a1s10,s00a1s11,rew10,rew11,break_block.started,break_block.stopped,block.thisRepN,block.thisTrialN,block.thisN,block.thisIndex,block.ran,s00path,s10path,s11path,s20path,s21path,res1.rt,res1.duration,s10a0s20,s10a0s21,s10a1s20,s10a1s21,s11a0s20,s11a0s21,s11a1s20,s11a1s21,rew20,rew21,res2.rt,res2.duration,s20a0s30,s20a0s31,s20a1s30,s20a1s31,s21a0s30,s21a0s31,s21a1s30,s21a1s31,rew30,rew31
0,0,66ee9fe856b8ab5a2aa44442,66fceb2270d9f9e3077dc964,2024-10-02_08h52.54.550,mdp,2024.2.1,Win32,59.73715651,66fa4ebf79326e780c390304,,,,,,,,,,,,,,,,,,,,,,,,,,,,,,,,,,,,,,,,,,,,,,,,,,,,,,,,,,,,,,,,,,,,,,,,,,,,,,,,,,,,,,,,,,,
,,66ee9fe856b8ab5a2aa44442,66fceb2270d9f9e3077dc964,2024-10-02_08h52.54.550,mdp,2024.2.1,Win32,59.73715651,66fa4ebf79326e780c390304,0.001,25.145,0,0,0,0,1,rlnn_exp/rlnn_exp.001.png,,,,,,,,,,,,,,,,,,,,,,,,,,,,,,,,,,,,,,,,,,,,,,,,,,,,,,,,,,,,,,,,,,,,,,,,,,,,,,,,,,,
,,66ee9fe856b8ab5a2aa44442,66fceb2270d9f9e3077dc964,2024-10-02_08h52.54.550,mdp,2024.2.1,Win32,59.73715651,66fa4ebf79326e780c390304,25.148,60.43,0,1,1,1,1,rlnn_exp/rlnn_exp.002.png,,,,,,,,,,,,,,,,,,,,,,,,,,,,,,,,,,,,,,,,,,,,,,,,,,,,,,,,,,,,,,,,,,,,,,,,,,,,,,,,,,,
,,66ee9fe856b8ab5a2aa44442,66fceb2270d9f9e3077dc964,2024-10-02_08h52.54.550,mdp,2024.2.1,Win32,59.73715651,66fa4ebf79326e780c390304,60.433,90.221,0,2,2,2,1,rlnn_exp/rlnn_exp.003.png,,,,,,,,,,,,,,,,,,,,,,,,,,,,,,,,,,,,,,,,,,,,,,,,,,,,,,,,,,,,,,,,,,,,,,,,,,,,,,,,,,,
,,66ee9fe856b8ab5a2aa44442,66fceb2270d9f9e3077dc964,2024-10-02_08h52.54.550,mdp,2024.2.1,Win32,59.73715651,66fa4ebf79326e780c390304,90.223,103.01,0,3,3,3,1,rlnn_exp/rlnn_exp.004.png,,,,,,,,,,,,,,,,,,,,,,,,,,,,,,,,,,,,,,,,,,,,,,,,,,,,,,,,,,,,,,,,,,,,,,,,,,,,,,,,,,,
,,66ee9fe856b8ab5a2aa44442,66fceb2270d9f9e3077dc964,2024-10-02_08h52.54.550,mdp,2024.2.1,Win32,59.73715651,66fa4ebf79326e780c390304,,,,,,,,,103.01,141.782,y,28.746,,,,,,,,,,,,,,,,,,,,,,,,,,,,,,,,,,,,,,,,,,,,,,,,,,,,,,,,,,,,,,,,,,,,,,,,,,,,,,,
,,66ee9fe856b8ab5a2aa44442,66fceb2270d9f9e3077dc964,2024-10-02_08h52.54.550,mdp,2024.2.1,Win32,59.73715651,66fa4ebf79326e780c390304,,,,,,,,,,,,,,1,seqs/st1seq48.csv,141.786,145.062,space,2.749,,145.066,145.066,145.066,254.296,0,1,left,108.701,,254.299,254.302,,1,,254.303,254.305,,1,,0,254.305,254.305,254.305,255.795,0,0,0,0,1,0.2,0.8,0.8,0.2,1,0,,,,,,,,,,,,,,,,,,,,,,,,,,,,,,,,,,,,
,,66ee9fe856b8ab5a2aa44442,66fceb2270d9f9e3077dc964,2024-10-02_08h52.54.550,mdp,2024.2.1,Win32,59.73715651,66fa4ebf79326e780c390304,,,,,,,,,,,,,,,,,,,,,255.795,255.795,255.796,260.407,1,1,right,4.081,,260.41,260.413,,0,,260.415,260.417,,0,,0,260.417,260.417,260.418,261.906,0,1,1,1,1,0.2,0.8,0.8,0.2,1,0,,,,,,,,,,,,,,,,,,,,,,,,,,,,,,,,,,,,
,,66ee9fe856b8ab5a2aa44442,66fceb2270d9f9e3077dc964,2024-10-02_08h52.54.550,mdp,2024.2.1,Win32,59.73715651,66fa4ebf79326e780c390304,,,,,,,,,,,,,,,,,,,,,261.907,261.907,261.909,265.603,1,1,right,3.164,,265.605,265.607,,1,,265.607,265.609,,0,,0,265.609,265.609,265.611,267.101,0,2,2,2,1,0.8,0.2,0.6,0.4,1,0,,,,,,,,,,,,,,,,,,,,,,,,,,,,,,,,,,,,
,,66ee9fe856b8ab5a2aa44442,66fceb2270d9f9e3077dc964,2024-10-02_08h52.54.550,mdp,2024.2.1,Win32,59.73715651,66fa4ebf79326e780c390304,,,,,,,,,,,,,,,,,,,,,267.101,267.102,267.103,268.966,0,1,left,1.334,,268.968,268.971,,0,,268.972,268.973,,1,,0,268.973,268.973,268.973,270.465,0,3,3,3,1,0.8,0.2,0.6,0.4,1,0,,,,,,,,,,,,,,,,,,,,,,,,,,,,,,,,,,,,
,,66ee9fe856b8ab5a2aa44442,66fceb2270d9f9e3077dc964,2024-10-02_08h52.54.550,mdp,2024.2.1,Win32,59.73715651,66fa4ebf79326e780c390304,,,,,,,,,,,,,,,,,,,,,270.466,270.466,270.466,271.946,0,0,left,0.954,,271.947,271.95,,0,,271.95,271.95,,0,,1,271.95,271.95,271.951,273.445,0,4,4,4,1,0.8,0.2,0.6,0.4,1,0,,,,,,,,,,,,,,,,,,,,,,,,,,,,,,,,,,,,
,,66ee9fe856b8ab5a2aa44442,66fceb2270d9f9e3077dc964,2024-10-02_08h52.54.550,mdp,2024.2.1,Win32,59.73715651,66fa4ebf79326e780c390304,,,,,,,,,,,,,,,,,,,,,273.446,273.446,273.448,274.695,0,1,left,0.716,,274.696,274.698,,1,,274.699,274.699,,0,,0,274.699,274.699,274.7,276.193,0,5,5,5,1,0.8,0.2,0.6,0.4,1,0,,,,,,,,,,,,,,,,,,,,,,,,,,,,,,,,,,,,
,,66ee9fe856b8ab5a2aa44442,66fceb2270d9f9e3077dc964,2024-10-02_08h52.54.550,mdp,2024.2.1,Win32,59.73715651,66fa4ebf79326e780c390304,,,,,,,,,,,,,,,,,,,,,276.194,276.194,276.196,278.441,1,0,right,1.726,,278.442,278.444,,0,,278.445,278.445,,0,,1,278.445,278.445,278.446,279.94,0,6,6,6,1,0.8,0.2,0.6,0.4,1,0,,,,,,,,,,,,,,,,,,,,,,,,,,,,,,,,,,,,
,,66ee9fe856b8ab5a2aa44442,66fceb2270d9f9e3077dc964,2024-10-02_08h52.54.550,mdp,2024.2.1,Win32,59.73715651,66fa4ebf79326e780c390304,,,,,,,,,,,,,,,,,,,,,279.94,279.94,279.941,281.338,0,0,left,0.873,,281.34,281.341,,0,,281.343,281.343,,0,,1,281.343,281.343,281.343,282.837,0,7,7,7,1,0.8,0.2,0.6,0.4,1,0,,,,,,,,,,,,,,,,,,,,,,,,,,,,,,,,,,,,
,,66ee9fe856b8ab5a2aa44442,66fceb2270d9f9e3077dc964,2024-10-02_08h52.54.550,mdp,2024.2.1,Win32,59.73715651,66fa4ebf79326e780c390304,,,,,,,,,,,,,,,,,,,,,282.838,282.838,282.839,284.12,1,0,right,0.753,,284.12,284.122,,0,,284.122,284.123,,0,,1,284.123,284.123,284.124,285.618,0,8,8,8,1,0.2,0.8,0.8,0.2,1,0,,,,,,,,,,,,,,,,,,,,,,,,,,,,,,,,,,,,
,,66ee9fe856b8ab5a2aa44442,66fceb2270d9f9e3077dc964,2024-10-02_08h52.54.550,mdp,2024.2.1,Win32,59.73715651,66fa4ebf79326e780c390304,,,,,,,,,,,,,,,,,,,,,285.623,285.623,285.625,286.768,0,1,left,0.616,,286.769,286.772,,1,,286.773,286.773,,1,,0,286.773,286.773,286.773,288.266,0,9,9,9,1,0.2,0.8,0.8,0.2,1,0,,,,,,,,,,,,,,,,,,,,,,,,,,,,,,,,,,,,
,,66ee9fe856b8ab5a2aa44442,66fceb2270d9f9e3077dc964,2024-10-02_08h52.54.550,mdp,2024.2.1,Win32,59.73715651,66fa4ebf79326e780c390304,,,,,,,,,,,,,,,,,,,,,288.266,288.266,288.268,289.681,0,1,left,0.902,,289.683,289.686,,0,,289.687,289.688,,1,,0,289.688,289.688,289.688,291.18,0,10,10,10,1,0.2,0.8,0.8,0.2,1,0,,,,,,,,,,,,,,,,,,,,,,,,,,,,,,,,,,,,
,,66ee9fe856b8ab5a2aa44442,66fceb2270d9f9e3077dc964,2024-10-02_08h52.54.550,mdp,2024.2.1,Win32,59.73715651,66fa4ebf79326e780c390304,,,,,,,,,,,,,,,,,,,,,291.18,291.18,291.182,291.996,1,0,right,0.285,,291.997,292,,0,,292.001,292.001,,1,,1,292.001,292.001,292.002,293.495,0,11,11,11,1,0.8,0.2,0.6,0.4,1,0,,,,,,,,,,,,,,,,,,,,,,,,,,,,,,,,,,,,
,,66ee9fe856b8ab5a2aa44442,66fceb2270d9f9e3077dc964,2024-10-02_08h52.54.550,mdp,2024.2.1,Win32,59.73715651,66fa4ebf79326e780c390304,,,,,,,,,,,,,,,,,,,,,293.496,293.496,293.497,294.66,1,1,right,0.636,,294.661,294.662,,1,,294.665,294.665,,1,,0,294.665,294.665,294.666,296.159,0,12,12,12,1,0.8,0.2,0.6,0.4,1,0,,,,,,,,,,,,,,,,,,,,,,,,,,,,,,,,,,,,
,,66ee9fe856b8ab5a2aa44442,66fceb2270d9f9e3077dc964,2024-10-02_08h52.54.550,mdp,2024.2.1,Win32,59.73715651,66fa4ebf79326e780c390304,,,,,,,,,,,,,,,,,,,,,296.16,296.16,296.16,298.107,0,1,left,1.419,,298.108,298.11,,1,,298.111,298.112,,1,,0,298.112,298.112,298.113,299.606,0,13,13,13,1,0.6,0.4,0.8,0.2,1,0,,,,,,,,,,,,,,,,,,,,,,,,,,,,,,,,,,,,
,,66ee9fe856b8ab5a2aa44442,66fceb2270d9f9e3077dc964,2024-10-02_08h52.54.550,mdp,2024.2.1,Win32,59.73715651,66fa4ebf79326e780c390304,,,,,,,,,,,,,,,,,,,,,299.607,299.607,299.608,300.705,1,1,right,0.567,,300.705,300.707,,0,,300.709,300.709,,0,,0,300.709,300.709,300.71,302.204,0,14,14,14,1,0.6,0.4,0.8,0.2,1,0,,,,,,,,,,,,,,,,,,,,,,,,,,,,,,,,,,,,
,,66ee9fe856b8ab5a2aa44442,66fceb2270d9f9e3077dc964,2024-10-02_08h52.54.550,mdp,2024.2.1,Win32,59.73715651,66fa4ebf79326e780c390304,,,,,,,,,,,,,,,,,,,,,302.205,302.205,302.206,412.38,1,0,right,109.654,,412.385,412.385,,0,,412.386,412.387,,0,,1,412.387,412.387,412.387,413.876,0,15,15,15,1,0.8,0.2,0.4,0.6,1,0,,,,,,,,,,,,,,,,,,,,,,,,,,,,,,,,,,,,
,,66ee9fe856b8ab5a2aa44442,66fceb2270d9f9e3077dc964,2024-10-02_08h52.54.550,mdp,2024.2.1,Win32,59.73715651,66fa4ebf79326e780c390304,,,,,,,,,,,,,,,,,,,,,413.877,413.877,413.88,415.259,1,0,right,0.849,,415.26,415.262,,0,,415.264,415.265,,0,,1,415.265,415.265,415.265,416.758,0,16,16,16,1,0.8,0.2,0.4,0.6,1,0,,,,,,,,,,,,,,,,,,,,,,,,,,,,,,,,,,,,
,,66ee9fe856b8ab5a2aa44442,66fceb2270d9f9e3077dc964,2024-10-02_08h52.54.550,mdp,2024.2.1,Win32,59.73715651,66fa4ebf79326e780c390304,,,,,,,,,,,,,,,,,,,,,416.758,416.758,416.759,418.023,0,0,left,0.735,,418.024,418.026,,1,,418.027,418.029,,1,,1,418.029,418.029,418.03,419.522,0,17,17,17,1,0.4,0.6,0.8,0.2,1,0,,,,,,,,,,,,,,,,,,,,,,,,,,,,,,,,,,,,
,,66ee9fe856b8ab5a2aa44442,66fceb2270d9f9e3077dc964,2024-10-02_08h52.54.550,mdp,2024.2.1,Win32,59.73715651,66fa4ebf79326e780c390304,,,,,,,,,,,,,,,,,,,,,419.523,419.523,419.523,420.554,1,0,right,0.505,,420.555,420.557,,1,,420.558,420.559,,0,,1,420.559,420.559,420.56,422.053,0,18,18,18,1,0.6,0.4,0.4,0.6,1,0,,,,,,,,,,,,,,,,,,,,,,,,,,,,,,,,,,,,
,,66ee9fe856b8ab5a2aa44442,66fceb2270d9f9e3077dc964,2024-10-02_08h52.54.550,mdp,2024.2.1,Win32,59.73715651,66fa4ebf79326e780c390304,,,,,,,,,,,,,,,,,,,,,422.054,422.054,422.056,423.785,1,0,right,1.21,,423.785,423.787,,1,,423.787,423.788,,1,,1,423.788,423.788,423.79,425.284,0,19,19,19,1,0.6,0.4,0.4,0.6,1,0,,,,,,,,,,,,,,,,,,,,,,,,,,,,,,,,,,,,
,,66ee9fe856b8ab5a2aa44442,66fceb2270d9f9e3077dc964,2024-10-02_08h52.54.550,mdp,2024.2.1,Win32,59.73715651,66fa4ebf79326e780c390304,,,,,,,,,,,,,,,,,,,,,425.284,425.284,425.285,428.48,0,1,left,2.665,,428.482,428.483,,1,,428.484,428.485,,0,,0,428.485,428.485,428.486,429.979,0,20,20,20,1,0.6,0.4,0.4,0.6,1,0,,,,,,,,,,,,,,,,,,,,,,,,,,,,,,,,,,,,
,,66ee9fe856b8ab5a2aa44442,66fceb2270d9f9e3077dc964,2024-10-02_08h52.54.550,mdp,2024.2.1,Win32,59.73715651,66fa4ebf79326e780c390304,,,,,,,,,,,,,,,,,,,,,429.98,429.98,429.981,449.396,0,0,left,18.889,,449.401,449.404,,1,,449.404,449.405,,0,,1,449.405,449.405,449.405,450.895,0,21,21,21,1,0.6,0.4,0.4,0.6,1,0,,,,,,,,,,,,,,,,,,,,,,,,,,,,,,,,,,,,
,,66ee9fe856b8ab5a2aa44442,66fceb2270d9f9e3077dc964,2024-10-02_08h52.54.550,mdp,2024.2.1,Win32,59.73715651,66fa4ebf79326e780c390304,,,,,,,,,,,,,,,,,,,,,450.896,450.896,450.897,455.84,1,1,right,4.411,,455.842,455.846,,0,,455.847,455.847,,0,,0,455.847,455.847,455.847,457.338,0,22,22,22,1,0.6,0.4,0.4,0.6,1,0,,,,,,,,,,,,,,,,,,,,,,,,,,,,,,,,,,,,
,,66ee9fe856b8ab5a2aa44442,66fceb2270d9f9e3077dc964,2024-10-02_08h52.54.550,mdp,2024.2.1,Win32,59.73715651,66fa4ebf79326e780c390304,,,,,,,,,,,,,,,,,,,,,457.339,457.339,457.34,485.931,1,0,right,28.077,,485.936,485.937,,0,,485.937,485.938,,0,,1,485.938,485.938,485.939,487.43,0,23,23,23,1,0.6,0.4,0.4,0.6,1,0,,,,,,,,,,,,,,,,,,,,,,,,,,,,,,,,,,,,
,,66ee9fe856b8ab5a2aa44442,66fceb2270d9f9e3077dc964,2024-10-02_08h52.54.550,mdp,2024.2.1,Win32,59.73715651,66fa4ebf79326e780c390304,,,,,,,,,,,,,,,,,,,,,487.431,487.431,487.431,491.509,1,0,right,3.546,,491.511,491.512,,0,,491.513,491.513,,0,,1,491.513,491.513,491.514,493.008,0,24,24,24,1,0.6,0.4,0.4,0.6,1,0,,,,,,,,,,,,,,,,,,,,,,,,,,,,,,,,,,,,
,,66ee9fe856b8ab5a2aa44442,66fceb2270d9f9e3077dc964,2024-10-02_08h52.54.550,mdp,2024.2.1,Win32,59.73715651,66fa4ebf79326e780c390304,,,,,,,,,,,,,,,,,,,,,493.008,493.008,493.01,493.99,0,0,left,0.454,,493.992,493.993,,1,,493.993,493.997,,0,,1,493.997,493.997,493.997,495.489,0,25,25,25,1,0.6,0.4,0.4,0.6,1,0,,,,,,,,,,,,,,,,,,,,,,,,,,,,,,,,,,,,
,,66ee9fe856b8ab5a2aa44442,66fceb2270d9f9e3077dc964,2024-10-02_08h52.54.550,mdp,2024.2.1,Win32,59.73715651,66fa4ebf79326e780c390304,,,,,,,,,,,,,,,,,,,,,495.489,495.489,495.49,497.27,1,1,right,1.258,,497.272,497.274,,0,,497.275,497.275,,1,,0,497.275,497.275,497.276,498.769,0,26,26,26,1,0.6,0.4,0.4,0.6,1,0,,,,,,,,,,,,,,,,,,,,,,,,,,,,,,,,,,,,
,,66ee9fe856b8ab5a2aa44442,66fceb2270d9f9e3077dc964,2024-10-02_08h52.54.550,mdp,2024.2.1,Win32,59.73715651,66fa4ebf79326e780c390304,,,,,,,,,,,,,,,,,,,,,498.77,498.77,498.771,499.918,1,0,right,0.625,,499.919,499.921,,0,,499.921,499.922,,0,,1,499.922,499.922,499.923,501.417,0,27,27,27,1,0.6,0.4,0.4,0.6,1,0,,,,,,,,,,,,,,,,,,,,,,,,,,,,,,,,,,,,
,,66ee9fe856b8ab5a2aa44442,66fceb2270d9f9e3077dc964,2024-10-02_08h52.54.550,mdp,2024.2.1,Win32,59.73715651,66fa4ebf79326e780c390304,,,,,,,,,,,,,,,,,,,,,501.417,501.417,501.418,503.648,0,0,left,1.718,,503.649,503.651,,1,,503.651,503.651,,0,,1,503.651,503.651,503.652,505.147,0,28,28,28,1,0.6,0.4,0.4,0.6,1,0,,,,,,,,,,,,,,,,,,,,,,,,,,,,,,,,,,,,
,,66ee9fe856b8ab5a2aa44442,66fceb2270d9f9e3077dc964,2024-10-02_08h52.54.550,mdp,2024.2.1,Win32,59.73715651,66fa4ebf79326e780c390304,,,,,,,,,,,,,,,,,,,,,505.147,505.147,505.149,506.862,0,0,left,1.208,,506.863,506.864,,1,,506.865,506.865,,1,,1,506.865,506.865,506.865,508.361,0,29,29,29,1,0.6,0.4,0.4,0.6,1,0,,,,,,,,,,,,,,,,,,,,,,,,,,,,,,,,,,,,
,,66ee9fe856b8ab5a2aa44442,66fceb2270d9f9e3077dc964,2024-10-02_08h52.54.550,mdp,2024.2.1,Win32,59.73715651,66fa4ebf79326e780c390304,,,,,,,,,,,,,,,,,,,,,508.362,508.362,508.363,509.41,1,1,right,0.52,,509.415,509.417,,1,,509.417,509.417,,1,,0,509.417,509.417,509.417,510.908,0,30,30,30,1,0.6,0.4,0.4,0.6,1,0,,,,,,,,,,,,,,,,,,,,,,,,,,,,,,,,,,,,
,,66ee9fe856b8ab5a2aa44442,66fceb2270d9f9e3077dc964,2024-10-02_08h52.54.550,mdp,2024.2.1,Win32,59.73715651,66fa4ebf79326e780c390304,,,,,,,,,,,,,,,,,,,,,510.909,510.909,510.911,512.125,1,1,right,0.684,,512.126,512.128,,1,,512.13,512.131,,1,,0,512.131,512.131,512.131,513.623,0,31,31,31,1,0.6,0.4,0.4,0.6,1,0,,,,,,,,,,,,,,,,,,,,,,,,,,,,,,,,,,,,
,,66ee9fe856b8ab5a2aa44442,66fceb2270d9f9e3077dc964,2024-10-02_08h52.54.550,mdp,2024.2.1,Win32,59.73715651,66fa4ebf79326e780c390304,,,,,,,,,,,,,,,,,,,,,513.624,513.624,513.624,514.622,0,1,left,0.476,,514.623,514.624,,1,,514.624,514.628,,0,,0,514.628,514.628,514.628,516.121,0,32,32,32,1,0.6,0.4,0.4,0.6,1,0,,,,,,,,,,,,,,,,,,,,,,,,,,,,,,,,,,,,
,,66ee9fe856b8ab5a2aa44442,66fceb2270d9f9e3077dc964,2024-10-02_08h52.54.550,mdp,2024.2.1,Win32,59.73715651,66fa4ebf79326e780c390304,,,,,,,,,,,,,,,,,,,,,516.122,516.122,516.124,517.636,1,0,right,0.989,,517.637,517.639,,0,,517.639,517.64,,0,,1,517.64,517.64,517.641,519.135,0,33,33,33,1,0.6,0.4,0.4,0.6,1,0,,,,,,,,,,,,,,,,,,,,,,,,,,,,,,,,,,,,
,,66ee9fe856b8ab5a2aa44442,66fceb2270d9f9e3077dc964,2024-10-02_08h52.54.550,mdp,2024.2.1,Win32,59.73715651,66fa4ebf79326e780c390304,,,,,,,,,,,,,,,,,,,,,519.136,519.136,519.137,520.117,1,0,right,0.457,,520.117,520.119,,1,,520.12,520.12,,1,,1,520.12,520.12,520.121,521.616,0,34,34,34,1,0.8,0.2,0.2,0.8,1,0,,,,,,,,,,,,,,,,,,,,,,,,,,,,,,,,,,,,
,,66ee9fe856b8ab5a2aa44442,66fceb2270d9f9e3077dc964,2024-10-02_08h52.54.550,mdp,2024.2.1,Win32,59.73715651,66fa4ebf79326e780c390304,,,,,,,,,,,,,,,,,,,,,521.616,521.616,521.618,522.565,0,0,left,0.436,,522.566,522.567,,1,,522.569,522.569,,1,,1,522.57,522.57,522.571,524.064,0,35,35,35,1,0.4,0.6,0.6,0.4,1,0,,,,,,,,,,,,,,,,,,,,,,,,,,,,,,,,,,,,
,,66ee9fe856b8ab5a2aa44442,66fceb2270d9f9e3077dc964,2024-10-02_08h52.54.550,mdp,2024.2.1,Win32,59.73715651,66fa4ebf79326e780c390304,,,,,,,,,,,,,,,,,,,,,524.064,524.064,524.065,530.707,1,0,right,6.12,,530.709,530.71,,0,,530.711,530.712,,0,,1,530.712,530.712,530.712,532.207,0,36,36,36,1,0.4,0.6,0.6,0.4,1,0,,,,,,,,,,,,,,,,,,,,,,,,,,,,,,,,,,,,
,,66ee9fe856b8ab5a2aa44442,66fceb2270d9f9e3077dc964,2024-10-02_08h52.54.550,mdp,2024.2.1,Win32,59.73715651,66fa4ebf79326e780c390304,,,,,,,,,,,,,,,,,,,,,532.207,532.207,532.208,533.823,0,1,left,1.081,,533.825,533.827,,1,,533.829,533.832,,0,,0,533.832,533.832,533.833,535.32,0,37,37,37,1,0.4,0.6,0.6,0.4,1,0,,,,,,,,,,,,,,,,,,,,,,,,,,,,,,,,,,,,
,,66ee9fe856b8ab5a2aa44442,66fceb2270d9f9e3077dc964,2024-10-02_08h52.54.550,mdp,2024.2.1,Win32,59.73715651,66fa4ebf79326e780c390304,,,,,,,,,,,,,,,,,,,,,535.321,535.321,535.321,536.703,1,1,right,0.858,,536.705,536.706,,0,,536.707,536.71,,1,,0,536.71,536.71,536.71,538.202,0,38,38,38,1,0.4,0.6,0.6,0.4,1,0,,,,,,,,,,,,,,,,,,,,,,,,,,,,,,,,,,,,
,,66ee9fe856b8ab5a2aa44442,66fceb2270d9f9e3077dc964,2024-10-02_08h52.54.550,mdp,2024.2.1,Win32,59.73715651,66fa4ebf79326e780c390304,,,,,,,,,,,,,,,,,,,,,538.203,538.203,538.204,539.65,1,0,right,0.917,,539.651,539.653,,0,,539.653,539.654,,0,,1,539.654,539.654,539.657,541.149,0,39,39,39,1,0.4,0.6,0.6,0.4,1,0,,,,,,,,,,,,,,,,,,,,,,,,,,,,,,,,,,,,
,,66ee9fe856b8ab5a2aa44442,66fceb2270d9f9e3077dc964,2024-10-02_08h52.54.550,mdp,2024.2.1,Win32,59.73715651,66fa4ebf79326e780c390304,,,,,,,,,,,,,,,,,,,,,541.149,541.149,541.15,542.882,0,1,left,1.204,,542.887,542.888,,0,,542.889,542.89,,1,,0,542.89,542.89,542.89,544.379,0,40,40,40,1,0.4,0.6,0.6,0.4,1,0,,,,,,,,,,,,,,,,,,,,,,,,,,,,,,,,,,,,
,,66ee9fe856b8ab5a2aa44442,66fceb2270d9f9e3077dc964,2024-10-02_08h52.54.550,mdp,2024.2.1,Win32,59.73715651,66fa4ebf79326e780c390304,,,,,,,,,,,,,,,,,,,,,544.38,544.38,544.381,547.96,1,0,right,3.048,,547.961,547.964,,0,,547.964,547.967,,1,,1,547.967,547.967,547.967,549.458,0,41,41,41,1,0.4,0.6,0.6,0.4,1,0,,,,,,,,,,,,,,,,,,,,,,,,,,,,,,,,,,,,
,,66ee9fe856b8ab5a2aa44442,66fceb2270d9f9e3077dc964,2024-10-02_08h52.54.550,mdp,2024.2.1,Win32,59.73715651,66fa4ebf79326e780c390304,,,,,,,,,,,,,,,,,,,,,549.459,549.459,549.46,572.206,1,0,right,22.217,,572.207,572.209,,1,,572.21,572.211,,1,,1,572.211,572.211,572.212,573.704,0,42,42,42,1,0.4,0.6,0.6,0.4,1,0,,,,,,,,,,,,,,,,,,,,,,,,,,,,,,,,,,,,
,,66ee9fe856b8ab5a2aa44442,66fceb2270d9f9e3077dc964,2024-10-02_08h52.54.550,mdp,2024.2.1,Win32,59.73715651,66fa4ebf79326e780c390304,,,,,,,,,,,,,,,,,,,,,573.705,573.705,573.706,575.835,0,1,left,1.605,,575.841,575.842,,0,,575.843,575.843,,0,,0,575.843,575.843,575.844,577.334,0,43,43,43,1,0.4,0.6,0.6,0.4,1,0,,,,,,,,,,,,,,,,,,,,,,,,,,,,,,,,,,,,
,,66ee9fe856b8ab5a2aa44442,66fceb2270d9f9e3077dc964,2024-10-02_08h52.54.550,mdp,2024.2.1,Win32,59.73715651,66fa4ebf79326e780c390304,,,,,,,,,,,,,,,,,,,,,577.335,577.335,577.336,578.567,0,0,left,0.701,,578.567,578.57,,1,,578.571,578.573,,1,,1,578.573,578.573,578.574,580.065,0,44,44,44,1,0.4,0.6,0.6,0.4,1,0,,,,,,,,,,,,,,,,,,,,,,,,,,,,,,,,,,,,
,,66ee9fe856b8ab5a2aa44442,66fceb2270d9f9e3077dc964,2024-10-02_08h52.54.550,mdp,2024.2.1,Win32,59.73715651,66fa4ebf79326e780c390304,,,,,,,,,,,,,,,,,,,,,580.065,580.065,580.066,581.081,1,0,right,0.49,,581.082,581.084,,0,,581.085,581.088,,1,,1,581.088,581.088,581.089,582.58,0,45,45,45,1,0.4,0.6,0.6,0.4,1,0,,,,,,,,,,,,,,,,,,,,,,,,,,,,,,,,,,,,
,,66ee9fe856b8ab5a2aa44442,66fceb2270d9f9e3077dc964,2024-10-02_08h52.54.550,mdp,2024.2.1,Win32,59.73715651,66fa4ebf79326e780c390304,,,,,,,,,,,,,,,,,,,,,582.581,582.581,582.583,583.696,1,1,right,0.585,,583.696,583.698,,0,,583.699,583.702,,1,,0,583.702,583.702,583.703,585.194,0,46,46,46,1,0.4,0.6,0.6,0.4,1,0,,,,,,,,,,,,,,,,,,,,,,,,,,,,,,,,,,,,
,,66ee9fe856b8ab5a2aa44442,66fceb2270d9f9e3077dc964,2024-10-02_08h52.54.550,mdp,2024.2.1,Win32,59.73715651,66fa4ebf79326e780c390304,,,,,,,,,,,,,,,,,,,,,585.195,585.195,585.196,586.376,1,0,right,0.646,,586.378,586.38,,1,,586.381,586.382,,1,,1,586.382,586.382,586.383,587.875,0,47,47,47,1,0.4,0.6,0.6,0.4,1,0,,,,,,,,,,,,,,,,,,,,,,,,,,,,,,,,,,,,
,,66ee9fe856b8ab5a2aa44442,66fceb2270d9f9e3077dc964,2024-10-02_08h52.54.550,mdp,2024.2.1,Win32,59.73715651,66fa4ebf79326e780c390304,,,,,,,,,,,,,,,,,,,,,587.875,587.875,587.876,589.34,1,1,right,0.938,,589.341,589.343,,0,,589.344,589.345,,1,,0,589.345,589.345,589.347,590.839,0,48,48,48,1,0.4,0.6,0.6,0.4,1,0,,,,,,,,,,,,,,,,,,,,,,,,,,,,,,,,,,,,
,,66ee9fe856b8ab5a2aa44442,66fceb2270d9f9e3077dc964,2024-10-02_08h52.54.550,mdp,2024.2.1,Win32,59.73715651,66fa4ebf79326e780c390304,,,,,,,,,,,,,,,,,,,,,590.839,590.839,590.841,591.738,0,0,left,0.374,,591.739,591.74,,0,,591.741,591.742,,1,,1,591.742,591.742,591.742,593.237,0,49,49,49,1,0.4,0.6,0.6,0.4,1,0,,,,,,,,,,,,,,,,,,,,,,,,,,,,,,,,,,,,
,,66ee9fe856b8ab5a2aa44442,66fceb2270d9f9e3077dc964,2024-10-02_08h52.54.550,mdp,2024.2.1,Win32,59.73715651,66fa4ebf79326e780c390304,,,,,,,,,,,,,,,,,,,,,,,,,,,,,,,,,,,,,,,,,,,,,,,,,,,,,,,,593.237,653.669,0,0,0,0,1,imgs/kangaroo.png,imgs/giraffe.png,imgs/pig.png,imgs/lion.png,imgs/cat.png,,,,,,,,,,,,,,,,,,,,,,,,
,,66ee9fe856b8ab5a2aa44442,66fceb2270d9f9e3077dc964,2024-10-02_08h52.54.550,mdp,2024.2.1,Win32,59.73715651,66fa4ebf79326e780c390304,,,,,,,,,,,,,,2,seqs/st2seq43.csv,653.68,662.51,space,2.925,,662.517,662.517,662.518,669.703,0,0,left,6.659,,669.705,680.727,0,0,left,680.729,680.732,,1,,1,680.732,680.732,680.733,682.226,0,0,0,0,1,0.8,0.2,0.2,0.8,,,,,,,,,,,,,,,10.492,,0.4,0.6,0.8,0.2,0.4,0.6,0.2,0.8,1,0,,,,,,,,,,,,
,,66ee9fe856b8ab5a2aa44442,66fceb2270d9f9e3077dc964,2024-10-02_08h52.54.550,mdp,2024.2.1,Win32,59.73715651,66fa4ebf79326e780c390304,,,,,,,,,,,,,,,,,,,,,682.227,682.227,682.229,703.624,1,1,right,20.874,,703.628,707.32,0,0,left,707.323,707.327,,0,,1,707.327,707.328,707.329,708.82,0,1,1,1,1,0.8,0.2,0.2,0.8,,,,,,,,,,,,,,,3.161,,0.4,0.6,0.8,0.2,0.4,0.6,0.2,0.8,1,0,,,,,,,,,,,,
,,66ee9fe856b8ab5a2aa44442,66fceb2270d9f9e3077dc964,2024-10-02_08h52.54.550,mdp,2024.2.1,Win32,59.73715651,66fa4ebf79326e780c390304,,,,,,,,,,,,,,,,,,,,,708.822,708.822,708.823,720.742,1,1,right,11.395,,720.744,721.957,1,0,right,721.96,721.961,,1,,1,721.961,721.961,721.963,723.456,0,2,2,2,1,0.8,0.2,0.2,0.8,,,,,,,,,,,,,,,0.69,,0.4,0.6,0.8,0.2,0.4,0.6,0.2,0.8,1,0,,,,,,,,,,,,
,,66ee9fe856b8ab5a2aa44442,66fceb2270d9f9e3077dc964,2024-10-02_08h52.54.550,mdp,2024.2.1,Win32,59.73715651,66fa4ebf79326e780c390304,,,,,,,,,,,,,,,,,,,,,723.457,723.457,723.458,726.755,0,1,left,2.765,,726.76,729.317,1,1,right,729.319,729.321,,1,,0,729.321,729.321,729.323,730.817,0,3,3,3,1,0.8,0.2,0.2,0.8,,,,,,,,,,,,,,,2.037,,0.4,0.6,0.8,0.2,0.4,0.6,0.2,0.8,1,0,,,,,,,,,,,,
,,66ee9fe856b8ab5a2aa44442,66fceb2270d9f9e3077dc964,2024-10-02_08h52.54.550,mdp,2024.2.1,Win32,59.73715651,66fa4ebf79326e780c390304,,,,,,,,,,,,,,,,,,,,,730.818,730.818,730.82,735.28,0,0,left,3.934,,735.281,737.727,0,1,left,737.728,737.73,,1,,0,737.73,737.73,737.732,739.226,0,4,4,4,1,0.8,0.2,0.2,0.8,,,,,,,,,,,,,,,1.919,,0.4,0.6,0.8,0.2,0.4,0.6,0.2,0.8,1,0,,,,,,,,,,,,
,,66ee9fe856b8ab5a2aa44442,66fceb2270d9f9e3077dc964,2024-10-02_08h52.54.550,mdp,2024.2.1,Win32,59.73715651,66fa4ebf79326e780c390304,,,,,,,,,,,,,,,,,,,,,739.227,739.227,739.228,764.387,1,1,right,24.633,,764.393,766.668,1,1,right,766.67,766.671,,0,,0,766.671,766.671,766.673,768.167,0,5,5,5,1,0.8,0.2,0.2,0.8,,,,,,,,,,,,,,,1.764,,0.4,0.6,0.8,0.2,0.4,0.6,0.2,0.8,1,0,,,,,,,,,,,,
,,66ee9fe856b8ab5a2aa44442,66fceb2270d9f9e3077dc964,2024-10-02_08h52.54.550,mdp,2024.2.1,Win32,59.73715651,66fa4ebf79326e780c390304,,,,,,,,,,,,,,,,,,,,,768.169,768.169,768.171,770.299,0,1,left,1.604,,770.3,771.598,1,1,right,771.599,771.602,,1,,0,771.602,771.602,771.604,773.096,0,6,6,6,1,0.2,0.8,0.6,0.4,,,,,,,,,,,,,,,0.767,,0.4,0.6,0.8,0.2,0.4,0.6,0.2,0.8,1,0,,,,,,,,,,,,
,,66ee9fe856b8ab5a2aa44442,66fceb2270d9f9e3077dc964,2024-10-02_08h52.54.550,mdp,2024.2.1,Win32,59.73715651,66fa4ebf79326e780c390304,,,,,,,,,,,,,,,,,,,,,773.098,773.098,773.1,987.072,0,1,left,212.841,,987.077,992.95,0,0,left,992.951,992.953,,0,,1,992.953,992.953,992.953,994.448,0,7,7,7,1,0.2,0.8,0.6,0.4,,,,,,,,,,,,,,,5.334,,0.4,0.6,0.8,0.2,0.4,0.6,0.2,0.8,1,0,,,,,,,,,,,,
,,66ee9fe856b8ab5a2aa44442,66fceb2270d9f9e3077dc964,2024-10-02_08h52.54.550,mdp,2024.2.1,Win32,59.73715651,66fa4ebf79326e780c390304,,,,,,,,,,,,,,,,,,,,,994.449,994.449,994.451,996.813,0,1,left,1.833,,996.814,998.644,0,1,left,998.646,998.649,,1,,0,998.649,998.649,998.65,1000.144,0,8,8,8,1,0.2,0.8,0.6,0.4,,,,,,,,,,,,,,,1.304,,0.4,0.6,0.8,0.2,0.4,0.6,0.2,0.8,1,0,,,,,,,,,,,,
,,66ee9fe856b8ab5a2aa44442,66fceb2270d9f9e3077dc964,2024-10-02_08h52.54.550,mdp,2024.2.1,Win32,59.73715651,66fa4ebf79326e780c390304,,,,,,,,,,,,,,,,,,,,,1000.144,1000.144,1000.145,1002.857,0,0,left,2.188,,1002.858,1005.455,1,0,right,1005.456,1005.457,,0,,1,1005.457,1005.457,1005.458,1006.954,0,9,9,9,1,0.2,0.8,0.6,0.4,,,,,,,,,,,,,,,2.086,,0.4,0.6,0.8,0.2,0.4,0.6,0.2,0.8,1,0,,,,,,,,,,,,
,,66ee9fe856b8ab5a2aa44442,66fceb2270d9f9e3077dc964,2024-10-02_08h52.54.550,mdp,2024.2.1,Win32,59.73715651,66fa4ebf79326e780c390304,,,,,,,,,,,,,,,,,,,,,1006.955,1006.955,1006.956,1011.25,0,1,left,3.768,,1011.251,1013.932,0,0,left,1013.932,1013.934,,0,,1,1013.934,1013.934,1013.935,1015.431,0,10,10,10,1,0.2,0.8,0.6,0.4,,,,,,,,,,,,,,,2.163,,0.4,0.6,0.8,0.2,0.8,0.2,0.6,0.4,1,0,,,,,,,,,,,,
,,66ee9fe856b8ab5a2aa44442,66fceb2270d9f9e3077dc964,2024-10-02_08h52.54.550,mdp,2024.2.1,Win32,59.73715651,66fa4ebf79326e780c390304,,,,,,,,,,,,,,,,,,,,,1015.432,1015.432,1015.435,1017.345,0,1,left,1.39,,1017.346,1019.043,1,0,right,1019.045,1019.046,,0,,1,1019.046,1019.046,1019.049,1020.542,0,11,11,11,1,0.2,0.8,0.6,0.4,,,,,,,,,,,,,,,1.189,,0.4,0.6,0.8,0.2,0.8,0.2,0.6,0.4,1,0,,,,,,,,,,,,
,,66ee9fe856b8ab5a2aa44442,66fceb2270d9f9e3077dc964,2024-10-02_08h52.54.550,mdp,2024.2.1,Win32,59.73715651,66fa4ebf79326e780c390304,,,,,,,,,,,,,,,,,,,,,1020.543,1020.543,1020.544,1052.986,0,1,left,30.942,,1052.991,1055.351,1,0,right,1055.352,1055.353,,1,,1,1055.353,1055.353,1055.354,1056.849,0,12,12,12,1,0.2,0.8,0.6,0.4,,,,,,,,,,,,,,,1.832,,0.4,0.6,0.8,0.2,0.8,0.2,0.6,0.4,1,0,,,,,,,,,,,,
,,66ee9fe856b8ab5a2aa44442,66fceb2270d9f9e3077dc964,2024-10-02_08h52.54.550,mdp,2024.2.1,Win32,59.73715651,66fa4ebf79326e780c390304,,,,,,,,,,,,,,,,,,,,,1056.851,1056.851,1056.853,1058.548,0,0,left,1.165,,1058.55,1060.33,0,1,left,1060.332,1060.334,,1,,0,1060.334,1060.334,1060.336,1061.828,0,13,13,13,1,0.2,0.8,0.6,0.4,,,,,,,,,,,,,,,1.262,,0.4,0.6,0.8,0.2,0.8,0.2,0.6,0.4,1,0,,,,,,,,,,,,
,,66ee9fe856b8ab5a2aa44442,66fceb2270d9f9e3077dc964,2024-10-02_08h52.54.550,mdp,2024.2.1,Win32,59.73715651,66fa4ebf79326e780c390304,,,,,,,,,,,,,,,,,,,,,1061.829,1061.829,1061.83,1063.876,0,1,left,1.516,,1063.877,1065.475,1,0,right,1065.476,1065.477,,1,,1,1065.477,1065.477,1065.478,1066.974,0,14,14,14,1,0.2,0.8,0.6,0.4,,,,,,,,,,,,,,,1.086,,0.4,0.6,0.8,0.2,0.8,0.2,0.6,0.4,1,0,,,,,,,,,,,,
,,66ee9fe856b8ab5a2aa44442,66fceb2270d9f9e3077dc964,2024-10-02_08h52.54.550,mdp,2024.2.1,Win32,59.73715651,66fa4ebf79326e780c390304,,,,,,,,,,,,,,,,,,,,,1066.974,1066.974,1066.975,1068.839,0,1,left,1.336,,1068.839,1070.487,1,0,right,1070.488,1070.489,,0,,1,1070.49,1070.49,1070.49,1071.986,0,15,15,15,1,0.2,0.8,0.6,0.4,,,,,,,,,,,,,,,1.123,,0.4,0.6,0.8,0.2,0.8,0.2,0.6,0.4,1,0,,,,,,,,,,,,
,,66ee9fe856b8ab5a2aa44442,66fceb2270d9f9e3077dc964,2024-10-02_08h52.54.550,mdp,2024.2.1,Win32,59.73715651,66fa4ebf79326e780c390304,,,,,,,,,,,,,,,,,,,,,1071.986,1071.986,1071.987,1073.601,0,1,left,1.082,,1073.602,1074.949,1,1,right,1074.95,1074.952,,0,,0,1074.952,1074.952,1074.953,1076.448,0,16,16,16,1,0.2,0.8,0.6,0.4,,,,,,,,,,,,,,,0.838,,0.4,0.6,0.8,0.2,0.8,0.2,0.6,0.4,1,0,,,,,,,,,,,,
,,66ee9fe856b8ab5a2aa44442,66fceb2270d9f9e3077dc964,2024-10-02_08h52.54.550,mdp,2024.2.1,Win32,59.73715651,66fa4ebf79326e780c390304,,,,,,,,,,,,,,,,,,,,,1076.449,1076.449,1076.451,1078.414,1,0,right,1.435,,1078.415,1080.262,0,1,left,1080.263,1080.264,,1,,0,1080.264,1080.264,1080.265,1081.761,0,17,17,17,1,0.2,0.8,0.6,0.4,,,,,,,,,,,,,,,1.321,,0.4,0.6,0.8,0.2,0.8,0.2,0.6,0.4,1,0,,,,,,,,,,,,
,,66ee9fe856b8ab5a2aa44442,66fceb2270d9f9e3077dc964,2024-10-02_08h52.54.550,mdp,2024.2.1,Win32,59.73715651,66fa4ebf79326e780c390304,,,,,,,,,,,,,,,,,,,,,1081.763,1081.763,1081.769,1082.776,0,1,left,0.485,,1082.779,1084.792,1,0,right,1084.793,1084.794,,0,,1,1084.794,1084.794,1084.795,1086.29,0,18,18,18,1,0.2,0.8,0.6,0.4,,,,,,,,,,,,,,,1.497,,0.4,0.6,0.8,0.2,0.8,0.2,0.6,0.4,1,0,,,,,,,,,,,,
,,66ee9fe856b8ab5a2aa44442,66fceb2270d9f9e3077dc964,2024-10-02_08h52.54.550,mdp,2024.2.1,Win32,59.73715651,66fa4ebf79326e780c390304,,,,,,,,,,,,,,,,,,,,,1086.291,1086.291,1086.292,1088.155,0,1,left,1.334,,1088.156,1089.488,1,0,right,1089.489,1089.491,,1,,1,1089.491,1089.491,1089.491,1090.986,0,19,19,19,1,0.2,0.8,0.6,0.4,,,,,,,,,,,,,,,0.812,,0.4,0.6,0.8,0.2,0.8,0.2,0.6,0.4,1,0,,,,,,,,,,,,
,,66ee9fe856b8ab5a2aa44442,66fceb2270d9f9e3077dc964,2024-10-02_08h52.54.550,mdp,2024.2.1,Win32,59.73715651,66fa4ebf79326e780c390304,,,,,,,,,,,,,,,,,,,,,1090.986,1090.986,1090.987,1092.369,0,1,left,0.87,,1092.369,1094.034,1,0,right,1094.035,1094.036,,0,,1,1094.036,1094.036,1094.037,1095.532,0,20,20,20,1,0.2,0.8,0.6,0.4,,,,,,,,,,,,,,,1.133,,0.4,0.6,0.8,0.2,0.8,0.2,0.6,0.4,1,0,,,,,,,,,,,,
,,66ee9fe856b8ab5a2aa44442,66fceb2270d9f9e3077dc964,2024-10-02_08h52.54.550,mdp,2024.2.1,Win32,59.73715651,66fa4ebf79326e780c390304,,,,,,,,,,,,,,,,,,,,,1095.533,1095.533,1095.533,1096.831,0,1,left,0.768,,1096.832,1098.279,1,0,right,1098.28,1098.282,,0,,1,1098.282,1098.282,1098.282,1099.779,0,21,21,21,1,0.2,0.8,0.6,0.4,,,,,,,,,,,,,,,0.924,,0.4,0.6,0.8,0.2,0.8,0.2,0.6,0.4,1,0,,,,,,,,,,,,
,,66ee9fe856b8ab5a2aa44442,66fceb2270d9f9e3077dc964,2024-10-02_08h52.54.550,mdp,2024.2.1,Win32,59.73715651,66fa4ebf79326e780c390304,,,,,,,,,,,,,,,,,,,,,1099.779,1099.779,1099.78,1101.177,0,1,left,0.869,,1101.178,1102.459,1,1,right,1102.46,1102.461,,1,,0,1102.461,1102.461,1102.462,1103.958,0,22,22,22,1,0.2,0.8,0.6,0.4,,,,,,,,,,,,,,,0.752,,0.4,0.6,0.8,0.2,0.8,0.2,0.6,0.4,1,0,,,,,,,,,,,,
,,66ee9fe856b8ab5a2aa44442,66fceb2270d9f9e3077dc964,2024-10-02_08h52.54.550,mdp,2024.2.1,Win32,59.73715651,66fa4ebf79326e780c390304,,,,,,,,,,,,,,,,,,,,,1103.959,1103.959,1103.96,1105.273,0,1,left,0.779,,1105.274,1106.922,1,1,right,1106.923,1106.924,,1,,0,1106.924,1106.924,1106.925,1108.421,0,23,23,23,1,0.2,0.8,0.6,0.4,,,,,,,,,,,,,,,1.123,,0.4,0.6,0.8,0.2,0.8,0.2,0.6,0.4,1,0,,,,,,,,,,,,
,,66ee9fe856b8ab5a2aa44442,66fceb2270d9f9e3077dc964,2024-10-02_08h52.54.550,mdp,2024.2.1,Win32,59.73715651,66fa4ebf79326e780c390304,,,,,,,,,,,,,,,,,,,,,1108.422,1108.422,1108.422,1109.52,0,1,left,0.565,,1109.521,1110.719,1,0,right,1110.72,1110.722,,0,,1,1110.722,1110.722,1110.723,1112.217,0,24,24,24,1,0.2,0.8,0.6,0.4,,,,,,,,,,,,,,,0.666,,0.2,0.8,0.4,0.6,0.8,0.2,0.6,0.4,1,0,,,,,,,,,,,,
,,66ee9fe856b8ab5a2aa44442,66fceb2270d9f9e3077dc964,2024-10-02_08h52.54.550,mdp,2024.2.1,Win32,59.73715651,66fa4ebf79326e780c390304,,,,,,,,,,,,,,,,,,,,,1112.218,1112.218,1112.219,1113.533,0,1,left,0.785,,1113.533,1115.531,0,0,left,1115.538,1115.54,,0,,1,1115.54,1115.54,1115.541,1117.03,0,25,25,25,1,0.2,0.8,0.6,0.4,,,,,,,,,,,,,,,1.486,,0.2,0.8,0.4,0.6,0.6,0.4,0.2,0.8,1,0,,,,,,,,,,,,
,,66ee9fe856b8ab5a2aa44442,66fceb2270d9f9e3077dc964,2024-10-02_08h52.54.550,mdp,2024.2.1,Win32,59.73715651,66fa4ebf79326e780c390304,,,,,,,,,,,,,,,,,,,,,1117.032,1117.032,1117.033,1120.477,0,0,left,2.918,,1120.479,1122.641,0,1,left,1122.643,1122.644,,0,,0,1122.645,1122.645,1122.646,1124.141,0,26,26,26,1,0.2,0.8,0.6,0.4,,,,,,,,,,,,,,,1.649,,0.2,0.8,0.4,0.6,0.6,0.4,0.2,0.8,1,0,,,,,,,,,,,,
,,66ee9fe856b8ab5a2aa44442,66fceb2270d9f9e3077dc964,2024-10-02_08h52.54.550,mdp,2024.2.1,Win32,59.73715651,66fa4ebf79326e780c390304,,,,,,,,,,,,,,,,,,,,,1124.141,1124.141,1124.143,1124.923,0,1,left,0.256,,1124.924,1126.338,1,0,right,1126.339,1126.341,,1,,1,1126.341,1126.341,1126.342,1127.838,0,27,27,27,1,0.2,0.8,0.6,0.4,,,,,,,,,,,,,,,0.9,,0.2,0.8,0.4,0.6,0.6,0.4,0.2,0.8,1,0,,,,,,,,,,,,
,,66ee9fe856b8ab5a2aa44442,66fceb2270d9f9e3077dc964,2024-10-02_08h52.54.550,mdp,2024.2.1,Win32,59.73715651,66fa4ebf79326e780c390304,,,,,,,,,,,,,,,,,,,,,1127.838,1127.838,1127.839,1129.153,0,1,left,0.783,,1129.154,1130.335,1,1,right,1130.336,1130.337,,0,,0,1130.337,1130.337,1130.337,1131.834,0,28,28,28,1,0.2,0.8,0.6,0.4,,,,,,,,,,,,,,,0.656,,0.2,0.8,0.4,0.6,0.6,0.4,0.2,0.8,1,0,,,,,,,,,,,,
,,66ee9fe856b8ab5a2aa44442,66fceb2270d9f9e3077dc964,2024-10-02_08h52.54.550,mdp,2024.2.1,Win32,59.73715651,66fa4ebf79326e780c390304,,,,,,,,,,,,,,,,,,,,,1131.835,1131.835,1131.836,1133.033,0,1,left,0.669,,1133.034,1134.765,0,0,left,1134.766,1134.767,,0,,1,1134.767,1134.767,1134.768,1136.263,0,29,29,29,1,0.2,0.8,0.6,0.4,,,,,,,,,,,,,,,1.2,,0.2,0.8,0.4,0.6,0.6,0.4,0.2,0.8,1,0,,,,,,,,,,,,
,,66ee9fe856b8ab5a2aa44442,66fceb2270d9f9e3077dc964,2024-10-02_08h52.54.550,mdp,2024.2.1,Win32,59.73715651,66fa4ebf79326e780c390304,,,,,,,,,,,,,,,,,,,,,1136.263,1136.263,1136.264,1137.812,0,1,left,1.017,,1137.813,1139.244,1,0,right,1139.245,1139.246,,0,,1,1139.246,1139.246,1139.247,1140.743,0,30,30,30,1,0.2,0.8,0.6,0.4,,,,,,,,,,,,,,,0.901,,0.2,0.8,0.4,0.6,0.6,0.4,0.2,0.8,1,0,,,,,,,,,,,,
,,66ee9fe856b8ab5a2aa44442,66fceb2270d9f9e3077dc964,2024-10-02_08h52.54.550,mdp,2024.2.1,Win32,59.73715651,66fa4ebf79326e780c390304,,,,,,,,,,,,,,,,,,,,,1140.743,1140.743,1140.744,1141.692,0,1,left,0.427,,1141.692,1143.09,1,1,right,1143.091,1143.091,,0,,0,1143.091,1143.091,1143.092,1144.59,0,31,31,31,1,0.6,0.4,0.4,0.6,,,,,,,,,,,,,,,0.872,,0.2,0.8,0.4,0.6,0.6,0.4,0.2,0.8,1,0,,,,,,,,,,,,
,,66ee9fe856b8ab5a2aa44442,66fceb2270d9f9e3077dc964,2024-10-02_08h52.54.550,mdp,2024.2.1,Win32,59.73715651,66fa4ebf79326e780c390304,,,,,,,,,,,,,,,,,,,,,1144.59,1144.59,1144.591,1145.622,0,1,left,0.499,,1145.622,1147.237,1,0,right,1147.238,1147.24,,0,,1,1147.24,1147.24,1147.24,1148.736,0,32,32,32,1,0.6,0.4,0.4,0.6,,,,,,,,,,,,,,,1.088,,0.2,0.8,0.4,0.6,0.8,0.2,0.8,0.2,1,0,,,,,,,,,,,,
,,66ee9fe856b8ab5a2aa44442,66fceb2270d9f9e3077dc964,2024-10-02_08h52.54.550,mdp,2024.2.1,Win32,59.73715651,66fa4ebf79326e780c390304,,,,,,,,,,,,,,,,,,,,,1148.738,1148.738,1148.743,1149.552,0,1,left,0.284,,1149.553,1150.718,0,0,left,1150.72,1150.72,,0,,1,1150.72,1150.72,1150.722,1152.216,0,33,33,33,1,0.2,0.8,0.8,0.2,,,,,,,,,,,,,,,0.642,,0.2,0.8,0.4,0.6,0.8,0.2,0.8,0.2,1,0,,,,,,,,,,,,
,,66ee9fe856b8ab5a2aa44442,66fceb2270d9f9e3077dc964,2024-10-02_08h52.54.550,mdp,2024.2.1,Win32,59.73715651,66fa4ebf79326e780c390304,,,,,,,,,,,,,,,,,,,,,1152.217,1152.217,1152.217,1256.204,0,1,left,103.458,,1256.209,1257.336,1,0,right,1257.337,1257.339,,0,,1,1257.339,1257.339,1257.341,1258.834,0,34,34,34,1,0.4,0.6,0.6,0.4,,,,,,,,,,,,,,,0.607,,0.2,0.8,0.4,0.6,0.8,0.2,0.8,0.2,1,0,,,,,,,,,,,,
,,66ee9fe856b8ab5a2aa44442,66fceb2270d9f9e3077dc964,2024-10-02_08h52.54.550,mdp,2024.2.1,Win32,59.73715651,66fa4ebf79326e780c390304,,,,,,,,,,,,,,,,,,,,,1258.835,1258.835,1258.836,1260.233,0,1,left,0.868,,1260.234,1262.181,0,0,left,1262.183,1262.185,,0,,1,1262.185,1262.185,1262.186,1263.68,0,35,35,35,1,0.4,0.6,0.6,0.4,,,,,,,,,,,,,,,1.435,,0.2,0.8,0.4,0.6,0.8,0.2,0.8,0.2,1,0,,,,,,,,,,,,
,,66ee9fe856b8ab5a2aa44442,66fceb2270d9f9e3077dc964,2024-10-02_08h52.54.550,mdp,2024.2.1,Win32,59.73715651,66fa4ebf79326e780c390304,,,,,,,,,,,,,,,,,,,,,1263.681,1263.681,1263.682,1265.512,0,1,left,1.299,,1265.513,1266.877,1,0,right,1266.878,1266.88,,0,,1,1266.88,1266.88,1266.88,1268.376,0,36,36,36,1,0.4,0.6,0.6,0.4,,,,,,,,,,,,,,,0.848,,0.2,0.8,0.4,0.6,0.6,0.4,0.6,0.4,1,0,,,,,,,,,,,,
,,66ee9fe856b8ab5a2aa44442,66fceb2270d9f9e3077dc964,2024-10-02_08h52.54.550,mdp,2024.2.1,Win32,59.73715651,66fa4ebf79326e780c390304,,,,,,,,,,,,,,,,,,,,,1268.377,1268.377,1268.378,1269.525,0,1,left,0.615,,1269.526,1270.857,1,0,right,1270.859,1270.86,,0,,1,1270.86,1270.86,1270.861,1272.357,0,37,37,37,1,0.4,0.6,0.6,0.4,,,,,,,,,,,,,,,0.826,,0.2,0.8,0.4,0.6,0.6,0.4,0.6,0.4,1,0,,,,,,,,,,,,
,,66ee9fe856b8ab5a2aa44442,66fceb2270d9f9e3077dc964,2024-10-02_08h52.54.550,mdp,2024.2.1,Win32,59.73715651,66fa4ebf79326e780c390304,,,,,,,,,,,,,,,,,,,,,1272.357,1272.357,1272.359,1273.654,0,1,left,0.774,,1273.656,1275.07,0,0,left,1275.071,1275.072,,0,,1,1275.072,1275.072,1275.073,1276.569,0,38,38,38,1,0.4,0.6,0.6,0.4,,,,,,,,,,,,,,,0.909,,0.6,0.4,0.2,0.8,0.6,0.4,0.6,0.4,1,0,,,,,,,,,,,,
,,66ee9fe856b8ab5a2aa44442,66fceb2270d9f9e3077dc964,2024-10-02_08h52.54.550,mdp,2024.2.1,Win32,59.73715651,66fa4ebf79326e780c390304,,,,,,,,,,,,,,,,,,,,,1276.57,1276.57,1276.57,1277.651,0,1,left,0.547,,1277.653,1278.933,1,0,right,1278.934,1278.935,,0,,1,1278.936,1278.936,1278.936,1280.432,0,39,39,39,1,0.4,0.6,0.6,0.4,,,,,,,,,,,,,,,0.77,,0.6,0.4,0.2,0.8,0.6,0.4,0.6,0.4,1,0,,,,,,,,,,,,
,,66ee9fe856b8ab5a2aa44442,66fceb2270d9f9e3077dc964,2024-10-02_08h52.54.550,mdp,2024.2.1,Win32,59.73715651,66fa4ebf79326e780c390304,,,,,,,,,,,,,,,,,,,,,1280.433,1280.433,1280.433,1281.647,0,0,left,0.694,,1281.65,1283.729,0,0,left,1283.73,1283.732,,0,,1,1283.732,1283.732,1283.732,1285.229,0,40,40,40,1,0.4,0.6,0.6,0.4,,,,,,,,,,,,,,,1.564,,0.8,0.2,0.8,0.2,0.6,0.4,0.6,0.4,1,0,,,,,,,,,,,,
,,66ee9fe856b8ab5a2aa44442,66fceb2270d9f9e3077dc964,2024-10-02_08h52.54.550,mdp,2024.2.1,Win32,59.73715651,66fa4ebf79326e780c390304,,,,,,,,,,,,,,,,,,,,,1285.231,1285.231,1285.234,1286.377,0,0,left,0.615,,1286.379,1288.109,1,0,right,1288.11,1288.111,,0,,1,1288.111,1288.111,1288.112,1289.608,0,41,41,41,1,0.8,0.2,0.8,0.2,,,,,,,,,,,,,,,1.205,,0.8,0.2,0.8,0.2,0.6,0.4,0.6,0.4,1,0,,,,,,,,,,,,
,,66ee9fe856b8ab5a2aa44442,66fceb2270d9f9e3077dc964,2024-10-02_08h52.54.550,mdp,2024.2.1,Win32,59.73715651,66fa4ebf79326e780c390304,,,,,,,,,,,,,,,,,,,,,1289.609,1289.609,1289.61,1290.74,0,0,left,0.599,,1290.741,1292.255,0,1,left,1292.257,1292.259,,0,,0,1292.259,1292.259,1292.26,1293.754,0,42,42,42,1,0.8,0.2,0.8,0.2,,,,,,,,,,,,,,,0.999,,0.8,0.2,0.8,0.2,0.6,0.4,0.6,0.4,1,0,,,,,,,,,,,,
,,66ee9fe856b8ab5a2aa44442,66fceb2270d9f9e3077dc964,2024-10-02_08h52.54.550,mdp,2024.2.1,Win32,59.73715651,66fa4ebf79326e780c390304,,,,,,,,,,,,,,,,,,,,,1293.755,1293.755,1293.756,1294.62,0,0,left,0.333,,1294.621,1296.335,0,0,left,1296.336,1296.338,,0,,1,1296.338,1296.338,1296.339,1297.834,0,43,43,43,1,0.8,0.2,0.8,0.2,,,,,,,,,,,,,,,1.193,,0.8,0.2,0.8,0.2,0.6,0.4,0.6,0.4,1,0,,,,,,,,,,,,
,,66ee9fe856b8ab5a2aa44442,66fceb2270d9f9e3077dc964,2024-10-02_08h52.54.550,mdp,2024.2.1,Win32,59.73715651,66fa4ebf79326e780c390304,,,,,,,,,,,,,,,,,,,,,1297.835,1297.835,1297.836,1298.783,0,1,left,0.421,,1298.784,1300.115,1,0,right,1300.116,1300.118,,1,,1,1300.118,1300.118,1300.121,1301.613,0,44,44,44,1,0.8,0.2,0.8,0.2,,,,,,,,,,,,,,,0.816,,0.8,0.2,0.8,0.2,0.6,0.4,0.6,0.4,1,0,,,,,,,,,,,,
,,66ee9fe856b8ab5a2aa44442,66fceb2270d9f9e3077dc964,2024-10-02_08h52.54.550,mdp,2024.2.1,Win32,59.73715651,66fa4ebf79326e780c390304,,,,,,,,,,,,,,,,,,,,,1301.614,1301.614,1301.616,1302.446,0,0,left,0.298,,1302.447,1304.428,1,0,right,1304.428,1304.43,,1,,1,1304.43,1304.43,1304.43,1305.926,0,45,45,45,1,0.8,0.2,0.8,0.2,,,,,,,,,,,,,,,1.451,,0.8,0.2,0.8,0.2,0.6,0.4,0.6,0.4,1,0,,,,,,,,,,,,
,,66ee9fe856b8ab5a2aa44442,66fceb2270d9f9e3077dc964,2024-10-02_08h52.54.550,mdp,2024.2.1,Win32,59.73715651,66fa4ebf79326e780c390304,,,,,,,,,,,,,,,,,,,,,1305.927,1305.927,1305.929,1306.826,0,0,left,0.366,,1306.827,1308.124,0,0,left,1308.125,1308.126,,0,,1,1308.126,1308.126,1308.127,1309.623,0,46,46,46,1,0.8,0.2,0.8,0.2,,,,,,,,,,,,,,,0.773,,0.8,0.2,0.8,0.2,0.6,0.4,0.6,0.4,1,0,,,,,,,,,,,,
,,66ee9fe856b8ab5a2aa44442,66fceb2270d9f9e3077dc964,2024-10-02_08h52.54.550,mdp,2024.2.1,Win32,59.73715651,66fa4ebf79326e780c390304,,,,,,,,,,,,,,,,,,,,,1309.624,1309.624,1309.624,1310.207,0,1,left,0.051,,1310.208,1311.189,1,1,right,1311.19,1311.191,,0,,0,1311.191,1311.191,1311.191,1312.687,0,47,47,47,1,0.8,0.2,0.8,0.2,,,,,,,,,,,,,,,0.452,,0.8,0.2,0.8,0.2,0.6,0.4,0.6,0.4,1,0,,,,,,,,,,,,
,,66ee9fe856b8ab5a2aa44442,66fceb2270d9f9e3077dc964,2024-10-02_08h52.54.550,mdp,2024.2.1,Win32,59.73715651,66fa4ebf79326e780c390304,,,,,,,,,,,,,,,,,,,,,1312.688,1312.688,1312.688,1313.62,0,0,left,0.398,,1313.621,1314.835,0,0,left,1314.837,1314.838,,0,,1,1314.838,1314.838,1314.84,1316.334,0,48,48,48,1,0.8,0.2,0.8,0.2,,,,,,,,,,,,,,,0.696,,0.8,0.2,0.8,0.2,0.6,0.4,0.6,0.4,1,0,,,,,,,,,,,,
,,66ee9fe856b8ab5a2aa44442,66fceb2270d9f9e3077dc964,2024-10-02_08h52.54.550,mdp,2024.2.1,Win32,59.73715651,66fa4ebf79326e780c390304,,,,,,,,,,,,,,,,,,,,,1316.335,1316.335,1316.336,1317.566,0,1,left,0.699,,1317.568,1319.449,1,0,right,1319.454,1319.456,,0,,1,1319.456,1319.456,1319.456,1320.947,0,49,49,49,1,0.8,0.2,0.8,0.2,,,,,,,,,,,,,,,1.35,,0.8,0.2,0.8,0.2,0.6,0.4,0.6,0.4,1,0,,,,,,,,,,,,
,,66ee9fe856b8ab5a2aa44442,66fceb2270d9f9e3077dc964,2024-10-02_08h52.54.550,mdp,2024.2.1,Win32,59.73715651,66fa4ebf79326e780c390304,,,,,,,,,,,,,,,,,,,,,,,,,,,,,,,,,,,,,,,,,,,,,,,,,,,,,,,,1320.948,1379.919,0,1,1,1,1,imgs/lion.png,imgs/bear.png,imgs/dog.png,imgs/cat.png,imgs/kangaroo.png,,,,,,,,,,,,,,,,,,,,,,,,
,,66ee9fe856b8ab5a2aa44442,66fceb2270d9f9e3077dc964,2024-10-02_08h52.54.550,mdp,2024.2.1,Win32,59.73715651,66fa4ebf79326e780c390304,,,,,,,,,,,,,,3,seqs/st3seq47.csv,1379.925,1415.147,space,34.213,,1415.155,1415.155,1415.157,1417.994,0,1,left,2.313,,1417.996,1469.993,1,0,right,1470.001,1471.441,0,0,left,1,1471.441,1471.441,1471.443,1472.94,0,0,0,0,1,0.6,0.4,0.4,0.6,,,,,,,,,,,,,,,51.453,,0.8,0.2,0.4,0.6,0.8,0.2,0.2,0.8,,,0.916,,0.6,0.4,0.4,0.6,0.6,0.4,0.8,0.2,1,0
,,66ee9fe856b8ab5a2aa44442,66fceb2270d9f9e3077dc964,2024-10-02_08h52.54.550,mdp,2024.2.1,Win32,59.73715651,66fa4ebf79326e780c390304,,,,,,,,,,,,,,,,,,,,,1472.942,1472.942,1472.943,1474.838,0,0,left,1.366,,1474.84,1477.27,1,1,right,1477.271,1480.5,1,0,right,1,1480.5,1480.5,1480.501,1481.998,0,1,1,1,1,0.6,0.4,0.4,0.6,,,,,,,,,,,,,,,1.903,,0.8,0.2,0.4,0.6,0.8,0.2,0.2,0.8,,,2.699,,0.6,0.4,0.4,0.6,0.6,0.4,0.8,0.2,1,0
,,66ee9fe856b8ab5a2aa44442,66fceb2270d9f9e3077dc964,2024-10-02_08h52.54.550,mdp,2024.2.1,Win32,59.73715651,66fa4ebf79326e780c390304,,,,,,,,,,,,,,,,,,,,,1481.999,1481.999,1482.002,1483.58,0,1,left,1.058,,1483.581,1485.845,1,1,right,1485.847,1487.377,0,1,left,0,1487.377,1487.377,1487.378,1488.876,0,2,2,2,1,0.6,0.4,0.4,0.6,,,,,,,,,,,,,,,1.744,,0.8,0.2,0.4,0.6,0.8,0.2,0.2,0.8,,,1,,0.6,0.4,0.4,0.6,0.6,0.4,0.8,0.2,1,0
,,66ee9fe856b8ab5a2aa44442,66fceb2270d9f9e3077dc964,2024-10-02_08h52.54.550,mdp,2024.2.1,Win32,59.73715651,66fa4ebf79326e780c390304,,,,,,,,,,,,,,,,,,,,,1488.877,1488.877,1488.879,1490.507,0,1,left,1.097,,1490.508,1492.223,1,1,right,1492.224,1493.722,1,0,right,1,1493.722,1493.722,1493.723,1495.22,0,3,3,3,1,0.6,0.4,0.4,0.6,,,,,,,,,,,,,,,1.19,,0.8,0.2,0.4,0.6,0.8,0.2,0.2,0.8,,,0.972,,0.6,0.4,0.4,0.6,0.6,0.4,0.8,0.2,1,0
,,66ee9fe856b8ab5a2aa44442,66fceb2270d9f9e3077dc964,2024-10-02_08h52.54.550,mdp,2024.2.1,Win32,59.73715651,66fa4ebf79326e780c390304,,,,,,,,,,,,,,,,,,,,,1495.221,1495.221,1495.222,1496.919,0,0,left,1.17,,1496.923,1499.283,0,0,left,1499.285,1500.982,1,0,right,1,1500.982,1500.982,1500.983,1502.481,0,4,4,4,1,0.6,0.4,0.4,0.6,,,,,,,,,,,,,,,1.829,,0.8,0.2,0.4,0.6,0.8,0.2,0.2,0.8,,,1.186,,0.4,0.6,0.6,0.4,0.6,0.4,0.8,0.2,1,0
,,66ee9fe856b8ab5a2aa44442,66fceb2270d9f9e3077dc964,2024-10-02_08h52.54.550,mdp,2024.2.1,Win32,59.73715651,66fa4ebf79326e780c390304,,,,,,,,,,,,,,,,,,,,,1502.482,1502.482,1502.484,1504.179,0,0,left,1.166,,1504.182,1505.678,1,1,right,1505.68,1507.743,1,0,right,1,1507.743,1507.743,1507.744,1509.242,0,5,5,5,1,0.6,0.4,0.4,0.6,,,,,,,,,,,,,,,0.984,,0.8,0.2,0.4,0.6,0.8,0.2,0.2,0.8,,,1.53,,0.4,0.6,0.6,0.4,0.6,0.4,0.8,0.2,1,0
,,66ee9fe856b8ab5a2aa44442,66fceb2270d9f9e3077dc964,2024-10-02_08h52.54.550,mdp,2024.2.1,Win32,59.73715651,66fa4ebf79326e780c390304,,,,,,,,,,,,,,,,,,,,,1509.242,1509.242,1509.243,1510.524,0,0,left,0.759,,1510.525,1512.971,1,1,right,1512.973,1515.086,0,0,left,1,1515.086,1515.086,1515.089,1516.585,0,6,6,6,1,0.6,0.4,0.4,0.6,,,,,,,,,,,,,,,1.918,,0.8,0.2,0.4,0.6,0.8,0.2,0.2,0.8,,,1.603,,0.4,0.6,0.6,0.4,0.6,0.4,0.8,0.2,1,0
,,66ee9fe856b8ab5a2aa44442,66fceb2270d9f9e3077dc964,2024-10-02_08h52.54.550,mdp,2024.2.1,Win32,59.73715651,66fa4ebf79326e780c390304,,,,,,,,,,,,,,,,,,,,,1516.586,1516.586,1516.587,1518.2,0,0,left,1.09,,1518.201,1519.516,1,1,right,1519.516,1521.248,1,0,right,1,1521.248,1521.248,1521.249,1522.747,0,7,7,7,1,0.6,0.4,0.4,0.6,,,,,,,,,,,,,,,0.806,,0.8,0.2,0.4,0.6,0.8,0.2,0.2,0.8,,,1.218,,0.4,0.6,0.6,0.4,0.6,0.4,0.8,0.2,1,0
,,66ee9fe856b8ab5a2aa44442,66fceb2270d9f9e3077dc964,2024-10-02_08h52.54.550,mdp,2024.2.1,Win32,59.73715651,66fa4ebf79326e780c390304,,,,,,,,,,,,,,,,,,,,,1522.747,1522.747,1522.748,1523.811,0,1,left,0.536,,1523.812,1525.177,1,1,right,1525.178,1527.293,0,1,left,0,1527.293,1527.293,1527.294,1528.791,0,8,8,8,1,0.6,0.4,0.4,0.6,,,,,,,,,,,,,,,0.85,,0.8,0.2,0.4,0.6,0.8,0.2,0.2,0.8,,,1.579,,0.4,0.6,0.6,0.4,0.6,0.4,0.8,0.2,1,0
,,66ee9fe856b8ab5a2aa44442,66fceb2270d9f9e3077dc964,2024-10-02_08h52.54.550,mdp,2024.2.1,Win32,59.73715651,66fa4ebf79326e780c390304,,,,,,,,,,,,,,,,,,,,,1528.792,1528.792,1528.793,1530.057,0,0,left,0.729,,1530.063,1531.106,1,1,right,1531.107,1532.421,1,0,right,1,1532.421,1532.421,1532.422,1533.92,0,9,9,9,1,0.6,0.4,0.4,0.6,,,,,,,,,,,,,,,0.519,,0.8,0.2,0.4,0.6,0.8,0.2,0.2,0.8,,,0.793,,0.4,0.6,0.6,0.4,0.6,0.4,0.8,0.2,1,0
,,66ee9fe856b8ab5a2aa44442,66fceb2270d9f9e3077dc964,2024-10-02_08h52.54.550,mdp,2024.2.1,Win32,59.73715651,66fa4ebf79326e780c390304,,,,,,,,,,,,,,,,,,,,,1533.923,1533.923,1533.924,1535.202,0,1,left,0.751,,1535.203,1536.484,1,0,right,1536.486,1538.117,0,1,left,0,1538.117,1538.117,1538.119,1539.615,0,10,10,10,1,0.6,0.4,0.4,0.6,,,,,,,,,,,,,,,0.768,,0.8,0.2,0.4,0.6,0.2,0.8,0.8,0.2,,,1.114,,0.4,0.6,0.6,0.4,0.6,0.4,0.8,0.2,1,0
,,66ee9fe856b8ab5a2aa44442,66fceb2270d9f9e3077dc964,2024-10-02_08h52.54.550,mdp,2024.2.1,Win32,59.73715651,66fa4ebf79326e780c390304,,,,,,,,,,,,,,,,,,,,,1539.615,1539.615,1539.616,1540.548,0,0,left,0.417,,1540.549,1541.563,1,1,right,1541.564,1543.211,1,1,right,0,1543.212,1543.212,1543.214,1544.71,0,11,11,11,1,0.6,0.4,0.4,0.6,,,,,,,,,,,,,,,0.49,,0.8,0.2,0.4,0.6,0.2,0.8,0.8,0.2,,,1.121,,0.4,0.6,0.6,0.4,0.6,0.4,0.8,0.2,1,0
,,66ee9fe856b8ab5a2aa44442,66fceb2270d9f9e3077dc964,2024-10-02_08h52.54.550,mdp,2024.2.1,Win32,59.73715651,66fa4ebf79326e780c390304,,,,,,,,,,,,,,,,,,,,,1544.711,1544.711,1544.712,1545.942,0,0,left,0.706,,1545.944,1547.491,1,0,right,1547.493,1549.423,1,0,right,1,1549.424,1549.424,1549.425,1550.922,0,12,12,12,1,0.6,0.4,0.4,0.6,,,,,,,,,,,,,,,1.037,,0.8,0.2,0.4,0.6,0.2,0.8,0.8,0.2,,,1.398,,0.4,0.6,0.6,0.4,0.6,0.4,0.8,0.2,1,0
,,66ee9fe856b8ab5a2aa44442,66fceb2270d9f9e3077dc964,2024-10-02_08h52.54.550,mdp,2024.2.1,Win32,59.73715651,66fa4ebf79326e780c390304,,,,,,,,,,,,,,,,,,,,,1550.922,1550.922,1550.923,1578.609,0,0,left,26.18,,1578.612,1579.958,1,1,right,1579.961,1581.823,0,1,left,0,1581.823,1581.823,1581.825,1583.321,0,13,13,13,1,0.6,0.4,0.4,0.6,,,,,,,,,,,,,,,0.815,,0.8,0.2,0.4,0.6,0.2,0.8,0.8,0.2,,,1.328,,0.4,0.6,0.6,0.4,0.2,0.8,0.6,0.4,1,0
,,66ee9fe856b8ab5a2aa44442,66fceb2270d9f9e3077dc964,2024-10-02_08h52.54.550,mdp,2024.2.1,Win32,59.73715651,66fa4ebf79326e780c390304,,,,,,,,,,,,,,,,,,,,,1583.323,1583.323,1583.325,1584.654,0,0,left,0.8,,1584.655,1585.736,1,0,right,1585.737,1587.368,1,0,right,1,1587.368,1587.368,1587.369,1588.867,0,14,14,14,1,0.6,0.4,0.4,0.6,,,,,,,,,,,,,,,0.551,,0.8,0.2,0.4,0.6,0.2,0.8,0.8,0.2,,,1.096,,0.4,0.6,0.6,0.4,0.2,0.8,0.6,0.4,1,0
,,66ee9fe856b8ab5a2aa44442,66fceb2270d9f9e3077dc964,2024-10-02_08h52.54.550,mdp,2024.2.1,Win32,59.73715651,66fa4ebf79326e780c390304,,,,,,,,,,,,,,,,,,,,,1588.868,1588.868,1588.869,1590.082,0,0,left,0.68,,1590.083,1591.398,1,1,right,1591.399,1593.279,0,1,left,0,1593.28,1593.28,1593.281,1594.778,0,15,15,15,1,0.6,0.4,0.4,0.6,,,,,,,,,,,,,,,0.785,,0.8,0.2,0.4,0.6,0.2,0.8,0.8,0.2,,,1.342,,0.4,0.6,0.6,0.4,0.2,0.8,0.6,0.4,1,0
,,66ee9fe856b8ab5a2aa44442,66fceb2270d9f9e3077dc964,2024-10-02_08h52.54.550,mdp,2024.2.1,Win32,59.73715651,66fa4ebf79326e780c390304,,,,,,,,,,,,,,,,,,,,,1594.778,1594.778,1594.779,1595.793,0,1,left,0.491,,1595.795,1596.909,1,1,right,1596.91,1597.975,1,0,right,1,1597.975,1597.975,1597.975,1599.474,0,16,16,16,1,0.6,0.4,0.4,0.6,,,,,,,,,,,,,,,0.602,,0.8,0.2,0.4,0.6,0.6,0.4,0.4,0.6,,,0.536,,0.4,0.6,0.6,0.4,0.2,0.8,0.6,0.4,1,0
,,66ee9fe856b8ab5a2aa44442,66fceb2270d9f9e3077dc964,2024-10-02_08h52.54.550,mdp,2024.2.1,Win32,59.73715651,66fa4ebf79326e780c390304,,,,,,,,,,,,,,,,,,,,,1599.474,1599.474,1599.475,1600.789,0,1,left,0.789,,1600.79,1601.872,1,0,right,1601.873,1602.921,1,0,right,1,1602.921,1602.921,1602.922,1604.419,0,17,17,17,1,0.6,0.4,0.4,0.6,,,,,,,,,,,,,,,0.566,,0.8,0.2,0.4,0.6,0.6,0.4,0.4,0.6,,,0.514,,0.4,0.6,0.6,0.4,0.2,0.8,0.6,0.4,1,0
,,66ee9fe856b8ab5a2aa44442,66fceb2270d9f9e3077dc964,2024-10-02_08h52.54.550,mdp,2024.2.1,Win32,59.73715651,66fa4ebf79326e780c390304,,,,,,,,,,,,,,,,,,,,,1604.42,1604.42,1604.421,1605.402,0,0,left,0.45,,1605.403,1606.285,1,0,right,1606.285,1607.167,0,1,left,0,1607.167,1607.167,1607.168,1608.666,0,18,18,18,1,0.6,0.4,0.4,0.6,,,,,,,,,,,,,,,0.364,,0.8,0.2,0.4,0.6,0.6,0.4,0.4,0.6,,,0.351,,0.4,0.6,0.6,0.4,0.2,0.8,0.6,0.4,1,0
,,66ee9fe856b8ab5a2aa44442,66fceb2270d9f9e3077dc964,2024-10-02_08h52.54.550,mdp,2024.2.1,Win32,59.73715651,66fa4ebf79326e780c390304,,,,,,,,,,,,,,,,,,,,,1608.669,1608.669,1608.673,1609.648,0,0,left,0.457,,1609.649,1610.531,1,0,right,1610.532,1611.413,1,0,right,1,1611.413,1611.413,1611.414,1612.912,0,19,19,19,1,0.6,0.4,0.4,0.6,,,,,,,,,,,,,,,0.369,,0.8,0.2,0.4,0.6,0.6,0.4,0.4,0.6,,,0.347,,0.4,0.6,0.6,0.4,0.2,0.8,0.6,0.4,1,0
,,66ee9fe856b8ab5a2aa44442,66fceb2270d9f9e3077dc964,2024-10-02_08h52.54.550,mdp,2024.2.1,Win32,59.73715651,66fa4ebf79326e780c390304,,,,,,,,,,,,,,,,,,,,,1612.913,1612.913,1612.914,1613.795,0,1,left,0.354,,1613.796,1614.694,1,0,right,1614.695,1615.61,1,0,right,1,1615.61,1615.61,1615.61,1617.108,0,20,20,20,1,0.6,0.4,0.4,0.6,,,,,,,,,,,,,,,0.364,,0.8,0.2,0.4,0.6,0.6,0.4,0.4,0.6,,,0.384,,0.4,0.6,0.6,0.4,0.2,0.8,0.6,0.4,1,0
,,66ee9fe856b8ab5a2aa44442,66fceb2270d9f9e3077dc964,2024-10-02_08h52.54.550,mdp,2024.2.1,Win32,59.73715651,66fa4ebf79326e780c390304,,,,,,,,,,,,,,,,,,,,,1617.109,1617.109,1617.111,1618.158,0,1,left,0.514,,1618.159,1619.073,1,1,right,1619.075,1619.939,1,0,right,1,1619.939,1619.939,1619.94,1621.437,0,21,21,21,1,0.6,0.4,0.4,0.6,,,,,,,,,,,,,,,0.384,,0.8,0.2,0.4,0.6,0.6,0.4,0.4,0.6,,,0.338,,0.4,0.6,0.6,0.4,0.2,0.8,0.6,0.4,1,0
,,66ee9fe856b8ab5a2aa44442,66fceb2270d9f9e3077dc964,2024-10-02_08h52.54.550,mdp,2024.2.1,Win32,59.73715651,66fa4ebf79326e780c390304,,,,,,,,,,,,,,,,,,,,,1621.438,1621.438,1621.439,1622.287,0,1,left,0.322,,1622.288,1623.136,1,1,right,1623.137,1624.019,1,0,right,1,1624.019,1624.019,1624.02,1625.517,0,22,22,22,1,0.6,0.4,0.4,0.6,,,,,,,,,,,,,,,0.321,,0.8,0.2,0.4,0.6,0.6,0.4,0.4,0.6,,,0.367,,0.4,0.6,0.6,0.4,0.2,0.8,0.6,0.4,1,0
,,66ee9fe856b8ab5a2aa44442,66fceb2270d9f9e3077dc964,2024-10-02_08h52.54.550,mdp,2024.2.1,Win32,59.73715651,66fa4ebf79326e780c390304,,,,,,,,,,,,,,,,,,,,,1625.518,1625.518,1625.519,1626.45,0,1,left,0.401,,1626.451,1627.35,1,1,right,1627.35,1628.232,1,0,right,1,1628.232,1628.232,1628.233,1629.731,0,23,23,23,1,0.6,0.4,0.4,0.6,,,,,,,,,,,,,,,0.368,,0.8,0.2,0.4,0.6,0.6,0.4,0.4,0.6,,,0.356,,0.4,0.6,0.6,0.4,0.2,0.8,0.6,0.4,1,0
,,66ee9fe856b8ab5a2aa44442,66fceb2270d9f9e3077dc964,2024-10-02_08h52.54.550,mdp,2024.2.1,Win32,59.73715651,66fa4ebf79326e780c390304,,,,,,,,,,,,,,,,,,,,,1629.731,1629.731,1629.733,1630.346,0,0,left,0.083,,1630.347,1631.18,1,0,right,1631.18,1632.012,1,0,right,1,1632.012,1632.012,1632.013,1633.511,0,24,24,24,1,0.8,0.2,0.8,0.2,,,,,,,,,,,,,,,0.314,,0.8,0.2,0.4,0.6,0.6,0.4,0.4,0.6,,,0.295,,0.4,0.6,0.6,0.4,0.2,0.8,0.6,0.4,1,0
,,66ee9fe856b8ab5a2aa44442,66fceb2270d9f9e3077dc964,2024-10-02_08h52.54.550,mdp,2024.2.1,Win32,59.73715651,66fa4ebf79326e780c390304,,,,,,,,,,,,,,,,,,,,,1633.513,1633.513,1633.514,1634.277,0,0,left,0.238,,1634.278,1634.976,1,1,right,1634.977,1635.759,1,1,right,0,1635.759,1635.759,1635.76,1637.257,0,25,25,25,1,0.8,0.2,0.8,0.2,,,,,,,,,,,,,,,0.178,,0.8,0.2,0.4,0.6,0.6,0.4,0.4,0.6,,,0.256,,0.8,0.2,0.8,0.2,0.2,0.8,0.6,0.4,1,0
,,66ee9fe856b8ab5a2aa44442,66fceb2270d9f9e3077dc964,2024-10-02_08h52.54.550,mdp,2024.2.1,Win32,59.73715651,66fa4ebf79326e780c390304,,,,,,,,,,,,,,,,,,,,,1637.258,1637.258,1637.259,1641.521,0,0,left,3.732,,1641.521,1642.203,1,1,right,1642.209,1642.902,0,1,left,0,1642.902,1642.902,1642.904,1644.401,0,26,26,26,1,0.8,0.2,0.8,0.2,,,,,,,,,,,,,,,0.152,,0.8,0.2,0.4,0.6,0.6,0.4,0.4,0.6,,,0.167,,0.8,0.2,0.8,0.2,0.2,0.8,0.6,0.4,1,0
,,66ee9fe856b8ab5a2aa44442,66fceb2270d9f9e3077dc964,2024-10-02_08h52.54.550,mdp,2024.2.1,Win32,59.73715651,66fa4ebf79326e780c390304,,,,,,,,,,,,,,,,,,,,,1644.402,1644.402,1644.404,1645.3,0,0,left,0.366,,1645.301,1646.083,1,0,right,1646.084,1646.916,1,0,right,1,1646.916,1646.916,1646.918,1648.415,0,27,27,27,1,0.8,0.2,0.8,0.2,,,,,,,,,,,,,,,0.264,,0.8,0.2,0.4,0.6,0.6,0.4,0.4,0.6,,,0.293,,0.8,0.2,0.8,0.2,0.2,0.8,0.6,0.4,1,0
,,66ee9fe856b8ab5a2aa44442,66fceb2270d9f9e3077dc964,2024-10-02_08h52.54.550,mdp,2024.2.1,Win32,59.73715651,66fa4ebf79326e780c390304,,,,,,,,,,,,,,,,,,,,,1648.415,1648.415,1648.416,1649.313,0,0,left,0.376,,1649.314,1650.213,1,1,right,1650.213,1651.145,1,0,right,1,1651.145,1651.145,1651.147,1652.644,0,28,28,28,1,0.8,0.2,0.8,0.2,,,,,,,,,,,,,,,0.391,,0.8,0.2,0.4,0.6,0.6,0.4,0.4,0.6,,,0.404,,0.8,0.2,0.8,0.2,0.2,0.8,0.6,0.4,1,0
,,66ee9fe856b8ab5a2aa44442,66fceb2270d9f9e3077dc964,2024-10-02_08h52.54.550,mdp,2024.2.1,Win32,59.73715651,66fa4ebf79326e780c390304,,,,,,,,,,,,,,,,,,,,,1652.644,1652.644,1652.645,1653.442,0,1,left,0.289,,1653.443,1654.293,1,1,right,1654.293,1655.175,1,0,right,1,1655.175,1655.175,1655.176,1656.674,0,29,29,29,1,0.8,0.2,0.8,0.2,,,,,,,,,,,,,,,0.329,,0.8,0.2,0.4,0.6,0.6,0.4,0.4,0.6,,,0.351,,0.2,0.8,0.4,0.6,0.2,0.8,0.6,0.4,1,0
,,66ee9fe856b8ab5a2aa44442,66fceb2270d9f9e3077dc964,2024-10-02_08h52.54.550,mdp,2024.2.1,Win32,59.73715651,66fa4ebf79326e780c390304,,,,,,,,,,,,,,,,,,,,,1656.674,1656.674,1656.675,1657.423,0,0,left,0.217,,1657.424,1659.488,1,1,right,1659.489,1660.537,1,1,right,0,1660.537,1660.537,1660.538,1662.035,0,30,30,30,1,0.8,0.2,0.8,0.2,,,,,,,,,,,,,,,1.532,,0.8,0.2,0.4,0.6,0.6,0.4,0.4,0.6,,,0.511,,0.2,0.8,0.4,0.6,0.2,0.8,0.6,0.4,1,0
,,66ee9fe856b8ab5a2aa44442,66fceb2270d9f9e3077dc964,2024-10-02_08h52.54.550,mdp,2024.2.1,Win32,59.73715651,66fa4ebf79326e780c390304,,,,,,,,,,,,,,,,,,,,,1662.036,1662.036,1662.037,1662.985,0,0,left,0.424,,1662.986,1663.817,1,1,right,1663.819,1665.033,1,0,right,1,1665.033,1665.033,1665.033,1666.532,0,31,31,31,1,0.8,0.2,0.8,0.2,,,,,,,,,,,,,,,0.301,,0.8,0.2,0.4,0.6,0.6,0.4,0.4,0.6,,,0.706,,0.2,0.8,0.4,0.6,0.2,0.8,0.6,0.4,1,0
,,66ee9fe856b8ab5a2aa44442,66fceb2270d9f9e3077dc964,2024-10-02_08h52.54.550,mdp,2024.2.1,Win32,59.73715651,66fa4ebf79326e780c390304,,,,,,,,,,,,,,,,,,,,,1666.533,1666.533,1666.533,1667.381,0,1,left,0.317,,1667.382,1668.247,1,1,right,1668.248,1670.445,0,1,left,0,1670.445,1670.445,1670.446,1671.943,0,32,32,32,1,0.8,0.2,0.8,0.2,,,,,,,,,,,,,,,0.347,,0.8,0.2,0.4,0.6,0.6,0.4,0.4,0.6,,,1.663,,0.2,0.8,0.4,0.6,0.2,0.8,0.6,0.4,1,0
,,66ee9fe856b8ab5a2aa44442,66fceb2270d9f9e3077dc964,2024-10-02_08h52.54.550,mdp,2024.2.1,Win32,59.73715651,66fa4ebf79326e780c390304,,,,,,,,,,,,,,,,,,,,,1671.944,1671.944,1671.945,1673.292,1,1,right,0.813,,1673.294,1674.108,1,0,right,1674.109,1675.425,1,0,right,1,1675.425,1675.425,1675.432,1676.923,0,33,33,33,1,0.8,0.2,0.8,0.2,,,,,,,,,,,,,,,0.3,,0.2,0.8,0.6,0.4,0.6,0.4,0.4,0.6,,,0.782,,0.2,0.8,0.4,0.6,0.2,0.8,0.6,0.4,1,0
,,66ee9fe856b8ab5a2aa44442,66fceb2270d9f9e3077dc964,2024-10-02_08h52.54.550,mdp,2024.2.1,Win32,59.73715651,66fa4ebf79326e780c390304,,,,,,,,,,,,,,,,,,,,,1676.924,1676.924,1676.925,1677.822,0,0,left,0.371,,1677.823,1678.888,1,1,right,1678.89,1679.853,1,0,right,1,1679.853,1679.853,1679.855,1681.352,0,34,34,34,1,0.8,0.2,0.8,0.2,,,,,,,,,,,,,,,0.549,,0.2,0.8,0.6,0.4,0.6,0.4,0.4,0.6,,,0.435,,0.4,0.6,0.6,0.4,0.2,0.8,0.6,0.4,1,0
,,66ee9fe856b8ab5a2aa44442,66fceb2270d9f9e3077dc964,2024-10-02_08h52.54.550,mdp,2024.2.1,Win32,59.73715651,66fa4ebf79326e780c390304,,,,,,,,,,,,,,,,,,,,,1681.353,1681.353,1681.354,1710.546,0,0,left,28.658,,1710.554,1711.642,1,0,right,1711.644,1712.492,1,0,right,1,1712.492,1712.492,1712.494,1713.991,0,35,35,35,1,0.8,0.2,0.8,0.2,,,,,,,,,,,,,,,0.577,,0.2,0.8,0.6,0.4,0.6,0.4,0.4,0.6,,,0.327,,0.4,0.6,0.6,0.4,0.2,0.8,0.6,0.4,1,0
,,66ee9fe856b8ab5a2aa44442,66fceb2270d9f9e3077dc964,2024-10-02_08h52.54.550,mdp,2024.2.1,Win32,59.73715651,66fa4ebf79326e780c390304,,,,,,,,,,,,,,,,,,,,,1713.993,1713.993,1713.995,1714.873,0,0,left,0.348,,1714.875,1715.455,1,0,right,1715.456,1716.122,1,0,right,1,1716.122,1716.122,1716.123,1717.621,0,36,36,36,1,0.8,0.2,0.8,0.2,,,,,,,,,,,,,,,0.069,,0.4,0.6,0.8,0.2,0.6,0.4,0.4,0.6,,,0.154,,0.4,0.6,0.6,0.4,0.2,0.8,0.6,0.4,1,0
,,66ee9fe856b8ab5a2aa44442,66fceb2270d9f9e3077dc964,2024-10-02_08h52.54.550,mdp,2024.2.1,Win32,59.73715651,66fa4ebf79326e780c390304,,,,,,,,,,,,,,,,,,,,,1717.622,1717.622,1717.623,1718.636,0,0,left,0.486,,1718.637,1719.636,1,0,right,1719.637,1720.984,1,0,right,1,1720.985,1720.985,1720.986,1722.483,0,37,37,37,1,0.8,0.2,0.8,0.2,,,,,,,,,,,,,,,0.465,,0.4,0.6,0.8,0.2,0.6,0.4,0.4,0.6,,,0.815,,0.4,0.6,0.6,0.4,0.2,0.8,0.6,0.4,1,0
,,66ee9fe856b8ab5a2aa44442,66fceb2270d9f9e3077dc964,2024-10-02_08h52.54.550,mdp,2024.2.1,Win32,59.73715651,66fa4ebf79326e780c390304,,,,,,,,,,,,,,,,,,,,,1722.484,1722.484,1722.485,1723.048,0,0,left,0.037,,1723.049,1723.914,1,0,right,1723.915,1724.798,1,0,right,1,1724.798,1724.798,1724.799,1726.297,0,38,38,38,1,0.8,0.2,0.8,0.2,,,,,,,,,,,,,,,0.338,,0.4,0.6,0.8,0.2,0.6,0.4,0.4,0.6,,,0.369,,0.4,0.6,0.6,0.4,0.2,0.8,0.6,0.4,1,0
,,66ee9fe856b8ab5a2aa44442,66fceb2270d9f9e3077dc964,2024-10-02_08h52.54.550,mdp,2024.2.1,Win32,59.73715651,66fa4ebf79326e780c390304,,,,,,,,,,,,,,,,,,,,,1726.297,1726.297,1726.299,1727.029,0,0,left,0.205,,1727.03,1727.828,1,1,right,1727.828,1728.694,1,1,right,0,1728.694,1728.694,1728.695,1730.193,0,39,39,39,1,0.8,0.2,0.8,0.2,,,,,,,,,,,,,,,0.275,,0.8,0.2,0.2,0.8,0.6,0.4,0.4,0.6,,,0.33,,0.4,0.6,0.6,0.4,0.2,0.8,0.6,0.4,1,0
,,66ee9fe856b8ab5a2aa44442,66fceb2270d9f9e3077dc964,2024-10-02_08h52.54.550,mdp,2024.2.1,Win32,59.73715651,66fa4ebf79326e780c390304,,,,,,,,,,,,,,,,,,,,,1730.194,1730.194,1730.195,1731.341,0,0,left,0.619,,1731.342,1732.191,1,0,right,1732.192,1733.056,1,0,right,1,1733.057,1733.057,1733.058,1734.556,0,40,40,40,1,0.8,0.2,0.8,0.2,,,,,,,,,,,,,,,0.333,,0.8,0.2,0.2,0.8,0.6,0.4,0.4,0.6,,,0.339,,0.4,0.6,0.6,0.4,0.2,0.8,0.6,0.4,1,0
,,66ee9fe856b8ab5a2aa44442,66fceb2270d9f9e3077dc964,2024-10-02_08h52.54.550,mdp,2024.2.1,Win32,59.73715651,66fa4ebf79326e780c390304,,,,,,,,,,,,,,,,,,,,,1734.557,1734.557,1734.558,1735.438,0,1,left,0.349,,1735.44,1736.354,1,0,right,1736.355,1737.336,1,0,right,1,1737.336,1737.336,1737.337,1738.836,0,41,41,41,1,0.8,0.2,0.8,0.2,,,,,,,,,,,,,,,0.378,,0.8,0.2,0.2,0.8,0.6,0.4,0.4,0.6,,,0.458,,0.4,0.6,0.6,0.4,0.6,0.4,0.2,0.8,1,0
,,66ee9fe856b8ab5a2aa44442,66fceb2270d9f9e3077dc964,2024-10-02_08h52.54.550,mdp,2024.2.1,Win32,59.73715651,66fa4ebf79326e780c390304,,,,,,,,,,,,,,,,,,,,,1738.836,1738.836,1738.838,1739.401,0,0,left,0.038,,1739.402,1740.284,1,1,right,1740.284,1741.166,1,1,right,0,1741.166,1741.166,1741.168,1742.667,0,42,42,42,1,0.8,0.2,0.8,0.2,,,,,,,,,,,,,,,0.366,,0.8,0.2,0.2,0.8,0.6,0.4,0.4,0.6,,,0.365,,0.4,0.6,0.6,0.4,0.6,0.4,0.2,0.8,1,0
,,66ee9fe856b8ab5a2aa44442,66fceb2270d9f9e3077dc964,2024-10-02_08h52.54.550,mdp,2024.2.1,Win32,59.73715651,66fa4ebf79326e780c390304,,,,,,,,,,,,,,,,,,,,,1742.668,1742.668,1742.672,1743.964,0,0,left,0.778,,1743.966,1744.847,1,1,right,1744.848,1746.078,1,0,right,1,1746.079,1746.079,1746.08,1747.578,0,43,43,43,1,0.8,0.2,0.8,0.2,,,,,,,,,,,,,,,0.369,,0.8,0.2,0.2,0.8,0.6,0.4,0.4,0.6,,,0.723,,0.4,0.6,0.6,0.4,0.6,0.4,0.2,0.8,1,0
,,66ee9fe856b8ab5a2aa44442,66fceb2270d9f9e3077dc964,2024-10-02_08h52.54.550,mdp,2024.2.1,Win32,59.73715651,66fa4ebf79326e780c390304,,,,,,,,,,,,,,,,,,,,,1747.579,1747.579,1747.581,1755.837,0,0,left,7.723,,1755.839,1757.086,1,0,right,1757.087,1758.451,1,1,right,0,1758.451,1758.451,1758.452,1759.95,0,44,44,44,1,0.8,0.2,0.8,0.2,,,,,,,,,,,,,,,0.724,,0.8,0.2,0.2,0.8,0.6,0.4,0.4,0.6,,,0.83,,0.4,0.6,0.6,0.4,0.2,0.8,0.6,0.4,1,0
,,66ee9fe856b8ab5a2aa44442,66fceb2270d9f9e3077dc964,2024-10-02_08h52.54.550,mdp,2024.2.1,Win32,59.73715651,66fa4ebf79326e780c390304,,,,,,,,,,,,,,,,,,,,,1759.95,1759.95,1759.952,1760.733,0,0,left,0.251,,1760.734,1761.582,1,1,right,1761.583,1762.448,1,0,right,1,1762.448,1762.448,1762.449,1763.946,0,45,45,45,1,0.8,0.2,0.8,0.2,,,,,,,,,,,,,,,0.32,,0.8,0.2,0.2,0.8,0.6,0.4,0.4,0.6,,,0.35,,0.4,0.6,0.6,0.4,0.2,0.8,0.6,0.4,1,0
,,66ee9fe856b8ab5a2aa44442,66fceb2270d9f9e3077dc964,2024-10-02_08h52.54.550,mdp,2024.2.1,Win32,59.73715651,66fa4ebf79326e780c390304,,,,,,,,,,,,,,,,,,,,,1763.947,1763.947,1763.948,1766.028,0,0,left,1.549,,1766.029,1766.844,1,0,right,1766.845,1767.711,0,0,left,1,1767.711,1767.711,1767.712,1769.209,0,46,46,46,1,0.8,0.2,0.8,0.2,,,,,,,,,,,,,,,0.285,,0.8,0.2,0.2,0.8,0.6,0.4,0.4,0.6,,,0.344,,0.4,0.6,0.6,0.4,0.2,0.8,0.6,0.4,1,0
,,66ee9fe856b8ab5a2aa44442,66fceb2270d9f9e3077dc964,2024-10-02_08h52.54.550,mdp,2024.2.1,Win32,59.73715651,66fa4ebf79326e780c390304,,,,,,,,,,,,,,,,,,,,,1769.209,1769.209,1769.209,1769.924,0,0,left,0.207,,1769.925,1770.74,1,1,right,1770.741,1771.64,1,0,right,1,1771.64,1771.64,1771.64,1773.138,0,47,47,47,1,0.8,0.2,0.8,0.2,,,,,,,,,,,,,,,0.299,,0.8,0.2,0.2,0.8,0.6,0.4,0.4,0.6,,,0.387,,0.4,0.6,0.6,0.4,0.2,0.8,0.6,0.4,1,0
,,66ee9fe856b8ab5a2aa44442,66fceb2270d9f9e3077dc964,2024-10-02_08h52.54.550,mdp,2024.2.1,Win32,59.73715651,66fa4ebf79326e780c390304,,,,,,,,,,,,,,,,,,,,,1773.139,1773.139,1773.14,1773.671,0,0,left,0.001,,1773.672,1774.638,0,0,left,1774.639,1775.521,1,0,right,1,1775.521,1775.521,1775.527,1777.019,0,48,48,48,1,0.8,0.2,0.8,0.2,,,,,,,,,,,,,,,0.449,,0.8,0.2,0.2,0.8,0.6,0.4,0.4,0.6,,,0.35,,0.4,0.6,0.6,0.4,0.2,0.8,0.6,0.4,1,0
,,66ee9fe856b8ab5a2aa44442,66fceb2270d9f9e3077dc964,2024-10-02_08h52.54.550,mdp,2024.2.1,Win32,59.73715651,66fa4ebf79326e780c390304,,,,,,,,,,,,,,,,,,,,,1777.02,1777.02,1777.021,1778.351,0,0,left,0.798,,1778.352,1778.934,1,1,right,1778.934,1779.55,0,1,left,0,1779.55,1779.55,1779.551,1781.048,0,49,49,49,1,0.8,0.2,0.8,0.2,,,,,,,,,,,,,,,0.052,,0.8,0.2,0.2,0.8,0.6,0.4,0.4,0.6,,,0.087,,0.4,0.6,0.6,0.4,0.2,0.8,0.6,0.4,1,0
,,66ee9fe856b8ab5a2aa44442,66fceb2270d9f9e3077dc964,2024-10-02_08h52.54.550,mdp,2024.2.1,Win32,59.73715651,66fa4ebf79326e780c390304,,,,,,,,,,,,,,,,,,,,,,,,,,,,,,,,,,,,,,,,,,,,,,,,,,,,,,,,1781.048,1851.862,0,2,2,2,1,imgs/dog.png,imgs/goat.png,imgs/elephant.png,imgs/rabbit.png,imgs/kangaroo.png,,,,,,,,,,,,,,,,,,,,,,,,
,,66ee9fe856b8ab5a2aa44442,66fceb2270d9f9e3077dc964,2024-10-02_08h52.54.550,mdp,2024.2.1,Win32,59.73715651,66fa4ebf79326e780c390304,,,,,,,,,,,,,,3,seqs/st3seq48.csv,1851.867,1857.218,space,2.024,,1857.23,1857.23,1857.233,1860.547,0,1,left,2.785,,1860.549,1862.713,0,0,left,1862.714,1864.078,1,0,right,1,1864.078,1864.078,1864.079,1865.577,0,0,0,0,1,0.8,0.2,0.8,0.2,,,,,,,,,,,,,,,1.631,,0.8,0.2,0.2,0.8,0.6,0.4,0.4,0.6,,,0.832,,0.4,0.6,0.6,0.4,0.2,0.8,0.6,0.4,1,0
,,66ee9fe856b8ab5a2aa44442,66fceb2270d9f9e3077dc964,2024-10-02_08h52.54.550,mdp,2024.2.1,Win32,59.73715651,66fa4ebf79326e780c390304,,,,,,,,,,,,,,,,,,,,,1865.578,1865.578,1865.579,1866.626,0,1,left,0.523,,1866.627,1867.475,1,1,right,1867.478,1868.29,0,1,left,0,1868.29,1868.29,1868.291,1869.79,0,1,1,1,1,0.8,0.2,0.8,0.2,,,,,,,,,,,,,,,0.316,,0.6,0.4,0.6,0.4,0.6,0.4,0.4,0.6,,,0.283,,0.4,0.6,0.6,0.4,0.2,0.8,0.6,0.4,1,0
,,66ee9fe856b8ab5a2aa44442,66fceb2270d9f9e3077dc964,2024-10-02_08h52.54.550,mdp,2024.2.1,Win32,59.73715651,66fa4ebf79326e780c390304,,,,,,,,,,,,,,,,,,,,,1869.79,1869.79,1869.792,1870.772,0,0,left,0.45,,1870.773,1871.671,1,0,right,1871.672,1872.47,1,0,right,1,1872.47,1872.47,1872.471,1873.969,0,2,2,2,1,0.8,0.2,0.8,0.2,,,,,,,,,,,,,,,0.364,,0.6,0.4,0.6,0.4,0.6,0.4,0.4,0.6,,,0.283,,0.4,0.6,0.6,0.4,0.2,0.8,0.6,0.4,1,0
,,66ee9fe856b8ab5a2aa44442,66fceb2270d9f9e3077dc964,2024-10-02_08h52.54.550,mdp,2024.2.1,Win32,59.73715651,66fa4ebf79326e780c390304,,,,,,,,,,,,,,,,,,,,,1873.969,1873.969,1873.97,1874.819,0,0,left,0.328,,1874.819,1875.668,1,0,right,1875.668,1876.55,1,0,right,1,1876.55,1876.55,1876.551,1878.049,0,3,3,3,1,0.8,0.2,0.8,0.2,,,,,,,,,,,,,,,0.309,,0.6,0.4,0.6,0.4,0.6,0.4,0.4,0.6,,,0.353,,0.4,0.6,0.6,0.4,0.2,0.8,0.6,0.4,1,0
,,66ee9fe856b8ab5a2aa44442,66fceb2270d9f9e3077dc964,2024-10-02_08h52.54.550,mdp,2024.2.1,Win32,59.73715651,66fa4ebf79326e780c390304,,,,,,,,,,,,,,,,,,,,,1878.049,1878.049,1878.05,1878.931,0,0,left,0.373,,1878.932,1879.78,1,1,right,1879.782,1880.647,1,0,right,1,1880.647,1880.647,1880.648,1882.145,0,4,4,4,1,0.8,0.2,0.8,0.2,,,,,,,,,,,,,,,0.334,,0.6,0.4,0.6,0.4,0.6,0.4,0.4,0.6,,,0.348,,0.4,0.6,0.6,0.4,0.2,0.8,0.6,0.4,1,0
,,66ee9fe856b8ab5a2aa44442,66fceb2270d9f9e3077dc964,2024-10-02_08h52.54.550,mdp,2024.2.1,Win32,59.73715651,66fa4ebf79326e780c390304,,,,,,,,,,,,,,,,,,,,,1882.146,1882.146,1882.147,1882.978,0,0,left,0.3,,1882.98,1883.861,0,0,left,1883.862,1884.709,1,0,right,1,1884.709,1884.709,1884.711,1886.209,0,5,5,5,1,0.8,0.2,0.8,0.2,,,,,,,,,,,,,,,0.351,,0.6,0.4,0.6,0.4,0.6,0.4,0.4,0.6,,,0.308,,0.4,0.6,0.6,0.4,0.2,0.8,0.6,0.4,1,0
,,66ee9fe856b8ab5a2aa44442,66fceb2270d9f9e3077dc964,2024-10-02_08h52.54.550,mdp,2024.2.1,Win32,59.73715651,66fa4ebf79326e780c390304,,,,,,,,,,,,,,,,,,,,,1886.209,1886.209,1886.21,1887.258,0,0,left,0.515,,1887.26,1888.14,1,0,right,1888.146,1888.89,1,0,right,1,1888.89,1888.89,1888.891,1890.389,0,6,6,6,1,0.8,0.2,0.8,0.2,,,,,,,,,,,,,,,0.349,,0.6,0.4,0.6,0.4,0.6,0.4,0.4,0.6,,,0.23,,0.4,0.6,0.6,0.4,0.2,0.8,0.6,0.4,1,0
,,66ee9fe856b8ab5a2aa44442,66fceb2270d9f9e3077dc964,2024-10-02_08h52.54.550,mdp,2024.2.1,Win32,59.73715651,66fa4ebf79326e780c390304,,,,,,,,,,,,,,,,,,,,,1890.39,1890.39,1890.391,1891.62,0,1,left,0.702,,1891.621,1892.42,1,1,right,1892.421,1893.486,1,0,right,1,1893.486,1893.486,1893.487,1894.984,0,7,7,7,1,0.2,0.8,0.6,0.4,,,,,,,,,,,,,,,0.283,,0.6,0.4,0.6,0.4,0.6,0.4,0.4,0.6,,,0.529,,0.4,0.6,0.6,0.4,0.2,0.8,0.6,0.4,1,0
,,66ee9fe856b8ab5a2aa44442,66fceb2270d9f9e3077dc964,2024-10-02_08h52.54.550,mdp,2024.2.1,Win32,59.73715651,66fa4ebf79326e780c390304,,,,,,,,,,,,,,,,,,,,,1894.985,1894.985,1894.986,1895.9,0,1,left,0.381,,1895.901,1896.75,0,0,left,1896.752,1897.582,1,0,right,1,1897.582,1897.582,1897.583,1899.081,0,8,8,8,1,0.2,0.8,0.6,0.4,,,,,,,,,,,,,,,0.338,,0.6,0.4,0.6,0.4,0.6,0.4,0.4,0.6,,,0.298,,0.4,0.6,0.6,0.4,0.2,0.8,0.6,0.4,1,0
,,66ee9fe856b8ab5a2aa44442,66fceb2270d9f9e3077dc964,2024-10-02_08h52.54.550,mdp,2024.2.1,Win32,59.73715651,66fa4ebf79326e780c390304,,,,,,,,,,,,,,,,,,,,,1899.082,1899.082,1899.082,1899.63,0,0,left,0.018,,1899.631,1900.463,0,0,left,1900.464,1901.079,1,1,right,0,1901.079,1901.079,1901.08,1902.577,0,9,9,9,1,0.2,0.8,0.6,0.4,,,,,,,,,,,,,,,0.315,,0.6,0.4,0.6,0.4,0.6,0.4,0.4,0.6,,,0.084,,0.4,0.6,0.6,0.4,0.2,0.8,0.6,0.4,1,0
,,66ee9fe856b8ab5a2aa44442,66fceb2270d9f9e3077dc964,2024-10-02_08h52.54.550,mdp,2024.2.1,Win32,59.73715651,66fa4ebf79326e780c390304,,,,,,,,,,,,,,,,,,,,,1902.578,1902.578,1902.579,1903.727,0,1,left,0.617,,1903.728,1904.376,1,1,right,1904.378,1905.325,0,1,left,0,1905.325,1905.325,1905.326,1906.824,0,10,10,10,1,0.2,0.8,0.6,0.4,,,,,,,,,,,,,,,0.131,,0.6,0.4,0.6,0.4,0.6,0.4,0.4,0.6,,,0.432,,0.4,0.6,0.6,0.4,0.2,0.8,0.6,0.4,1,0
,,66ee9fe856b8ab5a2aa44442,66fceb2270d9f9e3077dc964,2024-10-02_08h52.54.550,mdp,2024.2.1,Win32,59.73715651,66fa4ebf79326e780c390304,,,,,,,,,,,,,,,,,,,,,1906.824,1906.824,1906.826,1907.989,0,1,left,0.633,,1907.991,1908.673,1,1,right,1908.674,1909.488,1,1,right,0,1909.488,1909.488,1909.489,1910.987,0,11,11,11,1,0.2,0.8,0.6,0.4,,,,,,,,,,,,,,,0.15,,0.6,0.4,0.6,0.4,0.6,0.4,0.4,0.6,,,0.291,,0.4,0.6,0.6,0.4,0.2,0.8,0.6,0.4,1,0
,,66ee9fe856b8ab5a2aa44442,66fceb2270d9f9e3077dc964,2024-10-02_08h52.54.550,mdp,2024.2.1,Win32,59.73715651,66fa4ebf79326e780c390304,,,,,,,,,,,,,,,,,,,,,1910.988,1910.988,1910.989,1911.82,0,1,left,0.298,,1911.82,1912.402,1,0,right,1912.403,1913.068,1,1,right,0,1913.068,1913.068,1913.069,1915.471,0,12,12,12,1,0.2,0.8,0.6,0.4,,,,,,,,,,,,,,,0.05,,0.6,0.4,0.6,0.4,0.6,0.4,0.4,0.6,,,0.148,,0.4,0.6,0.6,0.4,0.2,0.8,0.6,0.4,1,0
,,66ee9fe856b8ab5a2aa44442,66fceb2270d9f9e3077dc964,2024-10-02_08h52.54.550,mdp,2024.2.1,Win32,59.73715651,66fa4ebf79326e780c390304,,,,,,,,,,,,,,,,,,,,,1915.472,1915.472,1915.472,1936.522,0,1,left,20.438,,1936.531,1937.119,0,0,left,1937.12,1937.851,1,0,right,1,1937.851,1937.851,1937.853,1939.35,0,13,13,13,1,0.2,0.8,0.6,0.4,,,,,,,,,,,,,,,0.072,,0.6,0.4,0.6,0.4,0.6,0.4,0.4,0.6,,,0.209,,0.4,0.6,0.6,0.4,0.2,0.8,0.6,0.4,1,0
,,66ee9fe856b8ab5a2aa44442,66fceb2270d9f9e3077dc964,2024-10-02_08h52.54.550,mdp,2024.2.1,Win32,59.73715651,66fa4ebf79326e780c390304,,,,,,,,,,,,,,,,,,,,,1939.351,1939.351,1939.353,1940.648,0,0,left,0.778,,1940.649,1941.315,0,0,left,1941.316,1942.547,1,0,right,1,1942.547,1942.547,1942.548,1944.574,0,14,14,14,1,0.2,0.8,0.6,0.4,,,,,,,,,,,,,,,0.147,,0.6,0.4,0.6,0.4,0.6,0.4,0.4,0.6,,,0.717,,0.4,0.6,0.6,0.4,0.2,0.8,0.6,0.4,1,0
,,66ee9fe856b8ab5a2aa44442,66fceb2270d9f9e3077dc964,2024-10-02_08h52.54.550,mdp,2024.2.1,Win32,59.73715651,66fa4ebf79326e780c390304,,,,,,,,,,,,,,,,,,,,,1944.575,1944.575,1944.575,1953.347,0,1,left,7.752,,1953.354,1954.827,1,1,right,1954.828,1955.66,1,0,right,1,1955.66,1955.66,1955.661,1957.158,0,15,15,15,1,0.2,0.8,0.6,0.4,,,,,,,,,,,,,,,0.95,,0.6,0.4,0.6,0.4,0.2,0.8,0.2,0.8,,,0.312,,0.4,0.6,0.6,0.4,0.2,0.8,0.6,0.4,1,0
,,66ee9fe856b8ab5a2aa44442,66fceb2270d9f9e3077dc964,2024-10-02_08h52.54.550,mdp,2024.2.1,Win32,59.73715651,66fa4ebf79326e780c390304,,,,,,,,,,,,,,,,,,,,,1957.16,1957.16,1957.161,1958.191,0,1,left,0.499,,1958.193,1959.639,0,1,left,1959.642,1960.488,1,0,right,1,1960.488,1960.488,1960.49,1961.987,0,16,16,16,1,0.2,0.8,0.6,0.4,,,,,,,,,,,,,,,0.919,,0.6,0.4,0.6,0.4,0.2,0.8,0.2,0.8,,,0.338,,0.4,0.6,0.6,0.4,0.2,0.8,0.6,0.4,1,0
,,66ee9fe856b8ab5a2aa44442,66fceb2270d9f9e3077dc964,2024-10-02_08h52.54.550,mdp,2024.2.1,Win32,59.73715651,66fa4ebf79326e780c390304,,,,,,,,,,,,,,,,,,,,,1961.988,1961.988,1961.989,1962.953,0,1,left,0.433,,1962.954,1963.753,1,1,right,1963.754,1964.585,1,1,right,0,1964.585,1964.585,1964.586,1966.084,0,17,17,17,1,0.2,0.8,0.6,0.4,,,,,,,,,,,,,,,0.292,,0.6,0.4,0.6,0.4,0.2,0.8,0.2,0.8,,,0.299,,0.4,0.6,0.6,0.4,0.4,0.6,0.4,0.6,1,0
,,66ee9fe856b8ab5a2aa44442,66fceb2270d9f9e3077dc964,2024-10-02_08h52.54.550,mdp,2024.2.1,Win32,59.73715651,66fa4ebf79326e780c390304,,,,,,,,,,,,,,,,,,,,,1966.085,1966.085,1966.086,1968.532,0,1,left,1.915,,1968.533,1969.381,0,1,left,1969.382,1970.78,1,0,right,1,1970.78,1970.78,1970.78,1972.279,0,18,18,18,1,0.2,0.8,0.6,0.4,,,,,,,,,,,,,,,0.338,,0.6,0.4,0.6,0.4,0.2,0.8,0.2,0.8,,,0.886,,0.4,0.6,0.6,0.4,0.2,0.8,0.6,0.4,1,0
,,66ee9fe856b8ab5a2aa44442,66fceb2270d9f9e3077dc964,2024-10-02_08h52.54.550,mdp,2024.2.1,Win32,59.73715651,66fa4ebf79326e780c390304,,,,,,,,,,,,,,,,,,,,,1972.279,1972.279,1972.28,1973.161,0,1,left,0.351,,1973.162,1974.027,0,1,left,1974.028,1974.909,1,0,right,1,1974.91,1974.91,1974.91,1976.408,0,19,19,19,1,0.2,0.8,0.6,0.4,,,,,,,,,,,,,,,0.351,,0.6,0.4,0.6,0.4,0.2,0.8,0.2,0.8,,,0.348,,0.4,0.6,0.6,0.4,0.2,0.8,0.6,0.4,1,0
,,66ee9fe856b8ab5a2aa44442,66fceb2270d9f9e3077dc964,2024-10-02_08h52.54.550,mdp,2024.2.1,Win32,59.73715651,66fa4ebf79326e780c390304,,,,,,,,,,,,,,,,,,,,,1976.408,1976.408,1976.409,1976.991,0,0,left,0.067,,1976.992,1977.84,0,0,left,1977.84,1978.656,1,0,right,1,1978.656,1978.656,1978.657,1980.155,0,20,20,20,1,0.2,0.8,0.6,0.4,,,,,,,,,,,,,,,0.335,,0.6,0.4,0.6,0.4,0.2,0.8,0.2,0.8,,,0.299,,0.4,0.6,0.6,0.4,0.2,0.8,0.6,0.4,1,0
,,66ee9fe856b8ab5a2aa44442,66fceb2270d9f9e3077dc964,2024-10-02_08h52.54.550,mdp,2024.2.1,Win32,59.73715651,66fa4ebf79326e780c390304,,,,,,,,,,,,,,,,,,,,,1980.155,1980.155,1980.157,1981.171,0,1,left,0.484,,1981.172,1982.07,0,1,left,1982.071,1983.119,1,1,right,0,1983.119,1983.119,1983.119,1984.617,0,21,21,21,1,0.2,0.8,0.6,0.4,,,,,,,,,,,,,,,0.364,,0.6,0.4,0.6,0.4,0.2,0.8,0.2,0.8,,,0.538,,0.4,0.6,0.6,0.4,0.8,0.2,0.4,0.6,1,0
,,66ee9fe856b8ab5a2aa44442,66fceb2270d9f9e3077dc964,2024-10-02_08h52.54.550,mdp,2024.2.1,Win32,59.73715651,66fa4ebf79326e780c390304,,,,,,,,,,,,,,,,,,,,,1984.621,1984.621,1984.624,1985.633,0,1,left,0.487,,1985.635,1986.55,1,1,right,1986.551,1987.415,1,1,right,0,1987.415,1987.415,1987.417,1988.914,0,22,22,22,1,0.2,0.8,0.6,0.4,,,,,,,,,,,,,,,0.398,,0.6,0.4,0.6,0.4,0.2,0.8,0.2,0.8,,,0.335,,0.4,0.6,0.6,0.4,0.6,0.4,0.2,0.8,1,0
,,66ee9fe856b8ab5a2aa44442,66fceb2270d9f9e3077dc964,2024-10-02_08h52.54.550,mdp,2024.2.1,Win32,59.73715651,66fa4ebf79326e780c390304,,,,,,,,,,,,,,,,,,,,,1988.915,1988.915,1988.917,1989.846,1,0,right,0.406,,1989.848,1990.779,0,0,left,1990.78,1993.593,0,0,left,1,1993.593,1993.593,1993.594,1995.093,0,23,23,23,1,0.2,0.8,0.6,0.4,,,,,,,,,,,,,,,0.409,,0.6,0.4,0.6,0.4,0.2,0.8,0.2,0.8,,,2.28,,0.4,0.6,0.6,0.4,0.6,0.4,0.2,0.8,1,0
,,66ee9fe856b8ab5a2aa44442,66fceb2270d9f9e3077dc964,2024-10-02_08h52.54.550,mdp,2024.2.1,Win32,59.73715651,66fa4ebf79326e780c390304,,,,,,,,,,,,,,,,,,,,,1995.094,1995.094,1995.096,1996.041,1,1,right,0.421,,1996.042,1997.624,0,1,left,1997.626,1998.506,1,0,right,1,1998.506,1998.506,1998.507,2000.005,0,24,24,24,1,0.2,0.8,0.6,0.4,,,,,,,,,,,,,,,1.063,,0.6,0.4,0.6,0.4,0.2,0.8,0.2,0.8,,,0.343,,0.4,0.6,0.6,0.4,0.4,0.6,0.8,0.2,1,0
,,66ee9fe856b8ab5a2aa44442,66fceb2270d9f9e3077dc964,2024-10-02_08h52.54.550,mdp,2024.2.1,Win32,59.73715651,66fa4ebf79326e780c390304,,,,,,,,,,,,,,,,,,,,,2000.006,2000.006,2000.007,2000.97,0,1,left,0.438,,2000.971,2001.869,1,1,right,2001.87,2002.752,1,1,right,0,2002.752,2002.752,2002.752,2004.25,0,25,25,25,1,0.2,0.8,0.6,0.4,,,,,,,,,,,,,,,0.382,,0.6,0.4,0.6,0.4,0.2,0.8,0.2,0.8,,,0.367,,0.4,0.6,0.6,0.4,0.4,0.6,0.8,0.2,1,0
,,66ee9fe856b8ab5a2aa44442,66fceb2270d9f9e3077dc964,2024-10-02_08h52.54.550,mdp,2024.2.1,Win32,59.73715651,66fa4ebf79326e780c390304,,,,,,,,,,,,,,,,,,,,,2004.251,2004.251,2004.253,2005.166,0,0,left,0.386,,2005.167,2005.999,1,1,right,2006,2007.697,0,1,left,0,2007.697,2007.697,2007.698,2009.196,0,26,26,26,1,0.2,0.8,0.6,0.4,,,,,,,,,,,,,,,0.313,,0.6,0.4,0.6,0.4,0.2,0.8,0.2,0.8,,,1.173,,0.4,0.6,0.6,0.4,0.4,0.6,0.8,0.2,1,0
,,66ee9fe856b8ab5a2aa44442,66fceb2270d9f9e3077dc964,2024-10-02_08h52.54.550,mdp,2024.2.1,Win32,59.73715651,66fa4ebf79326e780c390304,,,,,,,,,,,,,,,,,,,,,2009.197,2009.197,2009.199,2010.012,0,1,left,0.285,,2010.013,2011.128,0,1,left,2011.128,2011.977,1,0,right,1,2011.977,2011.977,2011.979,2013.476,0,27,27,27,1,0.2,0.8,0.6,0.4,,,,,,,,,,,,,,,0.599,,0.6,0.4,0.6,0.4,0.2,0.8,0.2,0.8,,,0.336,,0.4,0.6,0.6,0.4,0.4,0.6,0.8,0.2,1,0
,,66ee9fe856b8ab5a2aa44442,66fceb2270d9f9e3077dc964,2024-10-02_08h52.54.550,mdp,2024.2.1,Win32,59.73715651,66fa4ebf79326e780c390304,,,,,,,,,,,,,,,,,,,,,2013.478,2013.478,2013.48,2014.275,0,1,left,0.276,,2014.276,2015.141,0,1,left,2015.142,2016.057,1,0,right,1,2016.057,2016.057,2016.058,2017.556,0,28,28,28,1,0.2,0.8,0.6,0.4,,,,,,,,,,,,,,,0.355,,0.6,0.4,0.6,0.4,0.2,0.8,0.2,0.8,,,0.409,,0.4,0.6,0.6,0.4,0.4,0.6,0.8,0.2,1,0
,,66ee9fe856b8ab5a2aa44442,66fceb2270d9f9e3077dc964,2024-10-02_08h52.54.550,mdp,2024.2.1,Win32,59.73715651,66fa4ebf79326e780c390304,,,,,,,,,,,,,,,,,,,,,2017.563,2017.563,2017.568,2018.438,1,0,right,0.35,,2018.441,2019.504,0,0,left,2019.505,2020.437,0,1,left,0,2020.437,2020.437,2020.439,2021.935,0,29,29,29,1,0.2,0.8,0.6,0.4,,,,,,,,,,,,,,,0.53,,0.6,0.4,0.6,0.4,0.2,0.8,0.2,0.8,,,0.4,,0.4,0.6,0.6,0.4,0.4,0.6,0.8,0.2,1,0
,,66ee9fe856b8ab5a2aa44442,66fceb2270d9f9e3077dc964,2024-10-02_08h52.54.550,mdp,2024.2.1,Win32,59.73715651,66fa4ebf79326e780c390304,,,,,,,,,,,,,,,,,,,,,2021.936,2021.936,2021.937,2022.784,1,0,right,0.319,,2022.785,2023.7,0,0,left,2023.702,2024.499,1,0,right,1,2024.499,2024.499,2024.5,2025.998,0,30,30,30,1,0.2,0.8,0.6,0.4,,,,,,,,,,,,,,,0.401,,0.6,0.4,0.6,0.4,0.8,0.2,0.4,0.6,,,0.293,,0.4,0.6,0.6,0.4,0.4,0.6,0.8,0.2,1,0
,,66ee9fe856b8ab5a2aa44442,66fceb2270d9f9e3077dc964,2024-10-02_08h52.54.550,mdp,2024.2.1,Win32,59.73715651,66fa4ebf79326e780c390304,,,,,,,,,,,,,,,,,,,,,2025.999,2026,2026.001,2026.847,1,0,right,0.318,,2026.849,2027.83,0,1,left,2027.831,2028.729,1,0,right,1,2028.73,2028.73,2028.73,2030.228,0,31,31,31,1,0.2,0.8,0.6,0.4,,,,,,,,,,,,,,,0.447,,0.6,0.4,0.6,0.4,0.8,0.2,0.4,0.6,,,0.368,,0.4,0.6,0.6,0.4,0.4,0.6,0.8,0.2,1,0
,,66ee9fe856b8ab5a2aa44442,66fceb2270d9f9e3077dc964,2024-10-02_08h52.54.550,mdp,2024.2.1,Win32,59.73715651,66fa4ebf79326e780c390304,,,,,,,,,,,,,,,,,,,,,2030.229,2030.229,2030.23,2031.194,0,1,left,0.432,,2031.195,2032.092,0,0,left,2032.093,2032.925,1,1,right,0,2032.925,2032.925,2032.926,2034.424,0,32,32,32,1,0.2,0.8,0.6,0.4,,,,,,,,,,,,,,,0.386,,0.6,0.4,0.6,0.4,0.8,0.2,0.4,0.6,,,0.318,,0.4,0.6,0.6,0.4,0.4,0.6,0.8,0.2,1,0
,,66ee9fe856b8ab5a2aa44442,66fceb2270d9f9e3077dc964,2024-10-02_08h52.54.550,mdp,2024.2.1,Win32,59.73715651,66fa4ebf79326e780c390304,,,,,,,,,,,,,,,,,,,,,2034.425,2034.425,2034.427,2035.44,0,1,left,0.484,,2035.44,2036.19,1,1,right,2036.19,2037.039,1,1,right,0,2037.039,2037.039,2037.039,2038.538,0,33,33,33,1,0.2,0.8,0.6,0.4,,,,,,,,,,,,,,,0.235,,0.6,0.4,0.6,0.4,0.8,0.2,0.4,0.6,,,0.313,,0.6,0.4,0.8,0.2,0.4,0.6,0.8,0.2,1,0
,,66ee9fe856b8ab5a2aa44442,66fceb2270d9f9e3077dc964,2024-10-02_08h52.54.550,mdp,2024.2.1,Win32,59.73715651,66fa4ebf79326e780c390304,,,,,,,,,,,,,,,,,,,,,2038.538,2038.538,2038.539,2039.07,1,0,right,0.001,,2039.072,2040.186,0,1,left,2040.188,2040.968,1,1,right,0,2040.968,2040.968,2040.969,2042.468,0,34,34,34,1,0.2,0.8,0.6,0.4,,,,,,,,,,,,,,,0.573,,0.6,0.4,0.6,0.4,0.8,0.2,0.4,0.6,,,0.257,,0.6,0.4,0.8,0.2,0.6,0.4,0.2,0.8,1,0
,,66ee9fe856b8ab5a2aa44442,66fceb2270d9f9e3077dc964,2024-10-02_08h52.54.550,mdp,2024.2.1,Win32,59.73715651,66fa4ebf79326e780c390304,,,,,,,,,,,,,,,,,,,,,2042.469,2042.469,2042.471,2043.783,1,0,right,0.784,,2043.785,2044.598,0,1,left,2044.599,2045.431,1,0,right,1,2045.432,2045.432,2045.433,2046.93,0,35,35,35,1,0.2,0.8,0.6,0.4,,,,,,,,,,,,,,,0.293,,0.6,0.4,0.6,0.4,0.8,0.2,0.4,0.6,,,0.318,,0.6,0.4,0.8,0.2,0.6,0.4,0.2,0.8,1,0
,,66ee9fe856b8ab5a2aa44442,66fceb2270d9f9e3077dc964,2024-10-02_08h52.54.550,mdp,2024.2.1,Win32,59.73715651,66fa4ebf79326e780c390304,,,,,,,,,,,,,,,,,,,,,2046.93,2046.93,2046.931,2048.163,0,1,left,0.716,,2048.164,2049.028,1,1,right,2049.028,2049.879,1,1,right,0,2049.879,2049.879,2049.884,2051.377,0,36,36,36,1,0.2,0.8,0.6,0.4,,,,,,,,,,,,,,,0.337,,0.6,0.4,0.6,0.4,0.8,0.2,0.4,0.6,,,0.337,,0.6,0.4,0.8,0.2,0.6,0.4,0.2,0.8,1,0
,,66ee9fe856b8ab5a2aa44442,66fceb2270d9f9e3077dc964,2024-10-02_08h52.54.550,mdp,2024.2.1,Win32,59.73715651,66fa4ebf79326e780c390304,,,,,,,,,,,,,,,,,,,,,2051.38,2051.38,2051.382,2052.342,1,0,right,0.437,,2052.343,2053.475,0,0,left,2053.477,2054.324,0,0,left,1,2054.325,2054.325,2054.327,2055.823,0,37,37,37,1,0.2,0.8,0.6,0.4,,,,,,,,,,,,,,,0.597,,0.6,0.4,0.6,0.4,0.2,0.8,0.6,0.4,,,0.312,,0.6,0.4,0.8,0.2,0.6,0.4,0.2,0.8,1,0
,,66ee9fe856b8ab5a2aa44442,66fceb2270d9f9e3077dc964,2024-10-02_08h52.54.550,mdp,2024.2.1,Win32,59.73715651,66fa4ebf79326e780c390304,,,,,,,,,,,,,,,,,,,,,2055.824,2055.824,2055.825,2056.739,1,0,right,0.385,,2056.739,2057.638,0,1,left,2057.639,2058.453,0,0,left,1,2058.453,2058.453,2058.455,2059.952,0,38,38,38,1,0.2,0.8,0.6,0.4,,,,,,,,,,,,,,,0.377,,0.6,0.4,0.6,0.4,0.2,0.8,0.6,0.4,,,0.282,,0.6,0.4,0.8,0.2,0.6,0.4,0.2,0.8,1,0
,,66ee9fe856b8ab5a2aa44442,66fceb2270d9f9e3077dc964,2024-10-02_08h52.54.550,mdp,2024.2.1,Win32,59.73715651,66fa4ebf79326e780c390304,,,,,,,,,,,,,,,,,,,,,2059.953,2059.953,2059.954,2060.985,1,1,right,0.5,,2060.986,2061.701,0,1,left,2061.702,2062.532,0,0,left,1,2062.532,2062.532,2062.534,2064.031,0,39,39,39,1,0.2,0.8,0.6,0.4,,,,,,,,,,,,,,,0.18,,0.6,0.4,0.6,0.4,0.2,0.8,0.6,0.4,,,0.308,,0.6,0.4,0.8,0.2,0.6,0.4,0.2,0.8,1,0
,,66ee9fe856b8ab5a2aa44442,66fceb2270d9f9e3077dc964,2024-10-02_08h52.54.550,mdp,2024.2.1,Win32,59.73715651,66fa4ebf79326e780c390304,,,,,,,,,,,,,,,,,,,,,2064.032,2064.032,2064.033,2064.914,1,1,right,0.356,,2064.915,2065.814,0,1,left,2065.814,2066.596,0,0,left,1,2066.596,2066.596,2066.599,2068.095,0,40,40,40,1,0.2,0.8,0.6,0.4,,,,,,,,,,,,,,,0.388,,0.6,0.4,0.6,0.4,0.2,0.8,0.6,0.4,,,0.256,,0.6,0.4,0.8,0.2,0.6,0.4,0.2,0.8,1,0
,,66ee9fe856b8ab5a2aa44442,66fceb2270d9f9e3077dc964,2024-10-02_08h52.54.550,mdp,2024.2.1,Win32,59.73715651,66fa4ebf79326e780c390304,,,,,,,,,,,,,,,,,,,,,2068.095,2068.095,2068.096,2068.811,1,1,right,0.184,,2068.812,2069.61,0,1,left,2069.611,2070.692,1,0,right,1,2070.692,2070.692,2070.693,2072.191,0,41,41,41,1,0.2,0.8,0.6,0.4,,,,,,,,,,,,,,,0.289,,0.6,0.4,0.6,0.4,0.2,0.8,0.6,0.4,,,0.547,,0.6,0.4,0.8,0.2,0.6,0.4,0.2,0.8,1,0
,,66ee9fe856b8ab5a2aa44442,66fceb2270d9f9e3077dc964,2024-10-02_08h52.54.550,mdp,2024.2.1,Win32,59.73715651,66fa4ebf79326e780c390304,,,,,,,,,,,,,,,,,,,,,2072.192,2072.192,2072.193,2072.841,1,1,right,0.116,,2072.842,2073.823,0,1,left,2073.824,2074.672,0,1,left,0,2074.672,2074.672,2074.673,2076.171,0,42,42,42,1,0.2,0.8,0.6,0.4,,,,,,,,,,,,,,,0.451,,0.6,0.4,0.6,0.4,0.2,0.8,0.6,0.4,,,0.323,,0.6,0.4,0.8,0.2,0.6,0.4,0.2,0.8,1,0
,,66ee9fe856b8ab5a2aa44442,66fceb2270d9f9e3077dc964,2024-10-02_08h52.54.550,mdp,2024.2.1,Win32,59.73715651,66fa4ebf79326e780c390304,,,,,,,,,,,,,,,,,,,,,2076.171,2076.171,2076.174,2077.12,1,0,right,0.431,,2077.121,2077.97,1,1,right,2077.971,2078.802,0,0,left,1,2078.802,2078.802,2078.803,2080.301,0,43,43,43,1,0.2,0.8,0.6,0.4,,,,,,,,,,,,,,,0.338,,0.6,0.4,0.6,0.4,0.2,0.8,0.6,0.4,,,0.312,,0.6,0.4,0.8,0.2,0.6,0.4,0.2,0.8,1,0
,,66ee9fe856b8ab5a2aa44442,66fceb2270d9f9e3077dc964,2024-10-02_08h52.54.550,mdp,2024.2.1,Win32,59.73715651,66fa4ebf79326e780c390304,,,,,,,,,,,,,,,,,,,,,2080.301,2080.301,2080.302,2081.433,1,1,right,0.606,,2081.434,2082.216,0,1,left,2082.217,2082.982,0,0,left,1,2082.982,2082.982,2082.983,2084.481,0,44,44,44,1,0.2,0.8,0.6,0.4,,,,,,,,,,,,,,,0.264,,0.6,0.4,0.6,0.4,0.2,0.8,0.6,0.4,,,0.238,,0.6,0.4,0.8,0.2,0.6,0.4,0.2,0.8,1,0
,,66ee9fe856b8ab5a2aa44442,66fceb2270d9f9e3077dc964,2024-10-02_08h52.54.550,mdp,2024.2.1,Win32,59.73715651,66fa4ebf79326e780c390304,,,,,,,,,,,,,,,,,,,,,2084.483,2084.483,2084.485,2085.462,1,0,right,0.459,,2085.464,2086.28,0,1,left,2086.28,2087.127,0,1,left,0,2087.127,2087.127,2087.128,2088.627,0,45,45,45,1,0.2,0.8,0.6,0.4,,,,,,,,,,,,,,,0.297,,0.6,0.4,0.6,0.4,0.2,0.8,0.6,0.4,,,0.325,,0.6,0.4,0.8,0.2,0.6,0.4,0.2,0.8,1,0
,,66ee9fe856b8ab5a2aa44442,66fceb2270d9f9e3077dc964,2024-10-02_08h52.54.550,mdp,2024.2.1,Win32,59.73715651,66fa4ebf79326e780c390304,,,,,,,,,,,,,,,,,,,,,2088.627,2088.627,2088.629,2089.426,0,1,left,0.269,,2089.428,2090.126,1,0,right,2090.127,2090.975,1,0,right,1,2090.975,2090.975,2090.975,2092.474,0,46,46,46,1,0.2,0.8,0.6,0.4,,,,,,,,,,,,,,,0.189,,0.6,0.4,0.6,0.4,0.2,0.8,0.6,0.4,,,0.318,,0.6,0.4,0.8,0.2,0.6,0.4,0.2,0.8,1,0
,,66ee9fe856b8ab5a2aa44442,66fceb2270d9f9e3077dc964,2024-10-02_08h52.54.550,mdp,2024.2.1,Win32,59.73715651,66fa4ebf79326e780c390304,,,,,,,,,,,,,,,,,,,,,2092.474,2092.474,2092.475,2093.339,0,1,left,0.337,,2093.34,2094.089,1,0,right,2094.089,2094.872,1,0,right,1,2094.872,2094.872,2094.872,2096.37,0,47,47,47,1,0.2,0.8,0.6,0.4,,,,,,,,,,,,,,,0.24,,0.6,0.4,0.6,0.4,0.2,0.8,0.6,0.4,,,0.251,,0.6,0.4,0.8,0.2,0.6,0.4,0.2,0.8,1,0
,,66ee9fe856b8ab5a2aa44442,66fceb2270d9f9e3077dc964,2024-10-02_08h52.54.550,mdp,2024.2.1,Win32,59.73715651,66fa4ebf79326e780c390304,,,,,,,,,,,,,,,,,,,,,2096.371,2096.371,2096.372,2097.253,0,1,left,0.349,,2097.254,2098.136,1,1,right,2098.138,2098.968,1,1,right,0,2098.969,2098.969,2098.969,2104.978,0,48,48,48,1,0.2,0.8,0.6,0.4,,,,,,,,,,,,,,,0.35,,0.6,0.4,0.6,0.4,0.2,0.8,0.6,0.4,,,0.3,,0.6,0.4,0.8,0.2,0.6,0.4,0.2,0.8,1,0
,,66ee9fe856b8ab5a2aa44442,66fceb2270d9f9e3077dc964,2024-10-02_08h52.54.550,mdp,2024.2.1,Win32,59.73715651,66fa4ebf79326e780c390304,,,,,,,,,,,,,,,,,,,,,2104.98,2104.98,2104.982,2106.711,0,1,left,1.204,,2106.712,2108.076,0,1,left,2108.077,2108.692,1,0,right,1,2108.692,2108.692,2108.693,2110.191,0,49,49,49,1,0.2,0.8,0.6,0.4,,,,,,,,,,,,,,,0.836,,0.6,0.4,0.6,0.4,0.2,0.8,0.6,0.4,,,0.089,,0.6,0.4,0.8,0.2,0.6,0.4,0.2,0.8,1,0
,,66ee9fe856b8ab5a2aa44442,66fceb2270d9f9e3077dc964,2024-10-02_08h52.54.550,mdp,2024.2.1,Win32,59.73715651,66fa4ebf79326e780c390304,,,,,,,,,,,,,,,,,,,,,,,,,,,,,,,,,,,,,,,,,,,,,,,,,,,,,,,,2110.191,2174.168,0,3,3,3,1,imgs/giraffe.png,imgs/horse.png,imgs/squirrel.png,imgs/bear.png,imgs/rabbit.png,,,,,,,,,,,,,,,,,,,,,,,,
,,66ee9fe856b8ab5a2aa44442,66fceb2270d9f9e3077dc964,2024-10-02_08h52.54.550,mdp,2024.2.1,Win32,59.73715651,66fa4ebf79326e780c390304,,,,,,,,,,,,,,1,seqs/st1seq34.csv,2174.171,2193.192,space,14.765,,2193.198,2193.198,2193.199,2196.122,0,0,left,2.398,,2196.124,2196.127,0,1,,2196.129,2196.129,1,0,,1,2196.129,2196.129,2196.13,2197.62,0,0,0,0,1,0.6,0.4,0.2,0.8,1,0,,,,,,,,,,,,,,,,,,,,,,,,,,,,,,,,,,,,
,,66ee9fe856b8ab5a2aa44442,66fceb2270d9f9e3077dc964,2024-10-02_08h52.54.550,mdp,2024.2.1,Win32,59.73715651,66fa4ebf79326e780c390304,,,,,,,,,,,,,,,,,,,,,2197.621,2197.621,2197.622,2198.719,1,0,right,0.567,,2198.72,2198.722,0,1,,2198.724,2198.725,1,1,,1,2198.725,2198.725,2198.725,2200.218,0,1,1,1,1,0.6,0.4,0.2,0.8,1,0,,,,,,,,,,,,,,,,,,,,,,,,,,,,,,,,,,,,
,,66ee9fe856b8ab5a2aa44442,66fceb2270d9f9e3077dc964,2024-10-02_08h52.54.550,mdp,2024.2.1,Win32,59.73715651,66fa4ebf79326e780c390304,,,,,,,,,,,,,,,,,,,,,2200.219,2200.219,2200.221,2201.318,1,1,right,0.575,,2201.319,2201.32,0,1,,2201.321,2201.322,1,0,,0,2201.322,2201.322,2201.324,2202.816,0,2,2,2,1,0.6,0.4,0.2,0.8,1,0,,,,,,,,,,,,,,,,,,,,,,,,,,,,,,,,,,,,
,,66ee9fe856b8ab5a2aa44442,66fceb2270d9f9e3077dc964,2024-10-02_08h52.54.550,mdp,2024.2.1,Win32,59.73715651,66fa4ebf79326e780c390304,,,,,,,,,,,,,,,,,,,,,2202.817,2202.817,2202.818,2203.715,1,1,right,0.376,,2203.716,2203.717,0,1,,2203.718,2203.719,1,1,,0,2203.719,2203.719,2203.721,2205.214,0,3,3,3,1,0.6,0.4,0.2,0.8,1,0,,,,,,,,,,,,,,,,,,,,,,,,,,,,,,,,,,,,
,,66ee9fe856b8ab5a2aa44442,66fceb2270d9f9e3077dc964,2024-10-02_08h52.54.550,mdp,2024.2.1,Win32,59.73715651,66fa4ebf79326e780c390304,,,,,,,,,,,,,,,,,,,,,2205.215,2205.215,2205.216,2206.08,1,1,right,0.335,,2206.08,2206.082,0,1,,2206.082,2206.084,1,0,,0,2206.084,2206.084,2206.085,2207.579,0,4,4,4,1,0.6,0.4,0.2,0.8,1,0,,,,,,,,,,,,,,,,,,,,,,,,,,,,,,,,,,,,
,,66ee9fe856b8ab5a2aa44442,66fceb2270d9f9e3077dc964,2024-10-02_08h52.54.550,mdp,2024.2.1,Win32,59.73715651,66fa4ebf79326e780c390304,,,,,,,,,,,,,,,,,,,,,2207.579,2207.579,2207.581,2208.478,0,0,left,0.372,,2208.479,2208.48,0,1,,2208.481,2208.481,1,0,,1,2208.481,2208.481,2208.481,2209.977,0,5,5,5,1,0.6,0.4,0.2,0.8,1,0,,,,,,,,,,,,,,,,,,,,,,,,,,,,,,,,,,,,
,,66ee9fe856b8ab5a2aa44442,66fceb2270d9f9e3077dc964,2024-10-02_08h52.54.550,mdp,2024.2.1,Win32,59.73715651,66fa4ebf79326e780c390304,,,,,,,,,,,,,,,,,,,,,2209.977,2209.977,2209.978,2210.875,0,0,left,0.376,,2210.876,2210.878,0,0,,2210.878,2210.879,1,1,,1,2210.879,2210.879,2210.881,2212.374,0,6,6,6,1,0.6,0.4,0.2,0.8,1,0,,,,,,,,,,,,,,,,,,,,,,,,,,,,,,,,,,,,
,,66ee9fe856b8ab5a2aa44442,66fceb2270d9f9e3077dc964,2024-10-02_08h52.54.550,mdp,2024.2.1,Win32,59.73715651,66fa4ebf79326e780c390304,,,,,,,,,,,,,,,,,,,,,2212.375,2212.375,2212.377,2212.941,0,0,left,0.035,,2212.942,2212.943,0,1,,2212.943,2212.944,1,0,,1,2212.944,2212.944,2212.944,2214.439,0,7,7,7,1,0.6,0.4,0.2,0.8,1,0,,,,,,,,,,,,,,,,,,,,,,,,,,,,,,,,,,,,
,,66ee9fe856b8ab5a2aa44442,66fceb2270d9f9e3077dc964,2024-10-02_08h52.54.550,mdp,2024.2.1,Win32,59.73715651,66fa4ebf79326e780c390304,,,,,,,,,,,,,,,,,,,,,2214.44,2214.44,2214.441,2215.238,1,0,right,0.273,,2215.239,2215.24,0,1,,2215.241,2215.241,1,1,,1,2215.241,2215.241,2215.242,2216.737,0,8,8,8,1,0.2,0.8,0.8,0.2,1,0,,,,,,,,,,,,,,,,,,,,,,,,,,,,,,,,,,,,
,,66ee9fe856b8ab5a2aa44442,66fceb2270d9f9e3077dc964,2024-10-02_08h52.54.550,mdp,2024.2.1,Win32,59.73715651,66fa4ebf79326e780c390304,,,,,,,,,,,,,,,,,,,,,2216.738,2216.738,2216.739,2217.32,0,0,left,0.052,,2217.321,2217.322,0,1,,2217.323,2217.323,1,1,,1,2217.323,2217.323,2217.323,2218.819,0,9,9,9,1,0.2,0.8,0.8,0.2,1,0,,,,,,,,,,,,,,,,,,,,,,,,,,,,,,,,,,,,
,,66ee9fe856b8ab5a2aa44442,66fceb2270d9f9e3077dc964,2024-10-02_08h52.54.550,mdp,2024.2.1,Win32,59.73715651,66fa4ebf79326e780c390304,,,,,,,,,,,,,,,,,,,,,2218.82,2218.82,2218.82,2219.701,0,1,left,0.353,,2219.702,2219.703,0,1,,2219.704,2219.704,1,1,,0,2219.704,2219.704,2219.706,2221.2,0,10,10,10,1,0.2,0.8,0.8,0.2,1,0,,,,,,,,,,,,,,,,,,,,,,,,,,,,,,,,,,,,
,,66ee9fe856b8ab5a2aa44442,66fceb2270d9f9e3077dc964,2024-10-02_08h52.54.550,mdp,2024.2.1,Win32,59.73715651,66fa4ebf79326e780c390304,,,,,,,,,,,,,,,,,,,,,2221.203,2221.203,2221.208,2221.932,1,0,right,0.202,,2221.935,2221.939,0,1,,2221.939,2221.939,1,0,,1,2221.94,2221.94,2221.94,2223.431,0,11,11,11,1,0.2,0.8,0.8,0.2,1,0,,,,,,,,,,,,,,,,,,,,,,,,,,,,,,,,,,,,
,,66ee9fe856b8ab5a2aa44442,66fceb2270d9f9e3077dc964,2024-10-02_08h52.54.550,mdp,2024.2.1,Win32,59.73715651,66fa4ebf79326e780c390304,,,,,,,,,,,,,,,,,,,,,2223.431,2223.431,2223.432,2224.281,1,0,right,0.335,,2224.283,2224.286,0,0,,2224.287,2224.288,1,0,,1,2224.288,2224.288,2224.288,2225.779,0,12,12,12,1,0.2,0.8,0.8,0.2,1,0,,,,,,,,,,,,,,,,,,,,,,,,,,,,,,,,,,,,
,,66ee9fe856b8ab5a2aa44442,66fceb2270d9f9e3077dc964,2024-10-02_08h52.54.550,mdp,2024.2.1,Win32,59.73715651,66fa4ebf79326e780c390304,,,,,,,,,,,,,,,,,,,,,2225.78,2225.78,2225.781,2226.412,0,1,left,0.102,,2226.413,2226.415,0,0,,2226.418,2226.419,1,1,,0,2226.419,2226.419,2226.419,2227.911,0,13,13,13,1,0.2,0.8,0.8,0.2,1,0,,,,,,,,,,,,,,,,,,,,,,,,,,,,,,,,,,,,
,,66ee9fe856b8ab5a2aa44442,66fceb2270d9f9e3077dc964,2024-10-02_08h52.54.550,mdp,2024.2.1,Win32,59.73715651,66fa4ebf79326e780c390304,,,,,,,,,,,,,,,,,,,,,2227.912,2227.912,2227.913,2228.593,1,1,right,0.15,,2228.595,2228.596,0,0,,2228.597,2228.599,1,1,,0,2228.599,2228.599,2228.6,2230.092,0,14,14,14,1,0.2,0.8,0.8,0.2,1,0,,,,,,,,,,,,,,,,,,,,,,,,,,,,,,,,,,,,
,,66ee9fe856b8ab5a2aa44442,66fceb2270d9f9e3077dc964,2024-10-02_08h52.54.550,mdp,2024.2.1,Win32,59.73715651,66fa4ebf79326e780c390304,,,,,,,,,,,,,,,,,,,,,2230.093,2230.093,2230.095,2230.875,0,0,left,0.252,,2230.876,2230.876,0,0,,2230.877,2230.878,1,1,,1,2230.878,2230.878,2230.88,2232.373,0,15,15,15,1,0.6,0.4,0.4,0.6,1,0,,,,,,,,,,,,,,,,,,,,,,,,,,,,,,,,,,,,
,,66ee9fe856b8ab5a2aa44442,66fceb2270d9f9e3077dc964,2024-10-02_08h52.54.550,mdp,2024.2.1,Win32,59.73715651,66fa4ebf79326e780c390304,,,,,,,,,,,,,,,,,,,,,2232.374,2232.374,2232.374,2233.14,0,0,left,0.235,,2233.141,2233.142,0,1,,2233.144,2233.145,1,0,,1,2233.145,2233.145,2233.146,2234.639,0,16,16,16,1,0.6,0.4,0.4,0.6,1,0,,,,,,,,,,,,,,,,,,,,,,,,,,,,,,,,,,,,
,,66ee9fe856b8ab5a2aa44442,66fceb2270d9f9e3077dc964,2024-10-02_08h52.54.550,mdp,2024.2.1,Win32,59.73715651,66fa4ebf79326e780c390304,,,,,,,,,,,,,,,,,,,,,2234.639,2234.639,2234.64,2235.187,0,1,left,0.018,,2235.188,2235.19,0,1,,2235.19,2235.191,1,1,,0,2235.192,2235.192,2235.192,2236.686,0,17,17,17,1,0.2,0.8,0.8,0.2,1,0,,,,,,,,,,,,,,,,,,,,,,,,,,,,,,,,,,,,
,,66ee9fe856b8ab5a2aa44442,66fceb2270d9f9e3077dc964,2024-10-02_08h52.54.550,mdp,2024.2.1,Win32,59.73715651,66fa4ebf79326e780c390304,,,,,,,,,,,,,,,,,,,,,2236.687,2236.687,2236.688,2237.269,0,1,left,0.051,,2237.27,2237.271,0,1,,2237.272,2237.273,1,1,,0,2237.274,2237.274,2237.274,2238.768,0,18,18,18,1,0.2,0.8,0.8,0.2,1,0,,,,,,,,,,,,,,,,,,,,,,,,,,,,,,,,,,,,
,,66ee9fe856b8ab5a2aa44442,66fceb2270d9f9e3077dc964,2024-10-02_08h52.54.550,mdp,2024.2.1,Win32,59.73715651,66fa4ebf79326e780c390304,,,,,,,,,,,,,,,,,,,,,2238.768,2238.768,2238.769,2239.384,1,0,right,0.084,,2239.385,2239.386,0,0,,2239.387,2239.388,1,0,,1,2239.388,2239.388,2239.389,2240.883,0,19,19,19,1,0.2,0.8,0.8,0.2,1,0,,,,,,,,,,,,,,,,,,,,,,,,,,,,,,,,,,,,
,,66ee9fe856b8ab5a2aa44442,66fceb2270d9f9e3077dc964,2024-10-02_08h52.54.550,mdp,2024.2.1,Win32,59.73715651,66fa4ebf79326e780c390304,,,,,,,,,,,,,,,,,,,,,2240.883,2240.883,2240.885,2241.615,1,1,right,0.199,,2241.616,2241.618,0,1,,2241.619,2241.621,1,0,,0,2241.621,2241.621,2241.622,2243.114,0,20,20,20,1,0.8,0.2,0.4,0.6,1,0,,,,,,,,,,,,,,,,,,,,,,,,,,,,,,,,,,,,
,,66ee9fe856b8ab5a2aa44442,66fceb2270d9f9e3077dc964,2024-10-02_08h52.54.550,mdp,2024.2.1,Win32,59.73715651,66fa4ebf79326e780c390304,,,,,,,,,,,,,,,,,,,,,2243.115,2243.115,2243.116,2243.93,0,0,left,0.292,,2243.931,2243.932,0,1,,2243.932,2243.933,1,0,,1,2243.933,2243.933,2243.934,2245.429,0,21,21,21,1,0.8,0.2,0.4,0.6,1,0,,,,,,,,,,,,,,,,,,,,,,,,,,,,,,,,,,,,
,,66ee9fe856b8ab5a2aa44442,66fceb2270d9f9e3077dc964,2024-10-02_08h52.54.550,mdp,2024.2.1,Win32,59.73715651,66fa4ebf79326e780c390304,,,,,,,,,,,,,,,,,,,,,2245.429,2245.429,2245.43,2246.211,1,1,right,0.255,,2246.212,2246.213,0,0,,2246.213,2246.214,1,1,,0,2246.214,2246.214,2246.215,2247.71,0,22,22,22,1,0.8,0.2,0.4,0.6,1,0,,,,,,,,,,,,,,,,,,,,,,,,,,,,,,,,,,,,
,,66ee9fe856b8ab5a2aa44442,66fceb2270d9f9e3077dc964,2024-10-02_08h52.54.550,mdp,2024.2.1,Win32,59.73715651,66fa4ebf79326e780c390304,,,,,,,,,,,,,,,,,,,,,2247.71,2247.71,2247.711,2248.376,0,0,left,0.14,,2248.377,2248.379,0,1,,2248.379,2248.38,1,1,,1,2248.38,2248.38,2248.38,2249.875,0,23,23,23,1,0.8,0.2,0.4,0.6,1,0,,,,,,,,,,,,,,,,,,,,,,,,,,,,,,,,,,,,
,,66ee9fe856b8ab5a2aa44442,66fceb2270d9f9e3077dc964,2024-10-02_08h52.54.550,mdp,2024.2.1,Win32,59.73715651,66fa4ebf79326e780c390304,,,,,,,,,,,,,,,,,,,,,2249.875,2249.875,2249.876,2250.507,0,1,left,0.099,,2250.509,2250.509,0,0,,2250.51,2250.51,1,0,,0,2250.51,2250.51,2250.511,2252.007,0,24,24,24,1,0.6,0.4,0.8,0.2,1,0,,,,,,,,,,,,,,,,,,,,,,,,,,,,,,,,,,,,
,,66ee9fe856b8ab5a2aa44442,66fceb2270d9f9e3077dc964,2024-10-02_08h52.54.550,mdp,2024.2.1,Win32,59.73715651,66fa4ebf79326e780c390304,,,,,,,,,,,,,,,,,,,,,2252.007,2252.007,2252.008,2252.789,1,0,right,0.248,,2252.79,2252.793,0,0,,2252.794,2252.794,1,1,,1,2252.794,2252.794,2252.795,2254.288,0,25,25,25,1,0.6,0.4,0.8,0.2,1,0,,,,,,,,,,,,,,,,,,,,,,,,,,,,,,,,,,,,
,,66ee9fe856b8ab5a2aa44442,66fceb2270d9f9e3077dc964,2024-10-02_08h52.54.550,mdp,2024.2.1,Win32,59.73715651,66fa4ebf79326e780c390304,,,,,,,,,,,,,,,,,,,,,2254.291,2254.291,2254.294,2255.087,1,0,right,0.278,,2255.089,2255.09,0,0,,2255.09,2255.091,1,1,,1,2255.091,2255.091,2255.091,2256.586,0,26,26,26,1,0.6,0.4,0.8,0.2,1,0,,,,,,,,,,,,,,,,,,,,,,,,,,,,,,,,,,,,
,,66ee9fe856b8ab5a2aa44442,66fceb2270d9f9e3077dc964,2024-10-02_08h52.54.550,mdp,2024.2.1,Win32,59.73715651,66fa4ebf79326e780c390304,,,,,,,,,,,,,,,,,,,,,2256.586,2256.586,2256.588,2257.868,0,0,left,0.753,,2257.869,2257.87,0,0,,2257.871,2257.872,1,1,,1,2257.872,2257.872,2257.872,2259.367,0,27,27,27,1,0.6,0.4,0.8,0.2,1,0,,,,,,,,,,,,,,,,,,,,,,,,,,,,,,,,,,,,
,,66ee9fe856b8ab5a2aa44442,66fceb2270d9f9e3077dc964,2024-10-02_08h52.54.550,mdp,2024.2.1,Win32,59.73715651,66fa4ebf79326e780c390304,,,,,,,,,,,,,,,,,,,,,2259.367,2259.367,2259.368,2260.766,0,1,left,0.869,,2260.767,2260.769,0,1,,2260.771,2260.772,1,1,,0,2260.772,2260.772,2260.772,2262.264,0,28,28,28,1,0.6,0.4,0.8,0.2,1,0,,,,,,,,,,,,,,,,,,,,,,,,,,,,,,,,,,,,
,,66ee9fe856b8ab5a2aa44442,66fceb2270d9f9e3077dc964,2024-10-02_08h52.54.550,mdp,2024.2.1,Win32,59.73715651,66fa4ebf79326e780c390304,,,,,,,,,,,,,,,,,,,,,2262.265,2262.265,2262.266,2262.813,1,1,right,0.023,,2262.814,2262.816,0,0,,2262.817,2262.818,1,1,,0,2262.818,2262.818,2262.819,2264.312,0,29,29,29,1,0.6,0.4,0.8,0.2,1,0,,,,,,,,,,,,,,,,,,,,,,,,,,,,,,,,,,,,
,,66ee9fe856b8ab5a2aa44442,66fceb2270d9f9e3077dc964,2024-10-02_08h52.54.550,mdp,2024.2.1,Win32,59.73715651,66fa4ebf79326e780c390304,,,,,,,,,,,,,,,,,,,,,2264.312,2264.312,2264.313,2265.162,1,0,right,0.339,,2265.163,2265.164,0,0,,2265.164,2265.165,1,1,,1,2265.166,2265.166,2265.168,2266.661,0,30,30,30,1,0.6,0.4,0.8,0.2,1,0,,,,,,,,,,,,,,,,,,,,,,,,,,,,,,,,,,,,
,,66ee9fe856b8ab5a2aa44442,66fceb2270d9f9e3077dc964,2024-10-02_08h52.54.550,mdp,2024.2.1,Win32,59.73715651,66fa4ebf79326e780c390304,,,,,,,,,,,,,,,,,,,,,2266.661,2266.661,2266.662,2267.526,0,1,left,0.339,,2267.527,2267.528,0,1,,2267.529,2267.529,1,0,,0,2267.529,2267.529,2267.531,2269.025,0,31,31,31,1,0.6,0.4,0.8,0.2,1,0,,,,,,,,,,,,,,,,,,,,,,,,,,,,,,,,,,,,
,,66ee9fe856b8ab5a2aa44442,66fceb2270d9f9e3077dc964,2024-10-02_08h52.54.550,mdp,2024.2.1,Win32,59.73715651,66fa4ebf79326e780c390304,,,,,,,,,,,,,,,,,,,,,2269.025,2269.025,2269.026,2269.907,1,0,right,0.369,,2269.908,2269.909,0,0,,2269.91,2269.91,1,0,,1,2269.91,2269.91,2269.912,2271.406,0,32,32,32,1,0.6,0.4,0.8,0.2,1,0,,,,,,,,,,,,,,,,,,,,,,,,,,,,,,,,,,,,
,,66ee9fe856b8ab5a2aa44442,66fceb2270d9f9e3077dc964,2024-10-02_08h52.54.550,mdp,2024.2.1,Win32,59.73715651,66fa4ebf79326e780c390304,,,,,,,,,,,,,,,,,,,,,2271.406,2271.406,2271.408,2271.938,1,0,right,0.001,,2271.939,2271.941,0,0,,2271.941,2271.942,1,0,,1,2271.942,2271.942,2271.943,2273.437,0,33,33,33,1,0.6,0.4,0.8,0.2,1,0,,,,,,,,,,,,,,,,,,,,,,,,,,,,,,,,,,,,
,,66ee9fe856b8ab5a2aa44442,66fceb2270d9f9e3077dc964,2024-10-02_08h52.54.550,mdp,2024.2.1,Win32,59.73715651,66fa4ebf79326e780c390304,,,,,,,,,,,,,,,,,,,,,2273.438,2273.438,2273.44,2321.473,0,0,left,47.51,,2321.479,2321.48,0,0,,2321.48,2321.481,1,0,,1,2321.481,2321.481,2321.482,2322.971,0,34,34,34,1,0.6,0.4,0.8,0.2,1,0,,,,,,,,,,,,,,,,,,,,,,,,,,,,,,,,,,,,
,,66ee9fe856b8ab5a2aa44442,66fceb2270d9f9e3077dc964,2024-10-02_08h52.54.550,mdp,2024.2.1,Win32,59.73715651,66fa4ebf79326e780c390304,,,,,,,,,,,,,,,,,,,,,2322.973,2322.973,2322.974,2324.62,1,0,right,1.116,,2324.622,2324.623,0,0,,2324.625,2324.625,1,0,,1,2324.625,2324.625,2324.626,2326.119,0,35,35,35,1,0.6,0.4,0.8,0.2,1,0,,,,,,,,,,,,,,,,,,,,,,,,,,,,,,,,,,,,
,,66ee9fe856b8ab5a2aa44442,66fceb2270d9f9e3077dc964,2024-10-02_08h52.54.550,mdp,2024.2.1,Win32,59.73715651,66fa4ebf79326e780c390304,,,,,,,,,,,,,,,,,,,,,2326.119,2326.119,2326.12,2327.684,1,0,right,1.031,,2327.686,2327.687,0,1,,2327.689,2327.69,1,1,,1,2327.69,2327.69,2327.69,2329.182,0,36,36,36,1,0.8,0.2,0.6,0.4,1,0,,,,,,,,,,,,,,,,,,,,,,,,,,,,,,,,,,,,
,,66ee9fe856b8ab5a2aa44442,66fceb2270d9f9e3077dc964,2024-10-02_08h52.54.550,mdp,2024.2.1,Win32,59.73715651,66fa4ebf79326e780c390304,,,,,,,,,,,,,,,,,,,,,2329.183,2329.183,2329.184,2330.131,0,0,left,0.422,,2330.132,2330.134,0,0,,2330.135,2330.135,1,0,,1,2330.135,2330.135,2330.137,2331.63,0,37,37,37,1,0.8,0.2,0.6,0.4,1,0,,,,,,,,,,,,,,,,,,,,,,,,,,,,,,,,,,,,
,,66ee9fe856b8ab5a2aa44442,66fceb2270d9f9e3077dc964,2024-10-02_08h52.54.550,mdp,2024.2.1,Win32,59.73715651,66fa4ebf79326e780c390304,,,,,,,,,,,,,,,,,,,,,2331.631,2331.631,2331.631,2333.179,1,0,right,1.016,,2333.181,2333.182,0,1,,2333.183,2333.185,1,0,,1,2333.185,2333.185,2333.185,2334.677,0,38,38,38,1,0.8,0.2,0.6,0.4,1,0,,,,,,,,,,,,,,,,,,,,,,,,,,,,,,,,,,,,
,,66ee9fe856b8ab5a2aa44442,66fceb2270d9f9e3077dc964,2024-10-02_08h52.54.550,mdp,2024.2.1,Win32,59.73715651,66fa4ebf79326e780c390304,,,,,,,,,,,,,,,,,,,,,2334.678,2334.678,2334.678,2335.494,0,0,left,0.288,,2335.495,2335.495,0,0,,2335.496,2335.497,1,0,,1,2335.497,2335.497,2335.498,2336.992,0,39,39,39,1,0.8,0.2,0.6,0.4,1,0,,,,,,,,,,,,,,,,,,,,,,,,,,,,,,,,,,,,
,,66ee9fe856b8ab5a2aa44442,66fceb2270d9f9e3077dc964,2024-10-02_08h52.54.550,mdp,2024.2.1,Win32,59.73715651,66fa4ebf79326e780c390304,,,,,,,,,,,,,,,,,,,,,2336.994,2336.994,2336.995,2338.358,0,0,left,0.831,,2338.359,2338.36,0,1,,2338.361,2338.361,1,1,,1,2338.361,2338.361,2338.362,2339.857,0,40,40,40,1,0.8,0.2,0.6,0.4,1,0,,,,,,,,,,,,,,,,,,,,,,,,,,,,,,,,,,,,
,,66ee9fe856b8ab5a2aa44442,66fceb2270d9f9e3077dc964,2024-10-02_08h52.54.550,mdp,2024.2.1,Win32,59.73715651,66fa4ebf79326e780c390304,,,,,,,,,,,,,,,,,,,,,2339.857,2339.857,2339.857,2340.839,0,0,left,0.45,,2340.84,2340.841,0,0,,2340.842,2340.845,1,1,,1,2340.845,2340.845,2340.845,2342.338,0,41,41,41,1,0.8,0.2,0.6,0.4,1,0,,,,,,,,,,,,,,,,,,,,,,,,,,,,,,,,,,,,
,,66ee9fe856b8ab5a2aa44442,66fceb2270d9f9e3077dc964,2024-10-02_08h52.54.550,mdp,2024.2.1,Win32,59.73715651,66fa4ebf79326e780c390304,,,,,,,,,,,,,,,,,,,,,2342.338,2342.338,2342.339,2343.403,1,1,right,0.532,,2343.404,2343.405,0,1,,2343.406,2343.407,1,1,,0,2343.407,2343.407,2343.408,2344.902,0,42,42,42,1,0.8,0.2,0.6,0.4,1,0,,,,,,,,,,,,,,,,,,,,,,,,,,,,,,,,,,,,
,,66ee9fe856b8ab5a2aa44442,66fceb2270d9f9e3077dc964,2024-10-02_08h52.54.550,mdp,2024.2.1,Win32,59.73715651,66fa4ebf79326e780c390304,,,,,,,,,,,,,,,,,,,,,2344.903,2344.903,2344.904,2345.918,0,0,left,0.485,,2345.919,2345.92,0,0,,2345.921,2345.922,1,1,,1,2345.922,2345.922,2345.924,2347.417,0,43,43,43,1,0.6,0.4,0.2,0.8,1,0,,,,,,,,,,,,,,,,,,,,,,,,,,,,,,,,,,,,
,,66ee9fe856b8ab5a2aa44442,66fceb2270d9f9e3077dc964,2024-10-02_08h52.54.550,mdp,2024.2.1,Win32,59.73715651,66fa4ebf79326e780c390304,,,,,,,,,,,,,,,,,,,,,2347.418,2347.418,2347.418,2348.848,0,0,left,0.905,,2348.85,2348.851,0,0,,2348.852,2348.854,1,0,,1,2348.854,2348.854,2348.854,2350.348,0,44,44,44,1,0.8,0.2,0.8,0.2,1,0,,,,,,,,,,,,,,,,,,,,,,,,,,,,,,,,,,,,
,,66ee9fe856b8ab5a2aa44442,66fceb2270d9f9e3077dc964,2024-10-02_08h52.54.550,mdp,2024.2.1,Win32,59.73715651,66fa4ebf79326e780c390304,,,,,,,,,,,,,,,,,,,,,2350.348,2350.348,2350.349,2351.213,1,0,right,0.336,,2351.214,2351.215,0,0,,2351.216,2351.217,1,0,,1,2351.217,2351.217,2351.219,2352.712,0,45,45,45,1,0.8,0.2,0.8,0.2,1,0,,,,,,,,,,,,,,,,,,,,,,,,,,,,,,,,,,,,
,,66ee9fe856b8ab5a2aa44442,66fceb2270d9f9e3077dc964,2024-10-02_08h52.54.550,mdp,2024.2.1,Win32,59.73715651,66fa4ebf79326e780c390304,,,,,,,,,,,,,,,,,,,,,2352.712,2352.712,2352.713,2353.728,0,1,left,0.485,,2353.733,2353.735,0,1,,2353.736,2353.736,1,1,,0,2353.736,2353.736,2353.737,2355.226,0,46,46,46,1,0.6,0.4,0.4,0.6,1,0,,,,,,,,,,,,,,,,,,,,,,,,,,,,,,,,,,,,
