init_exp.started,init_exp.stopped,participant,session,date,expName,psychopyVersion,OS,frameRate,study_id,disp_instruction.started,disp_instruction.stopped,instruction.thisRepN,instruction.thisTrialN,instruction.thisN,instruction.thisIndex,instruction.ran,instimg_path,consent.started,consent.stopped,key_resp_3.keys,key_resp_3.rt,key_resp_3.duration,n_steps,sequence_path,init_block.started,init_block.stopped,key_resp.keys,key_resp.rt,key_resp.duration,init_trials.started,init_trials.stopped,step0.started,step0.stopped,act0,s1,res0.keys,res0.rt,res0.duration,step1.started,step1.stopped,act1,s2,res1.keys,step2.started,step2.stopped,act2,s3,res2.keys,rew,reward_comp.started,reward_comp.stopped,reward_disp.started,reward_disp.stopped,trials.thisRepN,trials.thisTrialN,trials.thisN,trials.thisIndex,trials.ran,s00a0s10,s00a0s11,s00a1s10,s00a1s11,rew10,rew11,break_block.started,break_block.stopped,block.thisRepN,block.thisTrialN,block.thisN,block.thisIndex,block.ran,s00path,s10path,s11path,s20path,s21path,res1.rt,res1.duration,s10a0s20,s10a0s21,s10a1s20,s10a1s21,s11a0s20,s11a0s21,s11a1s20,s11a1s21,rew20,rew21,res2.rt,res2.duration,s20a0s30,s20a0s31,s20a1s30,s20a1s31,s21a0s30,s21a0s31,s21a1s30,s21a1s31,rew30,rew31
0.0003,0.0038,66f7aee700d2b58d3c21d64b,66fcbc1a810425318284b8e9,2024-10-02_04h27.19.613,mdp,2024.2.1,Win32,2.73000273,66fa4ebf79326e780c390304,,,,,,,,,,,,,,,,,,,,,,,,,,,,,,,,,,,,,,,,,,,,,,,,,,,,,,,,,,,,,,,,,,,,,,,,,,,,,,,,,,,,,,,,,,,
,,66f7aee700d2b58d3c21d64b,66fcbc1a810425318284b8e9,2024-10-02_04h27.19.613,mdp,2024.2.1,Win32,2.73000273,66fa4ebf79326e780c390304,0.0159,43.6427,0,0,0,0,1,rlnn_exp/rlnn_exp.001.png,,,,,,,,,,,,,,,,,,,,,,,,,,,,,,,,,,,,,,,,,,,,,,,,,,,,,,,,,,,,,,,,,,,,,,,,,,,,,,,,,,,
,,66f7aee700d2b58d3c21d64b,66fcbc1a810425318284b8e9,2024-10-02_04h27.19.613,mdp,2024.2.1,Win32,2.73000273,66fa4ebf79326e780c390304,43.6449,66.9865,0,1,1,1,1,rlnn_exp/rlnn_exp.002.png,,,,,,,,,,,,,,,,,,,,,,,,,,,,,,,,,,,,,,,,,,,,,,,,,,,,,,,,,,,,,,,,,,,,,,,,,,,,,,,,,,,
,,66f7aee700d2b58d3c21d64b,66fcbc1a810425318284b8e9,2024-10-02_04h27.19.613,mdp,2024.2.1,Win32,2.73000273,66fa4ebf79326e780c390304,66.9901,97.8723,0,2,2,2,1,rlnn_exp/rlnn_exp.003.png,,,,,,,,,,,,,,,,,,,,,,,,,,,,,,,,,,,,,,,,,,,,,,,,,,,,,,,,,,,,,,,,,,,,,,,,,,,,,,,,,,,
,,66f7aee700d2b58d3c21d64b,66fcbc1a810425318284b8e9,2024-10-02_04h27.19.613,mdp,2024.2.1,Win32,2.73000273,66fa4ebf79326e780c390304,97.8745,127.6308,0,3,3,3,1,rlnn_exp/rlnn_exp.004.png,,,,,,,,,,,,,,,,,,,,,,,,,,,,,,,,,,,,,,,,,,,,,,,,,,,,,,,,,,,,,,,,,,,,,,,,,,,,,,,,,,,
,,66f7aee700d2b58d3c21d64b,66fcbc1a810425318284b8e9,2024-10-02_04h27.19.613,mdp,2024.2.1,Win32,2.73000273,66fa4ebf79326e780c390304,,,,,,,,,127.6315,205.3811,y,67.1834,0.0006,,,,,,,,,,,,,,,,,,,,,,,,,,,,,,,,,,,,,,,,,,,,,,,,,,,,,,,,,,,,,,,,,,,,,,,,,,,,,,
,,66f7aee700d2b58d3c21d64b,66fcbc1a810425318284b8e9,2024-10-02_04h27.19.613,mdp,2024.2.1,Win32,2.73000273,66fa4ebf79326e780c390304,,,,,,,,,,,,,,1,seqs/st1seq47.csv,205.3903,212.6829,space,6.1645,,212.6922,212.6924,212.6936,373.4252,0,0,left,159.5336,0.0003,373.4266,373.4307,,0,,373.432,373.4362,,0,,1,373.4366,373.4367,373.4388,374.9825,0,0,0,0,1,0.8,0.2,0.4,0.6,1,0,,,,,,,,,,,,,,,,,,,,,,,,,,,,,,,,,,,,
,,66f7aee700d2b58d3c21d64b,66fcbc1a810425318284b8e9,2024-10-02_04h27.19.613,mdp,2024.2.1,Win32,2.73000273,66fa4ebf79326e780c390304,,,,,,,,,,,,,,,,,,,,,374.9921,374.9928,374.9964,582.7895,1,0,right,206.6819,,582.7923,582.794,,1,,582.7964,582.7986,,1,,1,582.7987,582.7987,582.8007,584.3053,0,1,1,1,1,0.8,0.2,0.4,0.6,1,0,,,,,,,,,,,,,,,,,,,,,,,,,,,,,,,,,,,,
,,66f7aee700d2b58d3c21d64b,66fcbc1a810425318284b8e9,2024-10-02_04h27.19.613,mdp,2024.2.1,Win32,2.73000273,66fa4ebf79326e780c390304,,,,,,,,,,,,,,,,,,,,,584.3065,584.3065,584.3095,590.3696,0,0,left,4.9549,,590.3726,590.3743,,0,,590.3765,590.3783,,0,,1,590.3783,590.3783,590.3803,591.877,0,2,2,2,1,0.8,0.2,0.4,0.6,1,0,,,,,,,,,,,,,,,,,,,,,,,,,,,,,,,,,,,,
,,66f7aee700d2b58d3c21d64b,66fcbc1a810425318284b8e9,2024-10-02_04h27.19.613,mdp,2024.2.1,Win32,2.73000273,66fa4ebf79326e780c390304,,,,,,,,,,,,,,,,,,,,,591.879,591.8791,591.8822,597.9596,0,0,left,4.9655,,597.9625,597.9641,,0,,597.9668,597.9684,,0,,1,597.9684,597.9684,597.9779,599.4733,0,3,3,3,1,0.8,0.2,0.4,0.6,1,0,,,,,,,,,,,,,,,,,,,,,,,,,,,,,,,,,,,,
,,66f7aee700d2b58d3c21d64b,66fcbc1a810425318284b8e9,2024-10-02_04h27.19.613,mdp,2024.2.1,Win32,2.73000273,66fa4ebf79326e780c390304,,,,,,,,,,,,,,,,,,,,,599.4753,599.4753,599.4779,609.6927,0,0,left,9.0961,,609.6951,609.6969,,0,,609.6996,609.7012,,0,,1,609.7012,609.7013,609.7032,611.2008,0,4,4,4,1,0.8,0.2,0.4,0.6,1,0,,,,,,,,,,,,,,,,,,,,,,,,,,,,,,,,,,,,
,,66f7aee700d2b58d3c21d64b,66fcbc1a810425318284b8e9,2024-10-02_04h27.19.613,mdp,2024.2.1,Win32,2.73000273,66fa4ebf79326e780c390304,,,,,,,,,,,,,,,,,,,,,611.2034,611.2035,611.2067,615.3817,0,0,left,3.0573,0.0003,615.3845,615.3861,,0,,615.3888,615.3904,,0,,1,615.3905,615.3905,615.3926,616.9123,0,5,5,5,1,0.8,0.2,0.4,0.6,1,0,,,,,,,,,,,,,,,,,,,,,,,,,,,,,,,,,,,,
,,66f7aee700d2b58d3c21d64b,66fcbc1a810425318284b8e9,2024-10-02_04h27.19.613,mdp,2024.2.1,Win32,2.73000273,66fa4ebf79326e780c390304,,,,,,,,,,,,,,,,,,,,,616.914,616.914,616.917,620.6926,0,0,left,2.659,,620.6955,620.6972,,0,,620.6995,620.7013,,0,,1,620.7014,620.7014,620.7035,622.2087,0,6,6,6,1,0.8,0.2,0.4,0.6,1,0,,,,,,,,,,,,,,,,,,,,,,,,,,,,,,,,,,,,
,,66f7aee700d2b58d3c21d64b,66fcbc1a810425318284b8e9,2024-10-02_04h27.19.613,mdp,2024.2.1,Win32,2.73000273,66fa4ebf79326e780c390304,,,,,,,,,,,,,,,,,,,,,622.2103,622.2103,622.2133,625.2188,1,0,right,1.8979,,625.2224,625.224,,1,,625.2262,625.2286,,1,,1,625.2288,625.2288,625.2312,626.722,0,7,7,7,1,0.8,0.2,0.4,0.6,1,0,,,,,,,,,,,,,,,,,,,,,,,,,,,,,,,,,,,,
,,66f7aee700d2b58d3c21d64b,66fcbc1a810425318284b8e9,2024-10-02_04h27.19.613,mdp,2024.2.1,Win32,2.73000273,66fa4ebf79326e780c390304,,,,,,,,,,,,,,,,,,,,,626.7228,626.723,626.7255,629.7408,0,0,left,1.9053,,629.7448,629.7463,,0,,629.7484,629.75,,1,,1,629.7501,629.7502,629.7522,631.2791,0,8,8,8,1,0.6,0.4,0.8,0.2,1,0,,,,,,,,,,,,,,,,,,,,,,,,,,,,,,,,,,,,
,,66f7aee700d2b58d3c21d64b,66fcbc1a810425318284b8e9,2024-10-02_04h27.19.613,mdp,2024.2.1,Win32,2.73000273,66fa4ebf79326e780c390304,,,,,,,,,,,,,,,,,,,,,631.2811,631.2812,631.2837,636.9831,1,0,right,4.5835,,636.9866,636.9882,,0,,636.9904,636.9919,,1,,1,636.992,636.992,636.9941,638.4969,0,9,9,9,1,0.6,0.4,0.8,0.2,1,0,,,,,,,,,,,,,,,,,,,,,,,,,,,,,,,,,,,,
,,66f7aee700d2b58d3c21d64b,66fcbc1a810425318284b8e9,2024-10-02_04h27.19.613,mdp,2024.2.1,Win32,2.73000273,66fa4ebf79326e780c390304,,,,,,,,,,,,,,,,,,,,,638.4988,638.4988,638.5013,640.0168,0,0,left,0.3994,0.0004,640.0193,640.0209,,0,,640.0235,640.025,,1,,1,640.0251,640.0251,640.0273,641.5377,0,10,10,10,1,0.8,0.2,0.4,0.6,1,0,,,,,,,,,,,,,,,,,,,,,,,,,,,,,,,,,,,,
,,66f7aee700d2b58d3c21d64b,66fcbc1a810425318284b8e9,2024-10-02_04h27.19.613,mdp,2024.2.1,Win32,2.73000273,66fa4ebf79326e780c390304,,,,,,,,,,,,,,,,,,,,,641.5396,641.5397,641.5421,644.5753,1,1,right,1.9174,,644.5781,644.5797,,0,,644.5821,644.5841,,1,,0,644.5842,644.5842,644.5862,646.1276,0,11,11,11,1,0.8,0.2,0.4,0.6,1,0,,,,,,,,,,,,,,,,,,,,,,,,,,,,,,,,,,,,
,,66f7aee700d2b58d3c21d64b,66fcbc1a810425318284b8e9,2024-10-02_04h27.19.613,mdp,2024.2.1,Win32,2.73000273,66fa4ebf79326e780c390304,,,,,,,,,,,,,,,,,,,,,646.1299,646.1299,646.1323,652.6168,0,0,left,5.366,,652.6204,652.6219,,0,,652.6256,652.6271,,1,,1,652.6272,652.6272,652.6298,654.1486,0,12,12,12,1,0.8,0.2,0.4,0.6,1,0,,,,,,,,,,,,,,,,,,,,,,,,,,,,,,,,,,,,
,,66f7aee700d2b58d3c21d64b,66fcbc1a810425318284b8e9,2024-10-02_04h27.19.613,mdp,2024.2.1,Win32,2.73000273,66fa4ebf79326e780c390304,,,,,,,,,,,,,,,,,,,,,654.1498,654.1498,654.1522,656.0311,1,1,right,0.7754,,656.0345,656.036,,1,,656.0384,656.0398,,1,,0,656.04,656.04,656.042,657.5475,0,13,13,13,1,0.8,0.2,0.4,0.6,1,0,,,,,,,,,,,,,,,,,,,,,,,,,,,,,,,,,,,,
,,66f7aee700d2b58d3c21d64b,66fcbc1a810425318284b8e9,2024-10-02_04h27.19.613,mdp,2024.2.1,Win32,2.73000273,66fa4ebf79326e780c390304,,,,,,,,,,,,,,,,,,,,,657.5498,657.5498,657.5523,665.9018,0,0,left,7.2379,,665.9046,665.9061,,0,,665.9089,665.9104,,0,,1,665.9104,665.9105,665.9126,667.4175,0,14,14,14,1,0.8,0.2,0.4,0.6,1,0,,,,,,,,,,,,,,,,,,,,,,,,,,,,,,,,,,,,
,,66f7aee700d2b58d3c21d64b,66fcbc1a810425318284b8e9,2024-10-02_04h27.19.613,mdp,2024.2.1,Win32,2.73000273,66fa4ebf79326e780c390304,,,,,,,,,,,,,,,,,,,,,667.4194,667.4194,667.4225,672.3362,1,1,right,3.803,,672.3392,672.3406,,1,,672.3428,672.3443,,1,,0,672.3444,672.3444,672.3463,673.8592,0,15,15,15,1,0.8,0.2,0.4,0.6,1,0,,,,,,,,,,,,,,,,,,,,,,,,,,,,,,,,,,,,
,,66f7aee700d2b58d3c21d64b,66fcbc1a810425318284b8e9,2024-10-02_04h27.19.613,mdp,2024.2.1,Win32,2.73000273,66fa4ebf79326e780c390304,,,,,,,,,,,,,,,,,,,,,673.8612,673.8612,673.8636,676.1211,1,0,right,1.1499,0.0003,676.1239,676.1255,,1,,676.128,676.1294,,0,,1,676.1296,676.1296,676.1316,677.628,0,16,16,16,1,0.8,0.2,0.4,0.6,1,0,,,,,,,,,,,,,,,,,,,,,,,,,,,,,,,,,,,,
,,66f7aee700d2b58d3c21d64b,66fcbc1a810425318284b8e9,2024-10-02_04h27.19.613,mdp,2024.2.1,Win32,2.73000273,66fa4ebf79326e780c390304,,,,,,,,,,,,,,,,,,,,,677.6298,677.6298,677.6323,680.2789,1,1,right,1.532,0.0003,680.2827,680.2843,,0,,680.2866,680.2881,,0,,0,680.2881,680.2881,680.2902,681.8279,0,17,17,17,1,0.8,0.2,0.4,0.6,1,0,,,,,,,,,,,,,,,,,,,,,,,,,,,,,,,,,,,,
,,66f7aee700d2b58d3c21d64b,66fcbc1a810425318284b8e9,2024-10-02_04h27.19.613,mdp,2024.2.1,Win32,2.73000273,66fa4ebf79326e780c390304,,,,,,,,,,,,,,,,,,,,,681.8287,681.8287,681.8307,689.4385,0,0,left,6.4965,,689.4423,689.4437,,0,,689.4469,689.4485,,0,,1,689.4486,689.4486,689.4506,690.9704,0,18,18,18,1,0.8,0.2,0.4,0.6,1,0,,,,,,,,,,,,,,,,,,,,,,,,,,,,,,,,,,,,
,,66f7aee700d2b58d3c21d64b,66fcbc1a810425318284b8e9,2024-10-02_04h27.19.613,mdp,2024.2.1,Win32,2.73000273,66fa4ebf79326e780c390304,,,,,,,,,,,,,,,,,,,,,690.9792,690.9793,690.9816,692.4774,1,0,right,0.3962,,692.4805,692.4824,,1,,692.4846,692.4861,,0,,1,692.4863,692.4863,692.4882,693.9869,0,19,19,19,1,0.6,0.4,0.6,0.4,1,0,,,,,,,,,,,,,,,,,,,,,,,,,,,,,,,,,,,,
,,66f7aee700d2b58d3c21d64b,66fcbc1a810425318284b8e9,2024-10-02_04h27.19.613,mdp,2024.2.1,Win32,2.73000273,66fa4ebf79326e780c390304,,,,,,,,,,,,,,,,,,,,,693.9888,693.9889,693.9914,696.2551,0,1,left,1.1519,0.0021,696.2577,696.259,,0,,696.2617,696.2632,,0,,0,696.2634,696.2634,696.2654,697.8189,0,20,20,20,1,0.6,0.4,0.6,0.4,1,0,,,,,,,,,,,,,,,,,,,,,,,,,,,,,,,,,,,,
,,66f7aee700d2b58d3c21d64b,66fcbc1a810425318284b8e9,2024-10-02_04h27.19.613,mdp,2024.2.1,Win32,2.73000273,66fa4ebf79326e780c390304,,,,,,,,,,,,,,,,,,,,,697.8208,697.8208,697.8232,701.2347,0,0,left,2.3053,0.0003,701.2377,701.2394,,0,,701.2417,701.2431,,0,,1,701.2431,701.2431,701.2456,702.7587,0,21,21,21,1,0.6,0.4,0.6,0.4,1,0,,,,,,,,,,,,,,,,,,,,,,,,,,,,,,,,,,,,
,,66f7aee700d2b58d3c21d64b,66fcbc1a810425318284b8e9,2024-10-02_04h27.19.613,mdp,2024.2.1,Win32,2.73000273,66fa4ebf79326e780c390304,,,,,,,,,,,,,,,,,,,,,702.7605,702.7606,702.763,713.7965,1,0,right,9.9086,,713.7997,713.8012,,0,,713.8033,713.8055,,0,,1,713.8055,713.8055,713.8076,715.3221,0,22,22,22,1,0.8,0.2,0.8,0.2,1,0,,,,,,,,,,,,,,,,,,,,,,,,,,,,,,,,,,,,
,,66f7aee700d2b58d3c21d64b,66fcbc1a810425318284b8e9,2024-10-02_04h27.19.613,mdp,2024.2.1,Win32,2.73000273,66fa4ebf79326e780c390304,,,,,,,,,,,,,,,,,,,,,715.3241,715.3241,715.3266,717.2204,0,0,left,0.7767,0.0002,717.2239,717.2255,,1,,717.2278,717.2296,,1,,1,717.2296,717.2296,717.2316,718.7329,0,23,23,23,1,0.8,0.2,0.8,0.2,1,0,,,,,,,,,,,,,,,,,,,,,,,,,,,,,,,,,,,,
,,66f7aee700d2b58d3c21d64b,66fcbc1a810425318284b8e9,2024-10-02_04h27.19.613,mdp,2024.2.1,Win32,2.73000273,66fa4ebf79326e780c390304,,,,,,,,,,,,,,,,,,,,,718.734,718.734,718.7369,719.8623,1,1,right,0.0161,0.0003,719.8647,719.8661,,0,,719.8683,719.8699,,0,,0,719.87,719.87,719.8724,721.3878,0,24,24,24,1,0.8,0.2,0.8,0.2,1,0,,,,,,,,,,,,,,,,,,,,,,,,,,,,,,,,,,,,
,,66f7aee700d2b58d3c21d64b,66fcbc1a810425318284b8e9,2024-10-02_04h27.19.613,mdp,2024.2.1,Win32,2.73000273,66fa4ebf79326e780c390304,,,,,,,,,,,,,,,,,,,,,721.3887,721.3887,721.3911,722.9014,0,1,left,0.393,,722.9042,722.9058,,0,,722.9086,722.9101,,0,,0,722.9102,722.9102,722.9123,724.4078,0,25,25,25,1,0.8,0.2,0.8,0.2,1,0,,,,,,,,,,,,,,,,,,,,,,,,,,,,,,,,,,,,
,,66f7aee700d2b58d3c21d64b,66fcbc1a810425318284b8e9,2024-10-02_04h27.19.613,mdp,2024.2.1,Win32,2.73000273,66fa4ebf79326e780c390304,,,,,,,,,,,,,,,,,,,,,724.4097,724.4097,724.4125,726.2998,1,0,right,0.7799,0.0002,726.3029,726.3044,,1,,726.3066,726.308,,0,,1,726.3081,726.3081,726.3107,727.8351,0,26,26,26,1,0.8,0.2,0.8,0.2,1,0,,,,,,,,,,,,,,,,,,,,,,,,,,,,,,,,,,,,
,,66f7aee700d2b58d3c21d64b,66fcbc1a810425318284b8e9,2024-10-02_04h27.19.613,mdp,2024.2.1,Win32,2.73000273,66fa4ebf79326e780c390304,,,,,,,,,,,,,,,,,,,,,727.8369,727.8369,727.8396,730.4791,0,1,left,1.5244,,730.4819,730.4834,,1,,730.4857,730.4872,,0,,0,730.4872,730.4872,730.4896,732.0057,0,27,27,27,1,0.6,0.4,0.2,0.8,1,0,,,,,,,,,,,,,,,,,,,,,,,,,,,,,,,,,,,,
,,66f7aee700d2b58d3c21d64b,66fcbc1a810425318284b8e9,2024-10-02_04h27.19.613,mdp,2024.2.1,Win32,2.73000273,66fa4ebf79326e780c390304,,,,,,,,,,,,,,,,,,,,,732.0076,732.0076,732.0108,738.7911,0,0,left,5.6737,,738.794,738.796,,1,,738.7982,738.7997,,1,,1,738.7998,738.7998,738.8019,740.3247,0,28,28,28,1,0.6,0.4,0.2,0.8,1,0,,,,,,,,,,,,,,,,,,,,,,,,,,,,,,,,,,,,
,,66f7aee700d2b58d3c21d64b,66fcbc1a810425318284b8e9,2024-10-02_04h27.19.613,mdp,2024.2.1,Win32,2.73000273,66fa4ebf79326e780c390304,,,,,,,,,,,,,,,,,,,,,740.3258,740.3258,740.3283,741.4699,0,0,left,0.0158,,741.4729,741.4743,,1,,741.4767,741.4782,,1,,1,741.4783,741.4783,741.4803,743.0148,0,29,29,29,1,0.6,0.4,0.2,0.8,1,0,,,,,,,,,,,,,,,,,,,,,,,,,,,,,,,,,,,,
,,66f7aee700d2b58d3c21d64b,66fcbc1a810425318284b8e9,2024-10-02_04h27.19.613,mdp,2024.2.1,Win32,2.73000273,66fa4ebf79326e780c390304,,,,,,,,,,,,,,,,,,,,,743.0156,743.0156,743.0175,744.1557,0,1,left,0.0164,,744.1583,744.1603,,1,,744.1625,744.164,,0,,0,744.164,744.164,744.1661,745.6867,0,30,30,30,1,0.2,0.8,0.6,0.4,1,0,,,,,,,,,,,,,,,,,,,,,,,,,,,,,,,,,,,,
,,66f7aee700d2b58d3c21d64b,66fcbc1a810425318284b8e9,2024-10-02_04h27.19.613,mdp,2024.2.1,Win32,2.73000273,66fa4ebf79326e780c390304,,,,,,,,,,,,,,,,,,,,,745.6877,745.6877,745.69,747.9643,0,1,left,1.1641,,747.9673,747.9688,,0,,747.971,747.9805,,1,,0,747.9807,747.9807,747.9835,749.4871,0,31,31,31,1,0.4,0.6,0.8,0.2,1,0,,,,,,,,,,,,,,,,,,,,,,,,,,,,,,,,,,,,
,,66f7aee700d2b58d3c21d64b,66fcbc1a810425318284b8e9,2024-10-02_04h27.19.613,mdp,2024.2.1,Win32,2.73000273,66fa4ebf79326e780c390304,,,,,,,,,,,,,,,,,,,,,749.489,749.4891,749.4916,760.8423,0,0,left,10.2378,,760.8458,760.8473,,1,,760.8496,760.851,,1,,1,760.8511,760.8511,760.8531,762.3691,0,32,32,32,1,0.6,0.4,0.4,0.6,1,0,,,,,,,,,,,,,,,,,,,,,,,,,,,,,,,,,,,,
,,66f7aee700d2b58d3c21d64b,66fcbc1a810425318284b8e9,2024-10-02_04h27.19.613,mdp,2024.2.1,Win32,2.73000273,66fa4ebf79326e780c390304,,,,,,,,,,,,,,,,,,,,,762.371,762.371,762.3735,770.6741,0,0,left,7.1947,,770.6775,770.679,,0,,770.6823,770.6842,,1,,1,770.6843,770.6843,770.6863,772.1953,0,33,33,33,1,0.6,0.4,0.4,0.6,1,0,,,,,,,,,,,,,,,,,,,,,,,,,,,,,,,,,,,,
,,66f7aee700d2b58d3c21d64b,66fcbc1a810425318284b8e9,2024-10-02_04h27.19.613,mdp,2024.2.1,Win32,2.73000273,66fa4ebf79326e780c390304,,,,,,,,,,,,,,,,,,,,,772.1971,772.1971,772.2001,774.8285,0,0,left,1.5247,0.0003,774.8319,774.8333,,0,,774.8355,774.837,,0,,1,774.8371,774.8371,774.8391,776.3377,0,34,34,34,1,0.6,0.4,0.4,0.6,1,0,,,,,,,,,,,,,,,,,,,,,,,,,,,,,,,,,,,,
,,66f7aee700d2b58d3c21d64b,66fcbc1a810425318284b8e9,2024-10-02_04h27.19.613,mdp,2024.2.1,Win32,2.73000273,66fa4ebf79326e780c390304,,,,,,,,,,,,,,,,,,,,,776.3396,776.3396,776.3425,778.2273,0,0,left,0.7782,,778.2298,778.2313,,0,,778.2339,778.2355,,0,,1,778.2356,778.2356,778.2376,779.7468,0,35,35,35,1,0.6,0.4,0.4,0.6,1,0,,,,,,,,,,,,,,,,,,,,,,,,,,,,,,,,,,,,
,,66f7aee700d2b58d3c21d64b,66fcbc1a810425318284b8e9,2024-10-02_04h27.19.613,mdp,2024.2.1,Win32,2.73000273,66fa4ebf79326e780c390304,,,,,,,,,,,,,,,,,,,,,779.7487,779.7487,779.751,781.2524,0,0,left,0.3951,,781.2554,781.2568,,1,,781.2596,781.2611,,0,,1,781.2612,781.2612,781.2631,782.7623,0,36,36,36,1,0.6,0.4,0.4,0.6,1,0,,,,,,,,,,,,,,,,,,,,,,,,,,,,,,,,,,,,
,,66f7aee700d2b58d3c21d64b,66fcbc1a810425318284b8e9,2024-10-02_04h27.19.613,mdp,2024.2.1,Win32,2.73000273,66fa4ebf79326e780c390304,,,,,,,,,,,,,,,,,,,,,782.7648,782.7649,782.7673,783.8848,0,1,left,0.0148,,783.8878,783.8893,,1,,783.8919,783.8934,,1,,0,783.8934,783.8934,783.8955,785.3982,0,37,37,37,1,0.6,0.4,0.4,0.6,1,0,,,,,,,,,,,,,,,,,,,,,,,,,,,,,,,,,,,,
,,66f7aee700d2b58d3c21d64b,66fcbc1a810425318284b8e9,2024-10-02_04h27.19.613,mdp,2024.2.1,Win32,2.73000273,66fa4ebf79326e780c390304,,,,,,,,,,,,,,,,,,,,,785.4001,785.4002,785.4028,788.4188,0,0,left,1.904,0.0003,788.4215,788.423,,0,,788.4257,788.4272,,1,,1,788.4272,788.4273,788.4294,789.9488,0,38,38,38,1,0.6,0.4,0.4,0.6,1,0,,,,,,,,,,,,,,,,,,,,,,,,,,,,,,,,,,,,
,,66f7aee700d2b58d3c21d64b,66fcbc1a810425318284b8e9,2024-10-02_04h27.19.613,mdp,2024.2.1,Win32,2.73000273,66fa4ebf79326e780c390304,,,,,,,,,,,,,,,,,,,,,789.9507,789.9507,789.9533,792.2229,0,1,left,1.1595,,792.2259,792.2276,,0,,792.2298,792.2313,,1,,0,792.2313,792.2313,792.2333,793.7504,0,39,39,39,1,0.6,0.4,0.4,0.6,1,0,,,,,,,,,,,,,,,,,,,,,,,,,,,,,,,,,,,,
,,66f7aee700d2b58d3c21d64b,66fcbc1a810425318284b8e9,2024-10-02_04h27.19.613,mdp,2024.2.1,Win32,2.73000273,66fa4ebf79326e780c390304,,,,,,,,,,,,,,,,,,,,,793.7522,793.7522,793.7552,794.8851,1,1,right,0.015,0.0003,794.8876,794.8892,,1,,794.8913,794.8932,,1,,0,794.8932,794.8933,794.8953,796.3904,0,40,40,40,1,0.6,0.4,0.4,0.6,1,0,,,,,,,,,,,,,,,,,,,,,,,,,,,,,,,,,,,,
,,66f7aee700d2b58d3c21d64b,66fcbc1a810425318284b8e9,2024-10-02_04h27.19.613,mdp,2024.2.1,Win32,2.73000273,66fa4ebf79326e780c390304,,,,,,,,,,,,,,,,,,,,,796.3922,796.3922,796.3947,798.2971,0,1,left,0.7749,,798.3001,798.3016,,1,,798.3039,798.3053,,1,,0,798.3054,798.3054,798.308,799.8157,0,41,41,41,1,0.2,0.8,0.8,0.2,1,0,,,,,,,,,,,,,,,,,,,,,,,,,,,,,,,,,,,,
,,66f7aee700d2b58d3c21d64b,66fcbc1a810425318284b8e9,2024-10-02_04h27.19.613,mdp,2024.2.1,Win32,2.73000273,66fa4ebf79326e780c390304,,,,,,,,,,,,,,,,,,,,,799.8169,799.8169,799.8193,802.4641,0,1,left,1.5311,0.0002,802.467,802.4686,,1,,802.4709,802.4724,,1,,0,802.4724,802.4724,802.4746,803.9836,0,42,42,42,1,0.2,0.8,0.8,0.2,1,0,,,,,,,,,,,,,,,,,,,,,,,,,,,,,,,,,,,,
,,66f7aee700d2b58d3c21d64b,66fcbc1a810425318284b8e9,2024-10-02_04h27.19.613,mdp,2024.2.1,Win32,2.73000273,66fa4ebf79326e780c390304,,,,,,,,,,,,,,,,,,,,,803.9846,803.9846,803.9871,806.2622,1,0,right,1.1546,0.0004,806.2648,806.2662,,1,,806.2685,806.2704,,0,,1,806.2704,806.2705,806.2725,807.7797,0,43,43,43,1,0.2,0.8,0.8,0.2,1,0,,,,,,,,,,,,,,,,,,,,,,,,,,,,,,,,,,,,
,,66f7aee700d2b58d3c21d64b,66fcbc1a810425318284b8e9,2024-10-02_04h27.19.613,mdp,2024.2.1,Win32,2.73000273,66fa4ebf79326e780c390304,,,,,,,,,,,,,,,,,,,,,807.7813,807.7813,807.784,810.0511,1,0,right,1.1597,0.0014,810.0537,810.0552,,0,,810.0574,810.0589,,0,,1,810.059,810.059,810.0612,811.5817,0,44,44,44,1,0.2,0.8,0.8,0.2,1,0,,,,,,,,,,,,,,,,,,,,,,,,,,,,,,,,,,,,
,,66f7aee700d2b58d3c21d64b,66fcbc1a810425318284b8e9,2024-10-02_04h27.19.613,mdp,2024.2.1,Win32,2.73000273,66fa4ebf79326e780c390304,,,,,,,,,,,,,,,,,,,,,811.5836,811.5836,811.5861,813.8641,1,0,right,1.1593,,813.8674,813.8693,,1,,813.8717,813.8731,,1,,1,813.8732,813.8732,813.8752,815.0128,0,45,45,45,1,0.2,0.8,0.8,0.2,1,0,,,,,,,,,,,,,,,,,,,,,,,,,,,,,,,,,,,,
,,66f7aee700d2b58d3c21d64b,66fcbc1a810425318284b8e9,2024-10-02_04h27.19.613,mdp,2024.2.1,Win32,2.73000273,66fa4ebf79326e780c390304,,,,,,,,,,,,,,,,,,,,,815.0146,815.0146,815.0179,816.9554,1,0,right,0.8172,,816.9589,816.9605,,0,,816.9628,816.9644,,0,,1,816.9644,816.9644,816.9665,818.4788,0,46,46,46,1,0.2,0.8,0.8,0.2,1,0,,,,,,,,,,,,,,,,,,,,,,,,,,,,,,,,,,,,
,,66f7aee700d2b58d3c21d64b,66fcbc1a810425318284b8e9,2024-10-02_04h27.19.613,mdp,2024.2.1,Win32,2.73000273,66fa4ebf79326e780c390304,,,,,,,,,,,,,,,,,,,,,818.4806,818.4806,818.483,820.3596,1,0,right,0.7693,0.0004,820.3626,820.364,,0,,820.3663,820.3678,,1,,1,820.3679,820.3679,820.3698,821.8866,0,47,47,47,1,0.2,0.8,0.8,0.2,1,0,,,,,,,,,,,,,,,,,,,,,,,,,,,,,,,,,,,,
,,66f7aee700d2b58d3c21d64b,66fcbc1a810425318284b8e9,2024-10-02_04h27.19.613,mdp,2024.2.1,Win32,2.73000273,66fa4ebf79326e780c390304,,,,,,,,,,,,,,,,,,,,,821.8885,821.8886,821.8911,823.0382,1,1,right,0.0148,,823.0416,823.0435,,1,,823.0458,823.0472,,0,,0,823.0473,823.0473,823.049,824.5563,0,48,48,48,1,0.4,0.6,0.6,0.4,1,0,,,,,,,,,,,,,,,,,,,,,,,,,,,,,,,,,,,,
,,66f7aee700d2b58d3c21d64b,66fcbc1a810425318284b8e9,2024-10-02_04h27.19.613,mdp,2024.2.1,Win32,2.73000273,66fa4ebf79326e780c390304,,,,,,,,,,,,,,,,,,,,,824.5581,824.5581,824.5606,826.451,1,0,right,0.7818,0.0001,826.4545,826.4564,,1,,826.4587,826.4603,,0,,1,826.4603,826.4603,826.4624,827.9779,0,49,49,49,1,0.2,0.8,0.8,0.2,1,0,,,,,,,,,,,,,,,,,,,,,,,,,,,,,,,,,,,,
,,66f7aee700d2b58d3c21d64b,66fcbc1a810425318284b8e9,2024-10-02_04h27.19.613,mdp,2024.2.1,Win32,2.73000273,66fa4ebf79326e780c390304,,,,,,,,,,,,,,,,,,,,,,,,,,,,,,,,,,,,,,,,,,,,,,,,,,,,,,,,827.9786,886.8645,0,0,0,4,1,imgs/dog.png,imgs/lion.png,imgs/cat.png,imgs/giraffe.png,imgs/rabbit.png,,,,,,,,,,,,,,,,,,,,,,,,
,,66f7aee700d2b58d3c21d64b,66fcbc1a810425318284b8e9,2024-10-02_04h27.19.613,mdp,2024.2.1,Win32,2.73000273,66fa4ebf79326e780c390304,,,,,,,,,,,,,,2,seqs/st2seq4.csv,886.8672,950.2767,space,62.2639,0.0005,950.286,950.286,950.2881,980.9917,1,0,right,29.6639,,980.994,992.7188,1,1,right,992.7207,992.7218,,1,,0,992.7218,992.7218,992.7232,994.1879,0,0,0,0,1,0.4,0.6,0.6,0.4,,,,,,,,,,,,,,,10.6268,0.0002,0.2,0.8,0.2,0.8,0.8,0.2,0.4,0.6,1,0,,,,,,,,,,,,
,,66f7aee700d2b58d3c21d64b,66fcbc1a810425318284b8e9,2024-10-02_04h27.19.613,mdp,2024.2.1,Win32,2.73000273,66fa4ebf79326e780c390304,,,,,,,,,,,,,,,,,,,,,994.1893,994.1893,994.1911,997.9344,0,1,left,2.6409,0.0001,997.9372,1001.3,0,0,left,1001.3018,1001.303,,1,,1,1001.303,1001.303,1001.3047,1002.8102,0,1,1,1,1,0.4,0.6,0.6,0.4,,,,,,,,,,,,,,,2.2662,0.0002,0.2,0.8,0.2,0.8,0.8,0.2,0.4,0.6,1,0,,,,,,,,,,,,
,,66f7aee700d2b58d3c21d64b,66fcbc1a810425318284b8e9,2024-10-02_04h27.19.613,mdp,2024.2.1,Win32,2.73000273,66fa4ebf79326e780c390304,,,,,,,,,,,,,,,,,,,,,1002.8114,1002.8114,1002.8134,1006.4922,1,0,right,2.6038,0.0002,1006.494,1009.8504,0,1,left,1009.8526,1009.8537,,1,,0,1009.8538,1009.8538,1009.8553,1011.3098,0,2,2,2,1,0.4,0.6,0.6,0.4,,,,,,,,,,,,,,,2.2215,0.0002,0.2,0.8,0.2,0.8,0.8,0.2,0.4,0.6,1,0,,,,,,,,,,,,
,,66f7aee700d2b58d3c21d64b,66fcbc1a810425318284b8e9,2024-10-02_04h27.19.613,mdp,2024.2.1,Win32,2.73000273,66fa4ebf79326e780c390304,,,,,,,,,,,,,,,,,,,,,1011.3109,1011.311,1011.3127,1014.6091,1,0,right,2.1985,,1014.6109,1016.8213,1,1,right,1016.8231,1016.8243,,0,,0,1016.8243,1016.8243,1016.8269,1018.271,0,3,3,3,1,0.4,0.6,0.6,0.4,,,,,,,,,,,,,,,1.11,,0.2,0.8,0.2,0.8,0.8,0.2,0.4,0.6,1,0,,,,,,,,,,,,
,,66f7aee700d2b58d3c21d64b,66fcbc1a810425318284b8e9,2024-10-02_04h27.19.613,mdp,2024.2.1,Win32,2.73000273,66fa4ebf79326e780c390304,,,,,,,,,,,,,,,,,,,,,1018.2718,1018.2718,1018.2739,1020.0853,1,0,right,0.7392,0.0003,1020.0872,1022.6365,1,0,right,1022.6384,1022.6396,,0,,1,1022.6397,1022.6397,1022.6416,1024.1031,0,4,4,4,1,0.4,0.6,0.6,0.4,,,,,,,,,,,,,,,1.4794,0.0001,0.6,0.4,0.6,0.4,0.8,0.2,0.4,0.6,1,0,,,,,,,,,,,,
,,66f7aee700d2b58d3c21d64b,66fcbc1a810425318284b8e9,2024-10-02_04h27.19.613,mdp,2024.2.1,Win32,2.73000273,66fa4ebf79326e780c390304,,,,,,,,,,,,,,,,,,,,,1024.1043,1024.1043,1024.1063,1027.4047,1,0,right,2.2346,0.0001,1027.4068,1029.5939,0,1,left,1029.5958,1029.597,,1,,0,1029.5971,1029.5971,1029.5988,1031.053,0,5,5,5,1,0.4,0.6,0.6,0.4,,,,,,,,,,,,,,,1.1091,,0.2,0.8,0.2,0.8,0.8,0.2,0.4,0.6,1,0,,,,,,,,,,,,
,,66f7aee700d2b58d3c21d64b,66fcbc1a810425318284b8e9,2024-10-02_04h27.19.613,mdp,2024.2.1,Win32,2.73000273,66fa4ebf79326e780c390304,,,,,,,,,,,,,,,,,,,,,1031.0543,1031.0543,1031.0561,1033.9726,0,1,left,1.8278,,1033.9743,1036.1881,1,1,right,1036.1903,1036.1915,,1,,0,1036.1915,1036.1915,1036.1935,1037.6312,0,6,6,6,1,0.4,0.6,0.6,0.4,,,,,,,,,,,,,,,1.1258,,0.2,0.8,0.2,0.8,0.8,0.2,0.4,0.6,1,0,,,,,,,,,,,,
,,66f7aee700d2b58d3c21d64b,66fcbc1a810425318284b8e9,2024-10-02_04h27.19.613,mdp,2024.2.1,Win32,2.73000273,66fa4ebf79326e780c390304,,,,,,,,,,,,,,,,,,,,,1037.6324,1037.6324,1037.6342,1040.2067,1,0,right,1.4891,,1040.2087,1042.3838,1,0,right,1042.3858,1042.3869,,1,,1,1042.387,1042.387,1042.3885,1043.8483,0,7,7,7,1,0.4,0.6,0.6,0.4,,,,,,,,,,,,,,,1.1027,,0.2,0.8,0.2,0.8,0.8,0.2,0.4,0.6,1,0,,,,,,,,,,,,
,,66f7aee700d2b58d3c21d64b,66fcbc1a810425318284b8e9,2024-10-02_04h27.19.613,mdp,2024.2.1,Win32,2.73000273,66fa4ebf79326e780c390304,,,,,,,,,,,,,,,,,,,,,1043.8494,1043.8494,1043.8512,1048.6314,0,0,left,3.6978,,1048.6333,1052.3039,1,0,right,1052.3059,1052.3084,,1,,1,1052.3084,1052.3084,1052.3101,1053.7752,0,8,8,8,1,0.4,0.6,0.6,0.4,,,,,,,,,,,,,,,2.6022,,0.2,0.8,0.2,0.8,0.8,0.2,0.4,0.6,1,0,,,,,,,,,,,,
,,66f7aee700d2b58d3c21d64b,66fcbc1a810425318284b8e9,2024-10-02_04h27.19.613,mdp,2024.2.1,Win32,2.73000273,66fa4ebf79326e780c390304,,,,,,,,,,,,,,,,,,,,,1053.7765,1053.7765,1053.7786,1059.6473,1,1,right,4.8016,,1059.6492,1064.4006,1,0,right,1064.4025,1064.4039,,1,,1,1064.4039,1064.4039,1064.4056,1065.8479,0,9,9,9,1,0.4,0.6,0.6,0.4,,,,,,,,,,,,,,,3.6837,,0.2,0.8,0.2,0.8,0.8,0.2,0.4,0.6,1,0,,,,,,,,,,,,
,,66f7aee700d2b58d3c21d64b,66fcbc1a810425318284b8e9,2024-10-02_04h27.19.613,mdp,2024.2.1,Win32,2.73000273,66fa4ebf79326e780c390304,,,,,,,,,,,,,,,,,,,,,1065.8489,1065.849,1065.8506,1069.5048,0,0,left,2.5807,0.0008,1069.5066,1072.0517,0,1,left,1072.054,1072.0551,,1,,0,1072.0552,1072.0552,1072.0568,1073.4962,0,10,10,10,1,0.4,0.6,0.6,0.4,,,,,,,,,,,,,,,1.4779,,0.2,0.8,0.2,0.8,0.6,0.4,0.2,0.8,1,0,,,,,,,,,,,,
,,66f7aee700d2b58d3c21d64b,66fcbc1a810425318284b8e9,2024-10-02_04h27.19.613,mdp,2024.2.1,Win32,2.73000273,66fa4ebf79326e780c390304,,,,,,,,,,,,,,,,,,,,,1073.4972,1073.4972,1073.4989,1076.04,0,1,left,1.4595,0.0003,1076.0417,1077.8601,1,1,right,1077.8622,1077.8633,,1,,0,1077.8634,1077.8634,1077.8652,1079.3096,0,11,11,11,1,0.4,0.6,0.6,0.4,,,,,,,,,,,,,,,0.7515,,0.2,0.8,0.2,0.8,0.6,0.4,0.2,0.8,1,0,,,,,,,,,,,,
,,66f7aee700d2b58d3c21d64b,66fcbc1a810425318284b8e9,2024-10-02_04h27.19.613,mdp,2024.2.1,Win32,2.73000273,66fa4ebf79326e780c390304,,,,,,,,,,,,,,,,,,,,,1079.3107,1079.3107,1079.3125,1081.5222,1,0,right,1.1358,0.0007,1081.524,1083.3756,1,1,right,1083.3778,1083.3789,,1,,0,1083.379,1083.379,1083.381,1084.9164,0,12,12,12,1,0.4,0.6,0.6,0.4,,,,,,,,,,,,,,,0.7296,,0.2,0.8,0.2,0.8,0.6,0.4,0.2,0.8,1,0,,,,,,,,,,,,
,,66f7aee700d2b58d3c21d64b,66fcbc1a810425318284b8e9,2024-10-02_04h27.19.613,mdp,2024.2.1,Win32,2.73000273,66fa4ebf79326e780c390304,,,,,,,,,,,,,,,,,,,,,1084.9176,1084.9176,1084.9194,1087.4775,1,0,right,1.4754,,1087.4794,1090.1039,0,1,left,1090.1071,1090.1081,,1,,0,1090.1083,1090.1083,1090.1099,1091.5799,0,13,13,13,1,0.4,0.6,0.6,0.4,,,,,,,,,,,,,,,1.5343,,0.2,0.8,0.2,0.8,0.6,0.4,0.2,0.8,1,0,,,,,,,,,,,,
,,66f7aee700d2b58d3c21d64b,66fcbc1a810425318284b8e9,2024-10-02_04h27.19.613,mdp,2024.2.1,Win32,2.73000273,66fa4ebf79326e780c390304,,,,,,,,,,,,,,,,,,,,,1091.5806,1091.5806,1091.5825,1094.529,0,1,left,1.8528,,1094.5309,1096.3502,1,0,right,1096.3523,1096.3536,,1,,1,1096.3537,1096.3537,1096.3552,1097.8212,0,14,14,14,1,0.4,0.6,0.6,0.4,,,,,,,,,,,,,,,0.737,,0.2,0.8,0.2,0.8,0.6,0.4,0.2,0.8,1,0,,,,,,,,,,,,
,,66f7aee700d2b58d3c21d64b,66fcbc1a810425318284b8e9,2024-10-02_04h27.19.613,mdp,2024.2.1,Win32,2.73000273,66fa4ebf79326e780c390304,,,,,,,,,,,,,,,,,,,,,1097.8224,1097.8224,1097.8241,1100.0085,0,1,left,1.1161,0.0001,1100.0114,1102.1675,1,1,right,1102.1695,1102.1706,,1,,0,1102.1706,1102.1706,1102.1723,1103.6492,0,15,15,15,1,0.4,0.6,0.6,0.4,,,,,,,,,,,,,,,1.0995,0.0003,0.2,0.8,0.2,0.8,0.6,0.4,0.2,0.8,1,0,,,,,,,,,,,,
,,66f7aee700d2b58d3c21d64b,66fcbc1a810425318284b8e9,2024-10-02_04h27.19.613,mdp,2024.2.1,Win32,2.73000273,66fa4ebf79326e780c390304,,,,,,,,,,,,,,,,,,,,,1103.6502,1103.6502,1103.6519,1105.86,1,0,right,1.104,,1105.8621,1109.8631,1,0,right,1109.8655,1109.8666,,1,,1,1109.8667,1109.8667,1109.8683,1111.3358,0,16,16,16,1,0.4,0.6,0.6,0.4,,,,,,,,,,,,,,,2.9366,,0.2,0.8,0.2,0.8,0.8,0.2,0.4,0.6,1,0,,,,,,,,,,,,
,,66f7aee700d2b58d3c21d64b,66fcbc1a810425318284b8e9,2024-10-02_04h27.19.613,mdp,2024.2.1,Win32,2.73000273,66fa4ebf79326e780c390304,,,,,,,,,,,,,,,,,,,,,1111.3374,1111.3374,1111.3391,1113.9128,0,1,left,1.5019,0.0002,1113.9146,1116.4592,0,0,left,1116.4609,1116.4621,,0,,1,1116.4621,1116.4621,1116.4638,1117.9455,0,17,17,17,1,0.4,0.6,0.6,0.4,,,,,,,,,,,,,,,1.4699,,0.2,0.8,0.2,0.8,0.8,0.2,0.4,0.6,1,0,,,,,,,,,,,,
,,66f7aee700d2b58d3c21d64b,66fcbc1a810425318284b8e9,2024-10-02_04h27.19.613,mdp,2024.2.1,Win32,2.73000273,66fa4ebf79326e780c390304,,,,,,,,,,,,,,,,,,,,,1117.9468,1117.9468,1117.9485,1120.8666,1,0,right,1.86,,1120.869,1124.1808,0,1,left,1124.1827,1124.1838,,1,,0,1124.1838,1124.1838,1124.1854,1125.6435,0,18,18,18,1,0.4,0.6,0.6,0.4,,,,,,,,,,,,,,,2.1955,,0.2,0.8,0.2,0.8,0.6,0.4,0.8,0.2,1,0,,,,,,,,,,,,
,,66f7aee700d2b58d3c21d64b,66fcbc1a810425318284b8e9,2024-10-02_04h27.19.613,mdp,2024.2.1,Win32,2.73000273,66fa4ebf79326e780c390304,,,,,,,,,,,,,,,,,,,,,1125.6447,1125.6447,1125.6465,1127.8242,0,1,left,1.1193,,1127.8267,1130.0239,1,1,right,1130.0259,1130.0269,,0,,0,1130.0269,1130.0269,1130.0286,1131.4641,0,19,19,19,1,0.4,0.6,0.6,0.4,,,,,,,,,,,,,,,1.1346,,0.2,0.8,0.2,0.8,0.6,0.4,0.8,0.2,1,0,,,,,,,,,,,,
,,66f7aee700d2b58d3c21d64b,66fcbc1a810425318284b8e9,2024-10-02_04h27.19.613,mdp,2024.2.1,Win32,2.73000273,66fa4ebf79326e780c390304,,,,,,,,,,,,,,,,,,,,,1131.4653,1131.4653,1131.4671,1134.3591,1,1,right,1.8153,0.0002,1134.3611,1137.2882,1,0,right,1137.29,1137.2911,,1,,1,1137.2912,1137.2912,1137.293,1138.7583,0,20,20,20,1,0.4,0.6,0.6,0.4,,,,,,,,,,,,,,,1.8271,,0.2,0.8,0.2,0.8,0.6,0.4,0.8,0.2,1,0,,,,,,,,,,,,
,,66f7aee700d2b58d3c21d64b,66fcbc1a810425318284b8e9,2024-10-02_04h27.19.613,mdp,2024.2.1,Win32,2.73000273,66fa4ebf79326e780c390304,,,,,,,,,,,,,,,,,,,,,1138.7594,1138.7594,1138.7613,1140.9382,1,1,right,1.0918,,1140.9405,1143.8263,1,0,right,1143.8282,1143.8293,,0,,1,1143.8293,1143.8293,1143.831,1145.2939,0,21,21,21,1,0.4,0.6,0.6,0.4,,,,,,,,,,,,,,,1.8236,,0.2,0.8,0.2,0.8,0.8,0.2,0.6,0.4,1,0,,,,,,,,,,,,
,,66f7aee700d2b58d3c21d64b,66fcbc1a810425318284b8e9,2024-10-02_04h27.19.613,mdp,2024.2.1,Win32,2.73000273,66fa4ebf79326e780c390304,,,,,,,,,,,,,,,,,,,,,1145.2951,1145.2951,1145.2969,1147.4758,1,0,right,1.1012,0.0002,1147.4776,1150.4346,1,1,right,1150.4364,1150.4375,,1,,0,1150.4375,1150.4375,1150.4394,1151.8836,0,22,22,22,1,0.4,0.6,0.6,0.4,,,,,,,,,,,,,,,1.8712,0.0003,0.2,0.8,0.2,0.8,0.8,0.2,0.6,0.4,1,0,,,,,,,,,,,,
,,66f7aee700d2b58d3c21d64b,66fcbc1a810425318284b8e9,2024-10-02_04h27.19.613,mdp,2024.2.1,Win32,2.73000273,66fa4ebf79326e780c390304,,,,,,,,,,,,,,,,,,,,,1151.8847,1151.8847,1151.8864,1154.0569,1,0,right,1.0938,,1154.0588,1156.6309,1,1,right,1156.6329,1156.634,,1,,0,1156.6341,1156.6341,1156.6361,1158.0873,0,23,23,23,1,0.4,0.6,0.6,0.4,,,,,,,,,,,,,,,1.4523,,0.2,0.8,0.2,0.8,0.8,0.2,0.6,0.4,1,0,,,,,,,,,,,,
,,66f7aee700d2b58d3c21d64b,66fcbc1a810425318284b8e9,2024-10-02_04h27.19.613,mdp,2024.2.1,Win32,2.73000273,66fa4ebf79326e780c390304,,,,,,,,,,,,,,,,,,,,,1158.0891,1158.0891,1158.0908,1160.2736,1,0,right,1.1231,0.0002,1160.2754,1163.5334,0,1,left,1163.5351,1163.5363,,1,,0,1163.5363,1163.5364,1163.538,1165.0416,0,24,24,24,1,0.4,0.6,0.6,0.4,,,,,,,,,,,,,,,2.1952,,0.2,0.8,0.2,0.8,0.8,0.2,0.6,0.4,1,0,,,,,,,,,,,,
,,66f7aee700d2b58d3c21d64b,66fcbc1a810425318284b8e9,2024-10-02_04h27.19.613,mdp,2024.2.1,Win32,2.73000273,66fa4ebf79326e780c390304,,,,,,,,,,,,,,,,,,,,,1165.0426,1165.0427,1165.0443,1166.865,1,1,right,0.7411,,1166.8669,1169.0742,0,0,left,1169.076,1169.0771,,0,,1,1169.0771,1169.0771,1169.0788,1170.5371,0,25,25,25,1,0.4,0.6,0.6,0.4,,,,,,,,,,,,,,,1.1292,0.0007,0.2,0.8,0.2,0.8,0.8,0.2,0.6,0.4,1,0,,,,,,,,,,,,
,,66f7aee700d2b58d3c21d64b,66fcbc1a810425318284b8e9,2024-10-02_04h27.19.613,mdp,2024.2.1,Win32,2.73000273,66fa4ebf79326e780c390304,,,,,,,,,,,,,,,,,,,,,1170.5383,1170.5383,1170.5398,1172.7151,1,0,right,1.1049,0.0002,1172.7172,1174.906,1,1,right,1174.9079,1174.909,,1,,0,1174.909,1174.909,1174.9109,1176.3625,0,26,26,26,1,0.4,0.6,0.6,0.4,,,,,,,,,,,,,,,1.0956,0.0002,0.2,0.8,0.2,0.8,0.8,0.2,0.6,0.4,1,0,,,,,,,,,,,,
,,66f7aee700d2b58d3c21d64b,66fcbc1a810425318284b8e9,2024-10-02_04h27.19.613,mdp,2024.2.1,Win32,2.73000273,66fa4ebf79326e780c390304,,,,,,,,,,,,,,,,,,,,,1176.364,1176.364,1176.3657,1178.2431,1,0,right,0.7425,,1178.2447,1180.4456,1,0,right,1180.4481,1180.4493,,1,,1,1180.4493,1180.4493,1180.4509,1181.9038,0,27,27,27,1,0.8,0.2,0.4,0.6,,,,,,,,,,,,,,,1.1054,0.0001,0.2,0.8,0.2,0.8,0.8,0.2,0.6,0.4,1,0,,,,,,,,,,,,
,,66f7aee700d2b58d3c21d64b,66fcbc1a810425318284b8e9,2024-10-02_04h27.19.613,mdp,2024.2.1,Win32,2.73000273,66fa4ebf79326e780c390304,,,,,,,,,,,,,,,,,,,,,1181.9048,1181.9049,1181.9066,1183.3808,1,1,right,0.4075,,1183.3832,1185.5631,0,1,left,1185.565,1185.5661,,0,,0,1185.5662,1185.5662,1185.5679,1187.0108,0,28,28,28,1,0.8,0.2,0.4,0.6,,,,,,,,,,,,,,,1.1011,0.0007,0.2,0.8,0.2,0.8,0.8,0.2,0.6,0.4,1,0,,,,,,,,,,,,
,,66f7aee700d2b58d3c21d64b,66fcbc1a810425318284b8e9,2024-10-02_04h27.19.613,mdp,2024.2.1,Win32,2.73000273,66fa4ebf79326e780c390304,,,,,,,,,,,,,,,,,,,,,1187.0119,1187.0119,1187.0137,1188.1214,1,1,right,0.0096,,1188.1234,1191.0104,0,0,left,1191.0124,1191.0136,,1,,1,1191.0136,1191.0136,1191.0152,1192.4553,0,29,29,29,1,0.8,0.2,0.4,0.6,,,,,,,,,,,,,,,1.8244,0.0002,0.2,0.8,0.2,0.8,0.8,0.2,0.6,0.4,1,0,,,,,,,,,,,,
,,66f7aee700d2b58d3c21d64b,66fcbc1a810425318284b8e9,2024-10-02_04h27.19.613,mdp,2024.2.1,Win32,2.73000273,66fa4ebf79326e780c390304,,,,,,,,,,,,,,,,,,,,,1192.4565,1192.4565,1192.4584,1193.9148,1,1,right,0.3949,,1193.9168,1196.0928,1,0,right,1196.0945,1196.0957,,0,,1,1196.0958,1196.0958,1196.0974,1197.548,0,30,30,30,1,0.8,0.2,0.4,0.6,,,,,,,,,,,,,,,1.1043,0.0008,0.2,0.8,0.2,0.8,0.8,0.2,0.6,0.4,1,0,,,,,,,,,,,,
,,66f7aee700d2b58d3c21d64b,66fcbc1a810425318284b8e9,2024-10-02_04h27.19.613,mdp,2024.2.1,Win32,2.73000273,66fa4ebf79326e780c390304,,,,,,,,,,,,,,,,,,,,,1197.5492,1197.5492,1197.551,1200.115,1,1,right,1.4637,0.0002,1200.117,1202.2771,1,0,right,1202.2791,1202.2805,,1,,1,1202.2806,1202.2806,1202.2822,1203.7459,0,31,31,31,1,0.8,0.2,0.4,0.6,,,,,,,,,,,,,,,1.0965,0.0002,0.2,0.8,0.2,0.8,0.8,0.2,0.6,0.4,1,0,,,,,,,,,,,,
,,66f7aee700d2b58d3c21d64b,66fcbc1a810425318284b8e9,2024-10-02_04h27.19.613,mdp,2024.2.1,Win32,2.73000273,66fa4ebf79326e780c390304,,,,,,,,,,,,,,,,,,,,,1203.747,1203.7471,1203.7489,1205.9262,1,1,right,1.1166,0.0002,1205.9278,1208.0887,1,0,right,1208.0911,1208.0922,,0,,1,1208.0922,1208.0922,1208.0938,1209.5276,0,32,32,32,1,0.8,0.2,0.4,0.6,,,,,,,,,,,,,,,1.098,,0.2,0.8,0.2,0.8,0.8,0.2,0.6,0.4,1,0,,,,,,,,,,,,
,,66f7aee700d2b58d3c21d64b,66fcbc1a810425318284b8e9,2024-10-02_04h27.19.613,mdp,2024.2.1,Win32,2.73000273,66fa4ebf79326e780c390304,,,,,,,,,,,,,,,,,,,,,1209.5287,1209.5288,1209.5305,1210.9991,1,0,right,0.375,,1211.0011,1212.7931,1,1,right,1212.7969,1212.798,,1,,0,1212.798,1212.798,1212.7996,1214.2373,0,33,33,33,1,0.8,0.2,0.4,0.6,,,,,,,,,,,,,,,0.7357,,0.2,0.8,0.2,0.8,0.8,0.2,0.6,0.4,1,0,,,,,,,,,,,,
,,66f7aee700d2b58d3c21d64b,66fcbc1a810425318284b8e9,2024-10-02_04h27.19.613,mdp,2024.2.1,Win32,2.73000273,66fa4ebf79326e780c390304,,,,,,,,,,,,,,,,,,,,,1214.2385,1214.2385,1214.2402,1216.0576,1,0,right,0.7394,,1216.0598,1217.8707,1,1,right,1217.8726,1217.8742,,1,,0,1217.8742,1217.8742,1217.8758,1219.326,0,34,34,34,1,0.8,0.2,0.4,0.6,,,,,,,,,,,,,,,0.7341,,0.2,0.8,0.2,0.8,0.8,0.2,0.6,0.4,1,0,,,,,,,,,,,,
,,66f7aee700d2b58d3c21d64b,66fcbc1a810425318284b8e9,2024-10-02_04h27.19.613,mdp,2024.2.1,Win32,2.73000273,66fa4ebf79326e780c390304,,,,,,,,,,,,,,,,,,,,,1219.3272,1219.3272,1219.3289,1221.1349,0,1,left,0.7416,1E-04,1221.1366,1222.962,1,0,right,1222.9638,1222.9648,,0,,1,1222.9649,1222.9649,1222.9665,1224.4241,0,35,35,35,1,0.8,0.2,0.4,0.6,,,,,,,,,,,,,,,0.756,0.0003,0.2,0.8,0.2,0.8,0.8,0.2,0.6,0.4,1,0,,,,,,,,,,,,
,,66f7aee700d2b58d3c21d64b,66fcbc1a810425318284b8e9,2024-10-02_04h27.19.613,mdp,2024.2.1,Win32,2.73000273,66fa4ebf79326e780c390304,,,,,,,,,,,,,,,,,,,,,1224.4258,1224.4258,1224.4275,1226.2414,0,0,left,0.7403,0.0006,1226.2436,1228.4034,1,1,right,1228.4054,1228.4069,,1,,0,1228.4069,1228.4069,1228.4086,1229.8769,0,36,36,36,1,0.8,0.2,0.4,0.6,,,,,,,,,,,,,,,1.0998,,0.2,0.8,0.2,0.8,0.8,0.2,0.6,0.4,1,0,,,,,,,,,,,,
,,66f7aee700d2b58d3c21d64b,66fcbc1a810425318284b8e9,2024-10-02_04h27.19.613,mdp,2024.2.1,Win32,2.73000273,66fa4ebf79326e780c390304,,,,,,,,,,,,,,,,,,,,,1229.8781,1229.8781,1229.8803,1231.68,1,0,right,0.7318,0.0001,1231.6819,1234.5527,1,1,right,1234.5546,1234.5557,,0,,0,1234.5557,1234.5557,1234.5573,1235.9869,0,37,37,37,1,0.8,0.2,0.4,0.6,,,,,,,,,,,,,,,1.799,,0.2,0.8,0.2,0.8,0.8,0.2,0.6,0.4,1,0,,,,,,,,,,,,
,,66f7aee700d2b58d3c21d64b,66fcbc1a810425318284b8e9,2024-10-02_04h27.19.613,mdp,2024.2.1,Win32,2.73000273,66fa4ebf79326e780c390304,,,,,,,,,,,,,,,,,,,,,1235.9881,1235.9881,1235.9897,1237.7769,1,1,right,0.7267,,1237.7789,1239.5496,0,0,left,1239.5516,1239.5525,,0,,1,1239.5526,1239.5527,1239.5543,1240.9703,0,38,38,38,1,0.8,0.2,0.4,0.6,,,,,,,,,,,,,,,0.7276,,0.2,0.8,0.2,0.8,0.8,0.2,0.6,0.4,1,0,,,,,,,,,,,,
,,66f7aee700d2b58d3c21d64b,66fcbc1a810425318284b8e9,2024-10-02_04h27.19.613,mdp,2024.2.1,Win32,2.73000273,66fa4ebf79326e780c390304,,,,,,,,,,,,,,,,,,,,,1240.971,1240.971,1240.9729,1244.1877,0,0,left,2.1588,0.0007,1244.1894,1246.6568,1,1,right,1246.6587,1246.6598,,1,,0,1246.6598,1246.6599,1246.6615,1248.1049,0,39,39,39,1,0.8,0.2,0.4,0.6,,,,,,,,,,,,,,,1.423,0.0002,0.2,0.8,0.2,0.8,0.8,0.2,0.6,0.4,1,0,,,,,,,,,,,,
,,66f7aee700d2b58d3c21d64b,66fcbc1a810425318284b8e9,2024-10-02_04h27.19.613,mdp,2024.2.1,Win32,2.73000273,66fa4ebf79326e780c390304,,,,,,,,,,,,,,,,,,,,,1248.1056,1248.1057,1248.1074,1249.8837,1,0,right,0.7173,,1249.8856,1253.4381,0,1,left,1253.4402,1253.4416,,0,,0,1253.4416,1253.4416,1253.4439,1254.8552,0,40,40,40,1,0.8,0.2,0.4,0.6,,,,,,,,,,,,,,,2.5161,0.0009,0.2,0.8,0.2,0.8,0.8,0.2,0.6,0.4,1,0,,,,,,,,,,,,
,,66f7aee700d2b58d3c21d64b,66fcbc1a810425318284b8e9,2024-10-02_04h27.19.613,mdp,2024.2.1,Win32,2.73000273,66fa4ebf79326e780c390304,,,,,,,,,,,,,,,,,,,,,1254.8563,1254.8564,1254.8581,1256.2862,1,0,right,0.3789,,1256.2882,1258.1101,0,1,left,1258.1118,1258.1129,,1,,0,1258.113,1258.113,1258.116,1259.5449,0,41,41,41,1,0.2,0.8,0.8,0.2,,,,,,,,,,,,,,,0.7743,0.0003,0.2,0.8,0.2,0.8,0.8,0.2,0.6,0.4,1,0,,,,,,,,,,,,
,,66f7aee700d2b58d3c21d64b,66fcbc1a810425318284b8e9,2024-10-02_04h27.19.613,mdp,2024.2.1,Win32,2.73000273,66fa4ebf79326e780c390304,,,,,,,,,,,,,,,,,,,,,1259.5467,1259.5467,1259.5483,1261.3082,1,1,right,0.7156,0.001,1261.3099,1263.0819,1,0,right,1263.0837,1263.0848,,0,,1,1263.0848,1263.0848,1263.0865,1264.491,0,42,42,42,1,0.2,0.8,0.8,0.2,,,,,,,,,,,,,,,0.7312,,0.6,0.4,0.4,0.6,0.8,0.2,0.6,0.4,1,0,,,,,,,,,,,,
,,66f7aee700d2b58d3c21d64b,66fcbc1a810425318284b8e9,2024-10-02_04h27.19.613,mdp,2024.2.1,Win32,2.73000273,66fa4ebf79326e780c390304,,,,,,,,,,,,,,,,,,,,,1264.4918,1264.4918,1264.4932,1265.8917,1,0,right,0.3638,,1265.8938,1267.6837,1,1,right,1267.6857,1267.6868,,1,,0,1267.6868,1267.6868,1267.6888,1269.0975,0,43,43,43,1,0.2,0.8,0.8,0.2,,,,,,,,,,,,,,,0.7506,,0.6,0.4,0.4,0.6,0.8,0.2,0.6,0.4,1,0,,,,,,,,,,,,
,,66f7aee700d2b58d3c21d64b,66fcbc1a810425318284b8e9,2024-10-02_04h27.19.613,mdp,2024.2.1,Win32,2.73000273,66fa4ebf79326e780c390304,,,,,,,,,,,,,,,,,,,,,1269.0987,1269.0987,1269.1004,1270.5138,1,0,right,0.3666,0.0002,1270.5156,1272.2919,1,1,right,1272.2936,1272.2948,,0,,0,1272.2949,1272.2949,1272.2964,1273.6999,0,44,44,44,1,0.2,0.8,0.8,0.2,,,,,,,,,,,,,,,0.7273,,0.6,0.4,0.4,0.6,0.8,0.2,0.6,0.4,1,0,,,,,,,,,,,,
,,66f7aee700d2b58d3c21d64b,66fcbc1a810425318284b8e9,2024-10-02_04h27.19.613,mdp,2024.2.1,Win32,2.73000273,66fa4ebf79326e780c390304,,,,,,,,,,,,,,,,,,,,,1273.7011,1273.7011,1273.7029,1275.5203,0,0,left,0.7283,0.0006,1275.522,1277.2957,1,1,right,1277.2975,1277.2986,,0,,0,1277.2987,1277.2987,1277.3003,1278.7074,0,45,45,45,1,0.2,0.8,0.8,0.2,,,,,,,,,,,,,,,0.7293,,0.6,0.4,0.4,0.6,0.8,0.2,0.6,0.4,1,0,,,,,,,,,,,,
,,66f7aee700d2b58d3c21d64b,66fcbc1a810425318284b8e9,2024-10-02_04h27.19.613,mdp,2024.2.1,Win32,2.73000273,66fa4ebf79326e780c390304,,,,,,,,,,,,,,,,,,,,,1278.7086,1278.7086,1278.7103,1279.7668,1,0,right,0.0101,,1279.7687,1281.5371,1,1,right,1281.539,1281.5402,,1,,0,1281.5403,1281.5403,1281.5419,1282.9717,0,46,46,46,1,0.2,0.8,0.8,0.2,,,,,,,,,,,,,,,0.7218,,0.2,0.8,0.2,0.8,0.8,0.2,0.6,0.4,1,0,,,,,,,,,,,,
,,66f7aee700d2b58d3c21d64b,66fcbc1a810425318284b8e9,2024-10-02_04h27.19.613,mdp,2024.2.1,Win32,2.73000273,66fa4ebf79326e780c390304,,,,,,,,,,,,,,,,,,,,,1282.9729,1282.9729,1282.9747,1284.7381,1,0,right,0.7177,,1284.7401,1286.5283,1,1,right,1286.5301,1286.5313,,1,,0,1286.5313,1286.5313,1286.5329,1287.9394,0,47,47,47,1,0.2,0.8,0.8,0.2,,,,,,,,,,,,,,,0.7454,,0.2,0.8,0.2,0.8,0.8,0.2,0.6,0.4,1,0,,,,,,,,,,,,
,,66f7aee700d2b58d3c21d64b,66fcbc1a810425318284b8e9,2024-10-02_04h27.19.613,mdp,2024.2.1,Win32,2.73000273,66fa4ebf79326e780c390304,,,,,,,,,,,,,,,,,,,,,1287.9407,1287.9407,1287.9424,1289.7087,1,1,right,0.7195,,1289.7106,1291.8736,1,0,right,1291.8755,1291.8766,,0,,1,1291.8767,1291.8767,1291.8786,1293.3191,0,48,48,48,1,0.6,0.4,0.4,0.6,,,,,,,,,,,,,,,1.1211,,0.2,0.8,0.2,0.8,0.8,0.2,0.6,0.4,1,0,,,,,,,,,,,,
,,66f7aee700d2b58d3c21d64b,66fcbc1a810425318284b8e9,2024-10-02_04h27.19.613,mdp,2024.2.1,Win32,2.73000273,66fa4ebf79326e780c390304,,,,,,,,,,,,,,,,,,,,,1293.3203,1293.3203,1293.3221,1295.1143,1,0,right,0.7311,,1295.1164,1298.8239,1,1,right,1298.8259,1298.8273,,1,,0,1298.8275,1298.8275,1298.829,1300.2821,0,49,49,49,1,0.6,0.4,0.4,0.6,,,,,,,,,,,,,,,2.6061,,0.2,0.8,0.2,0.8,0.8,0.2,0.6,0.4,1,0,,,,,,,,,,,,
,,66f7aee700d2b58d3c21d64b,66fcbc1a810425318284b8e9,2024-10-02_04h27.19.613,mdp,2024.2.1,Win32,2.73000273,66fa4ebf79326e780c390304,,,,,,,,,,,,,,,,,,,,,,,,,,,,,,,,,,,,,,,,,,,,,,,,,,,,,,,,1300.2822,1359.0794,0,1,1,0,1,imgs/giraffe.png,imgs/cat.png,imgs/squirrel.png,imgs/lion.png,imgs/rabbit.png,,,,,,,,,,,,,,,,,,,,,,,,
,,66f7aee700d2b58d3c21d64b,66fcbc1a810425318284b8e9,2024-10-02_04h27.19.613,mdp,2024.2.1,Win32,2.73000273,66fa4ebf79326e780c390304,,,,,,,,,,,,,,3,seqs/st3seq12.csv,1359.0818,1362.8188,space,2.6402,,1362.8331,1362.8331,1362.8348,1391.4817,0,0,left,27.5593,,1391.4836,1394.764,1,0,right,1394.766,1398.0346,0,1,left,0,1398.0347,1398.0347,1398.0365,1399.4915,0,0,0,0,1,0.8,0.2,0.4,0.6,,,,,,,,,,,,,,,2.2093,0.0002,0.6,0.4,0.6,0.4,0.6,0.4,0.2,0.8,,,2.1942,0.0003,0.2,0.8,0.8,0.2,0.8,0.2,0.2,0.8,1,0
,,66f7aee700d2b58d3c21d64b,66fcbc1a810425318284b8e9,2024-10-02_04h27.19.613,mdp,2024.2.1,Win32,2.73000273,66fa4ebf79326e780c390304,,,,,,,,,,,,,,,,,,,,,1399.4929,1399.4929,1399.4947,1402.0336,0,1,left,1.4608,,1402.0358,1405.7246,1,1,right,1405.7266,1407.9887,1,1,right,0,1407.9888,1407.9889,1407.9906,1409.4522,0,1,1,1,1,0.8,0.2,0.4,0.6,,,,,,,,,,,,,,,2.5953,,0.6,0.4,0.6,0.4,0.6,0.4,0.2,0.8,,,1.148,,0.2,0.8,0.8,0.2,0.8,0.2,0.2,0.8,1,0
,,66f7aee700d2b58d3c21d64b,66fcbc1a810425318284b8e9,2024-10-02_04h27.19.613,mdp,2024.2.1,Win32,2.73000273,66fa4ebf79326e780c390304,,,,,,,,,,,,,,,,,,,,,1409.4531,1409.4531,1409.4548,1411.6275,1,1,right,1.105,,1411.6294,1422.2833,1,1,right,1422.2852,1429.2303,1,1,right,0,1429.2304,1429.2304,1429.2321,1430.6872,0,2,2,2,1,0.8,0.2,0.4,0.6,,,,,,,,,,,,,,,9.5697,,0.6,0.4,0.6,0.4,0.6,0.4,0.2,0.8,,,5.8625,0.0001,0.2,0.8,0.8,0.2,0.8,0.2,0.2,0.8,1,0
,,66f7aee700d2b58d3c21d64b,66fcbc1a810425318284b8e9,2024-10-02_04h27.19.613,mdp,2024.2.1,Win32,2.73000273,66fa4ebf79326e780c390304,,,,,,,,,,,,,,,,,,,,,1430.6889,1430.6889,1430.6905,1434.6661,1,0,right,2.8993,0.0002,1434.6688,1437.6226,0,0,left,1437.6245,1441.6505,0,0,left,1,1441.6507,1441.6507,1441.6525,1443.0961,0,3,3,3,1,0.8,0.2,0.4,0.6,,,,,,,,,,,,,,,1.855,,0.6,0.4,0.6,0.4,0.6,0.4,0.2,0.8,,,2.9404,,0.2,0.8,0.8,0.2,0.8,0.2,0.2,0.8,1,0
,,66f7aee700d2b58d3c21d64b,66fcbc1a810425318284b8e9,2024-10-02_04h27.19.613,mdp,2024.2.1,Win32,2.73000273,66fa4ebf79326e780c390304,,,,,,,,,,,,,,,,,,,,,1443.0974,1443.0974,1443.0991,1445.6826,0,0,left,1.4857,,1445.6849,1448.5886,1,0,right,1448.5909,1450.7733,0,0,left,1,1450.7734,1450.7734,1450.7755,1452.2135,0,4,4,4,1,0.8,0.2,0.4,0.6,,,,,,,,,,,,,,,1.8396,,0.6,0.4,0.6,0.4,0.6,0.4,0.2,0.8,,,1.1054,,0.2,0.8,0.8,0.2,0.8,0.2,0.2,0.8,1,0
,,66f7aee700d2b58d3c21d64b,66fcbc1a810425318284b8e9,2024-10-02_04h27.19.613,mdp,2024.2.1,Win32,2.73000273,66fa4ebf79326e780c390304,,,,,,,,,,,,,,,,,,,,,1452.2152,1452.2152,1452.217,1454.0318,1,0,right,0.7457,,1454.0341,1456.2067,0,0,left,1456.2084,1458.397,0,0,left,1,1458.3972,1458.3972,1458.399,1459.8562,0,5,5,5,1,0.8,0.2,0.4,0.6,,,,,,,,,,,,,,,1.1081,0.0002,0.8,0.2,0.2,0.8,0.6,0.4,0.2,0.8,,,1.1213,0.0001,0.2,0.8,0.8,0.2,0.8,0.2,0.2,0.8,1,0
,,66f7aee700d2b58d3c21d64b,66fcbc1a810425318284b8e9,2024-10-02_04h27.19.613,mdp,2024.2.1,Win32,2.73000273,66fa4ebf79326e780c390304,,,,,,,,,,,,,,,,,,,,,1459.8575,1459.8576,1459.8594,1461.6611,0,0,left,0.7326,,1461.6636,1464.2356,0,1,left,1464.2376,1466.4025,0,0,left,1,1466.4025,1466.4025,1466.4048,1467.8576,0,6,6,6,1,0.8,0.2,0.4,0.6,,,,,,,,,,,,,,,1.5029,,0.8,0.2,0.2,0.8,0.6,0.4,0.2,0.8,,,1.0969,,0.2,0.8,0.8,0.2,0.8,0.2,0.2,0.8,1,0
,,66f7aee700d2b58d3c21d64b,66fcbc1a810425318284b8e9,2024-10-02_04h27.19.613,mdp,2024.2.1,Win32,2.73000273,66fa4ebf79326e780c390304,,,,,,,,,,,,,,,,,,,,,1467.8594,1467.8594,1467.8612,1469.6791,0,0,left,0.7348,,1469.6813,1471.8402,0,0,left,1471.8423,1473.9901,0,1,left,0,1473.9902,1473.9903,1473.9922,1475.4853,0,7,7,7,1,0.8,0.2,0.4,0.6,,,,,,,,,,,,,,,1.0911,0.0002,0.8,0.2,0.2,0.8,0.6,0.4,0.2,0.8,,,1.0737,,0.2,0.8,0.8,0.2,0.8,0.2,0.2,0.8,1,0
,,66f7aee700d2b58d3c21d64b,66fcbc1a810425318284b8e9,2024-10-02_04h27.19.613,mdp,2024.2.1,Win32,2.73000273,66fa4ebf79326e780c390304,,,,,,,,,,,,,,,,,,,,,1475.4864,1475.4864,1475.4884,1477.2919,0,0,left,0.7393,,1477.2937,1479.1756,0,1,left,1479.1775,1480.9893,1,1,right,0,1480.9894,1480.9894,1480.9913,1482.4673,0,8,8,8,1,0.8,0.2,0.4,0.6,,,,,,,,,,,,,,,0.7624,,0.2,0.8,0.6,0.4,0.6,0.4,0.2,0.8,,,0.7379,,0.2,0.8,0.8,0.2,0.8,0.2,0.2,0.8,1,0
,,66f7aee700d2b58d3c21d64b,66fcbc1a810425318284b8e9,2024-10-02_04h27.19.613,mdp,2024.2.1,Win32,2.73000273,66fa4ebf79326e780c390304,,,,,,,,,,,,,,,,,,,,,1482.4679,1482.4679,1482.4693,1484.2846,0,0,left,0.7487,0.0003,1484.2869,1486.1046,0,0,left,1486.1064,1488.3061,0,0,left,1,1488.3062,1488.3062,1488.3086,1489.7793,0,9,9,9,1,0.8,0.2,0.4,0.6,,,,,,,,,,,,,,,0.7444,0.0008,0.2,0.8,0.6,0.4,0.6,0.4,0.2,0.8,,,1.1072,0.0001,0.2,0.8,0.8,0.2,0.8,0.2,0.2,0.8,1,0
,,66f7aee700d2b58d3c21d64b,66fcbc1a810425318284b8e9,2024-10-02_04h27.19.613,mdp,2024.2.1,Win32,2.73000273,66fa4ebf79326e780c390304,,,,,,,,,,,,,,,,,,,,,1489.7806,1489.7806,1489.7824,1491.6025,1,0,right,0.733,,1491.6049,1494.1676,0,1,left,1494.1699,1497.1047,0,0,left,1,1497.1048,1497.1048,1497.107,1498.5793,0,10,10,10,1,0.8,0.2,0.4,0.6,,,,,,,,,,,,,,,1.4817,,0.2,0.8,0.6,0.4,0.6,0.4,0.2,0.8,,,1.862,0.0002,0.8,0.2,0.4,0.6,0.8,0.2,0.2,0.8,1,0
,,66f7aee700d2b58d3c21d64b,66fcbc1a810425318284b8e9,2024-10-02_04h27.19.613,mdp,2024.2.1,Win32,2.73000273,66fa4ebf79326e780c390304,,,,,,,,,,,,,,,,,,,,,1498.5801,1498.5801,1498.5815,1500.4007,1,0,right,0.738,1E-04,1500.4025,1502.6148,1,0,right,1502.6166,1504.4308,0,0,left,1,1504.431,1504.431,1504.4324,1505.8831,0,11,11,11,1,0.8,0.2,0.4,0.6,,,,,,,,,,,,,,,1.1467,,0.2,0.8,0.6,0.4,0.6,0.4,0.2,0.8,,,0.7368,,0.8,0.2,0.4,0.6,0.8,0.2,0.2,0.8,1,0
,,66f7aee700d2b58d3c21d64b,66fcbc1a810425318284b8e9,2024-10-02_04h27.19.613,mdp,2024.2.1,Win32,2.73000273,66fa4ebf79326e780c390304,,,,,,,,,,,,,,,,,,,,,1505.8843,1505.8843,1505.8862,1507.3433,1,0,right,0.395,,1507.3452,1509.5181,0,1,left,1509.5202,1511.3213,0,1,left,0,1511.3214,1511.3215,1511.3233,1512.7997,0,12,12,12,1,0.8,0.2,0.4,0.6,,,,,,,,,,,,,,,1.1,,0.2,0.8,0.6,0.4,0.6,0.4,0.2,0.8,,,0.7364,,0.8,0.2,0.4,0.6,0.8,0.2,0.2,0.8,1,0
,,66f7aee700d2b58d3c21d64b,66fcbc1a810425318284b8e9,2024-10-02_04h27.19.613,mdp,2024.2.1,Win32,2.73000273,66fa4ebf79326e780c390304,,,,,,,,,,,,,,,,,,,,,1512.801,1512.801,1512.803,1514.6184,0,0,left,0.7392,,1514.6208,1516.4254,1,1,right,1516.4277,1518.2589,1,0,right,1,1518.2589,1518.2591,1518.2609,1519.7587,0,13,13,13,1,0.8,0.2,0.4,0.6,,,,,,,,,,,,,,,0.7398,,0.2,0.8,0.6,0.4,0.6,0.4,0.2,0.8,,,0.7475,,0.8,0.2,0.4,0.6,0.8,0.2,0.2,0.8,1,0
,,66f7aee700d2b58d3c21d64b,66fcbc1a810425318284b8e9,2024-10-02_04h27.19.613,mdp,2024.2.1,Win32,2.73000273,66fa4ebf79326e780c390304,,,,,,,,,,,,,,,,,,,,,1519.7604,1519.7604,1519.7621,1521.5694,0,0,left,0.7334,,1521.5712,1523.3943,1,0,right,1523.3966,1525.2136,1,1,right,0,1525.2137,1525.2137,1525.2159,1526.6565,0,14,14,14,1,0.8,0.2,0.4,0.6,,,,,,,,,,,,,,,0.7567,,0.2,0.8,0.6,0.4,0.6,0.4,0.2,0.8,,,0.7255,,0.8,0.2,0.4,0.6,0.8,0.2,0.2,0.8,1,0
,,66f7aee700d2b58d3c21d64b,66fcbc1a810425318284b8e9,2024-10-02_04h27.19.613,mdp,2024.2.1,Win32,2.73000273,66fa4ebf79326e780c390304,,,,,,,,,,,,,,,,,,,,,1526.658,1526.658,1526.6598,1528.4938,1,0,right,0.7349,,1528.4961,1530.3085,1,0,right,1530.3104,1532.1289,0,0,left,1,1532.1291,1532.1291,1532.1311,1533.6302,0,15,15,15,1,0.8,0.2,0.4,0.6,,,,,,,,,,,,,,,0.7362,0.0002,0.2,0.8,0.6,0.4,0.6,0.4,0.2,0.8,,,0.7419,0.0002,0.8,0.2,0.4,0.6,0.8,0.2,0.2,0.8,1,0
,,66f7aee700d2b58d3c21d64b,66fcbc1a810425318284b8e9,2024-10-02_04h27.19.613,mdp,2024.2.1,Win32,2.73000273,66fa4ebf79326e780c390304,,,,,,,,,,,,,,,,,,,,,1533.6308,1533.6309,1533.633,1535.1033,1,1,right,0.3783,,1535.1052,1538.0593,1,1,right,1538.0612,1539.8751,0,0,left,1,1539.8753,1539.8754,1539.8772,1541.3246,0,16,16,16,1,0.6,0.4,0.6,0.4,,,,,,,,,,,,,,,1.8752,,0.2,0.8,0.6,0.4,0.6,0.4,0.2,0.8,,,0.7401,0.0003,0.8,0.2,0.4,0.6,0.8,0.2,0.2,0.8,1,0
,,66f7aee700d2b58d3c21d64b,66fcbc1a810425318284b8e9,2024-10-02_04h27.19.613,mdp,2024.2.1,Win32,2.73000273,66fa4ebf79326e780c390304,,,,,,,,,,,,,,,,,,,,,1541.3255,1541.3256,1541.3285,1542.796,1,0,right,0.3943,,1542.7979,1544.9963,1,0,right,1544.9983,1546.8141,0,0,left,1,1546.8143,1546.8143,1546.8162,1548.3061,0,17,17,17,1,0.6,0.4,0.6,0.4,,,,,,,,,,,,,,,1.1038,,0.2,0.8,0.6,0.4,0.6,0.4,0.2,0.8,,,0.7391,,0.8,0.2,0.4,0.6,0.8,0.2,0.2,0.8,1,0
,,66f7aee700d2b58d3c21d64b,66fcbc1a810425318284b8e9,2024-10-02_04h27.19.613,mdp,2024.2.1,Win32,2.73000273,66fa4ebf79326e780c390304,,,,,,,,,,,,,,,,,,,,,1548.3073,1548.3073,1548.309,1549.7605,1,1,right,0.3799,,1549.7623,1551.9688,1,1,right,1551.9705,1553.7778,0,0,left,1,1553.7779,1553.7779,1553.78,1555.2119,0,18,18,18,1,0.6,0.4,0.6,0.4,,,,,,,,,,,,,,,1.1174,0.0004,0.2,0.8,0.6,0.4,0.6,0.4,0.2,0.8,,,0.7291,0.0003,0.8,0.2,0.4,0.6,0.8,0.2,0.2,0.8,1,0
,,66f7aee700d2b58d3c21d64b,66fcbc1a810425318284b8e9,2024-10-02_04h27.19.613,mdp,2024.2.1,Win32,2.73000273,66fa4ebf79326e780c390304,,,,,,,,,,,,,,,,,,,,,1555.2132,1555.2132,1555.215,1557.01,1,1,right,0.7336,,1557.0124,1558.8357,1,1,right,1558.8376,1560.6409,0,0,left,1,1560.6411,1560.6411,1560.6436,1562.1395,0,19,19,19,1,0.6,0.4,0.6,0.4,,,,,,,,,,,,,,,0.751,,0.2,0.8,0.6,0.4,0.6,0.4,0.2,0.8,,,0.7396,,0.2,0.8,0.2,0.8,0.8,0.2,0.2,0.8,1,0
,,66f7aee700d2b58d3c21d64b,66fcbc1a810425318284b8e9,2024-10-02_04h27.19.613,mdp,2024.2.1,Win32,2.73000273,66fa4ebf79326e780c390304,,,,,,,,,,,,,,,,,,,,,1562.1409,1562.1409,1562.143,1563.2306,1,0,right,0.0103,,1563.2328,1565.0614,1,1,right,1565.0632,1566.8782,0,0,left,1,1566.8783,1566.8783,1566.8793,1568.3663,0,20,20,20,1,0.6,0.4,0.6,0.4,,,,,,,,,,,,,,,0.7388,,0.2,0.8,0.6,0.4,0.6,0.4,0.2,0.8,,,0.7418,,0.2,0.8,0.2,0.8,0.8,0.2,0.2,0.8,1,0
,,66f7aee700d2b58d3c21d64b,66fcbc1a810425318284b8e9,2024-10-02_04h27.19.613,mdp,2024.2.1,Win32,2.73000273,66fa4ebf79326e780c390304,,,,,,,,,,,,,,,,,,,,,1568.3675,1568.3675,1568.3697,1570.1912,1,1,right,0.7376,0.0002,1570.1935,1571.6509,1,1,right,1571.6526,1573.4705,0,0,left,1,1573.4707,1573.4708,1573.4727,1574.9393,0,21,21,21,1,0.6,0.4,0.6,0.4,,,,,,,,,,,,,,,0.3807,,0.2,0.8,0.6,0.4,0.6,0.4,0.2,0.8,,,0.7467,,0.2,0.8,0.2,0.8,0.8,0.2,0.2,0.8,1,0
,,66f7aee700d2b58d3c21d64b,66fcbc1a810425318284b8e9,2024-10-02_04h27.19.613,mdp,2024.2.1,Win32,2.73000273,66fa4ebf79326e780c390304,,,,,,,,,,,,,,,,,,,,,1574.9406,1574.9406,1574.9427,1576.0428,1,1,right,0.0093,,1576.0447,1577.8585,1,1,right,1577.8604,1579.639,0,0,left,1,1579.6392,1579.6392,1579.6409,1581.0946,0,22,22,22,1,0.6,0.4,0.6,0.4,,,,,,,,,,,,,,,0.7412,,0.2,0.8,0.6,0.4,0.6,0.4,0.2,0.8,,,0.7239,,0.2,0.8,0.2,0.8,0.8,0.2,0.2,0.8,1,0
,,66f7aee700d2b58d3c21d64b,66fcbc1a810425318284b8e9,2024-10-02_04h27.19.613,mdp,2024.2.1,Win32,2.73000273,66fa4ebf79326e780c390304,,,,,,,,,,,,,,,,,,,,,1581.096,1581.096,1581.0976,1582.1913,1,0,right,0.0094,,1582.1932,1584.018,1,0,right,1584.02,1585.8451,0,1,left,0,1585.8452,1585.8452,1585.8473,1587.307,0,23,23,23,1,0.4,0.6,0.8,0.2,,,,,,,,,,,,,,,0.7559,,0.2,0.8,0.6,0.4,0.6,0.4,0.2,0.8,,,0.7442,,0.2,0.8,0.2,0.8,0.8,0.2,0.2,0.8,1,0
,,66f7aee700d2b58d3c21d64b,66fcbc1a810425318284b8e9,2024-10-02_04h27.19.613,mdp,2024.2.1,Win32,2.73000273,66fa4ebf79326e780c390304,,,,,,,,,,,,,,,,,,,,,1587.3083,1587.3083,1587.31,1589.5417,0,0,left,1.1159,0.0016,1589.5454,1591.3533,1,1,right,1591.3552,1593.1814,0,1,left,0,1593.1816,1593.1816,1593.1834,1594.6483,0,24,24,24,1,0.4,0.6,0.8,0.2,,,,,,,,,,,,,,,0.737,,0.2,0.8,0.6,0.4,0.6,0.4,0.2,0.8,,,0.7456,,0.2,0.8,0.2,0.8,0.8,0.2,0.2,0.8,1,0
,,66f7aee700d2b58d3c21d64b,66fcbc1a810425318284b8e9,2024-10-02_04h27.19.613,mdp,2024.2.1,Win32,2.73000273,66fa4ebf79326e780c390304,,,,,,,,,,,,,,,,,,,,,1594.6492,1594.6492,1594.6518,1596.4493,0,1,left,0.7399,,1596.4511,1598.2372,0,1,left,1598.2393,1600.028,1,1,right,0,1600.0281,1600.0281,1600.0302,1601.4659,0,25,25,25,1,0.4,0.6,0.8,0.2,,,,,,,,,,,,,,,0.7389,0.0003,0.8,0.2,0.8,0.2,0.6,0.4,0.2,0.8,,,0.74,,0.2,0.8,0.2,0.8,0.8,0.2,0.2,0.8,1,0
,,66f7aee700d2b58d3c21d64b,66fcbc1a810425318284b8e9,2024-10-02_04h27.19.613,mdp,2024.2.1,Win32,2.73000273,66fa4ebf79326e780c390304,,,,,,,,,,,,,,,,,,,,,1601.4672,1601.4672,1601.4685,1602.5625,1,1,right,0.0087,,1602.5647,1604.3538,1,1,right,1604.3557,1606.138,0,0,left,1,1606.1382,1606.1382,1606.14,1607.6033,0,26,26,26,1,0.4,0.6,0.8,0.2,,,,,,,,,,,,,,,0.7468,,0.8,0.2,0.8,0.2,0.6,0.4,0.2,0.8,,,0.7287,,0.2,0.8,0.2,0.8,0.8,0.2,0.2,0.8,1,0
,,66f7aee700d2b58d3c21d64b,66fcbc1a810425318284b8e9,2024-10-02_04h27.19.613,mdp,2024.2.1,Win32,2.73000273,66fa4ebf79326e780c390304,,,,,,,,,,,,,,,,,,,,,1607.6042,1607.6042,1607.6059,1609.0472,1,0,right,0.3965,,1609.0492,1610.8423,1,0,right,1610.8442,1612.6679,0,1,left,0,1612.6679,1612.6679,1612.6697,1614.136,0,27,27,27,1,0.4,0.6,0.8,0.2,,,,,,,,,,,,,,,0.7257,,0.8,0.2,0.8,0.2,0.6,0.4,0.2,0.8,,,0.7227,,0.2,0.8,0.2,0.8,0.8,0.2,0.2,0.8,1,0
,,66f7aee700d2b58d3c21d64b,66fcbc1a810425318284b8e9,2024-10-02_04h27.19.613,mdp,2024.2.1,Win32,2.73000273,66fa4ebf79326e780c390304,,,,,,,,,,,,,,,,,,,,,1614.1373,1614.1373,1614.1392,1615.9273,0,1,left,0.7196,,1615.9291,1617.3908,1,0,right,1617.3927,1619.1779,0,1,left,0,1619.178,1619.178,1619.18,1620.6044,0,28,28,28,1,0.4,0.6,0.8,0.2,,,,,,,,,,,,,,,0.3606,,0.8,0.2,0.8,0.2,0.6,0.4,0.2,0.8,,,0.7258,,0.2,0.8,0.2,0.8,0.8,0.2,0.2,0.8,1,0
,,66f7aee700d2b58d3c21d64b,66fcbc1a810425318284b8e9,2024-10-02_04h27.19.613,mdp,2024.2.1,Win32,2.73000273,66fa4ebf79326e780c390304,,,,,,,,,,,,,,,,,,,,,1620.6057,1620.6058,1620.6076,1622.0372,0,1,left,0.378,0.0008,1622.0392,1624.1718,0,0,left,1624.1737,1625.6297,1,1,right,0,1625.6297,1625.6298,1625.6317,1627.0645,0,29,29,29,1,0.4,0.6,0.8,0.2,,,,,,,,,,,,,,,1.0641,0.0004,0.8,0.2,0.8,0.2,0.6,0.4,0.2,0.8,,,0.367,,0.2,0.8,0.2,0.8,0.8,0.2,0.2,0.8,1,0
,,66f7aee700d2b58d3c21d64b,66fcbc1a810425318284b8e9,2024-10-02_04h27.19.613,mdp,2024.2.1,Win32,2.73000273,66fa4ebf79326e780c390304,,,,,,,,,,,,,,,,,,,,,1627.0658,1627.0658,1627.0674,1628.4758,1,0,right,0.3544,,1628.4781,1630.61,1,0,right,1630.6119,1632.4223,0,1,left,0,1632.4224,1632.4224,1632.4241,1633.851,0,30,30,30,1,0.4,0.6,0.8,0.2,,,,,,,,,,,,,,,1.0806,0.0003,0.8,0.2,0.8,0.2,0.6,0.4,0.2,0.8,,,0.7369,0.0003,0.2,0.8,0.2,0.8,0.8,0.2,0.2,0.8,1,0
,,66f7aee700d2b58d3c21d64b,66fcbc1a810425318284b8e9,2024-10-02_04h27.19.613,mdp,2024.2.1,Win32,2.73000273,66fa4ebf79326e780c390304,,,,,,,,,,,,,,,,,,,,,1633.8523,1633.8523,1633.8541,1635.2964,0,0,left,0.3669,,1635.2983,1637.1449,0,0,left,1637.1469,1639.0329,0,1,left,0,1639.0336,1639.0336,1639.0352,1640.5014,0,31,31,31,1,0.4,0.6,0.8,0.2,,,,,,,,,,,,,,,0.7607,0.0003,0.8,0.2,0.8,0.2,0.6,0.4,0.2,0.8,,,0.7633,0.0001,0.2,0.8,0.2,0.8,0.8,0.2,0.2,0.8,1,0
,,66f7aee700d2b58d3c21d64b,66fcbc1a810425318284b8e9,2024-10-02_04h27.19.613,mdp,2024.2.1,Win32,2.73000273,66fa4ebf79326e780c390304,,,,,,,,,,,,,,,,,,,,,1640.5027,1640.5027,1640.5044,1641.6069,1,0,right,0.0091,,1641.6089,1643.4359,1,1,right,1643.4378,1644.9162,0,1,left,0,1644.9163,1644.9163,1644.918,1646.3851,0,32,32,32,1,0.4,0.6,0.8,0.2,,,,,,,,,,,,,,,0.7414,0.0002,0.8,0.2,0.8,0.2,0.6,0.4,0.2,0.8,,,0.3773,,0.2,0.8,0.2,0.8,0.8,0.2,0.2,0.8,1,0
,,66f7aee700d2b58d3c21d64b,66fcbc1a810425318284b8e9,2024-10-02_04h27.19.613,mdp,2024.2.1,Win32,2.73000273,66fa4ebf79326e780c390304,,,,,,,,,,,,,,,,,,,,,1646.3864,1646.3864,1646.3883,1647.4698,0,1,left,0.0088,,1647.4717,1648.9189,1,1,right,1648.9208,1650.7496,0,1,left,0,1650.7497,1650.7497,1650.7518,1652.2221,0,33,33,33,1,0.4,0.6,0.8,0.2,,,,,,,,,,,,,,,0.3813,,0.8,0.2,0.8,0.2,0.6,0.4,0.2,0.8,,,0.7367,,0.2,0.8,0.2,0.8,0.8,0.2,0.2,0.8,1,0
,,66f7aee700d2b58d3c21d64b,66fcbc1a810425318284b8e9,2024-10-02_04h27.19.613,mdp,2024.2.1,Win32,2.73000273,66fa4ebf79326e780c390304,,,,,,,,,,,,,,,,,,,,,1652.2235,1652.2235,1652.2251,1654.4096,0,1,left,1.1143,,1654.4114,1656.2285,1,1,right,1656.2305,1658.8354,0,1,left,0,1658.8355,1658.8355,1658.8371,1660.3199,0,34,34,34,1,0.4,0.6,0.8,0.2,,,,,,,,,,,,,,,0.7411,,0.8,0.2,0.8,0.2,0.6,0.4,0.2,0.8,,,1.4868,,0.2,0.8,0.2,0.8,0.8,0.2,0.2,0.8,1,0
,,66f7aee700d2b58d3c21d64b,66fcbc1a810425318284b8e9,2024-10-02_04h27.19.613,mdp,2024.2.1,Win32,2.73000273,66fa4ebf79326e780c390304,,,,,,,,,,,,,,,,,,,,,1660.3211,1660.3211,1660.3229,1661.803,1,1,right,0.3778,,1661.8045,1664.3744,0,1,left,1664.3763,1666.2016,1,0,right,1,1666.2018,1666.2018,1666.2036,1667.6788,0,35,35,35,1,0.4,0.6,0.8,0.2,,,,,,,,,,,,,,,1.5192,0.0008,0.8,0.2,0.8,0.2,0.6,0.4,0.2,0.8,,,0.762,0.0002,0.2,0.8,0.2,0.8,0.8,0.2,0.2,0.8,1,0
,,66f7aee700d2b58d3c21d64b,66fcbc1a810425318284b8e9,2024-10-02_04h27.19.613,mdp,2024.2.1,Win32,2.73000273,66fa4ebf79326e780c390304,,,,,,,,,,,,,,,,,,,,,1667.6795,1667.6795,1667.6817,1668.7641,0,1,left,0.0104,,1668.766,1670.2188,1,1,right,1670.2213,1672.4082,1,0,right,1,1672.4084,1672.4085,1672.4109,1673.873,0,36,36,36,1,0.4,0.6,0.8,0.2,,,,,,,,,,,,,,,0.3761,,0.8,0.2,0.8,0.2,0.6,0.4,0.2,0.8,,,1.1126,,0.2,0.8,0.2,0.8,0.8,0.2,0.2,0.8,1,0
,,66f7aee700d2b58d3c21d64b,66fcbc1a810425318284b8e9,2024-10-02_04h27.19.613,mdp,2024.2.1,Win32,2.73000273,66fa4ebf79326e780c390304,,,,,,,,,,,,,,,,,,,,,1673.8744,1673.8745,1673.8762,1675.0045,0,1,left,0.011,,1675.0065,1676.8244,1,1,right,1676.8261,1678.6411,1,1,right,0,1678.6413,1678.6413,1678.6433,1680.0907,0,37,37,37,1,0.4,0.6,0.8,0.2,,,,,,,,,,,,,,,0.7422,0.0003,0.8,0.2,0.8,0.2,0.4,0.6,0.4,0.6,,,0.7482,0.0002,0.2,0.8,0.2,0.8,0.8,0.2,0.2,0.8,1,0
,,66f7aee700d2b58d3c21d64b,66fcbc1a810425318284b8e9,2024-10-02_04h27.19.613,mdp,2024.2.1,Win32,2.73000273,66fa4ebf79326e780c390304,,,,,,,,,,,,,,,,,,,,,1680.092,1680.092,1680.0938,1681.5313,1,1,right,0.3739,,1681.5331,1683.3507,1,1,right,1683.3529,1685.1636,0,0,left,1,1685.1637,1685.1637,1685.1659,1686.6161,0,38,38,38,1,0.4,0.6,0.8,0.2,,,,,,,,,,,,,,,0.7418,,0.8,0.2,0.8,0.2,0.4,0.6,0.4,0.6,,,0.7362,0.0002,0.2,0.8,0.2,0.8,0.8,0.2,0.2,0.8,1,0
,,66f7aee700d2b58d3c21d64b,66fcbc1a810425318284b8e9,2024-10-02_04h27.19.613,mdp,2024.2.1,Win32,2.73000273,66fa4ebf79326e780c390304,,,,,,,,,,,,,,,,,,,,,1686.6177,1686.6177,1686.6194,1687.6999,1,1,right,0.01,,1687.7018,1689.5146,1,0,right,1689.5168,1691.3487,0,1,left,0,1691.3488,1691.3488,1691.3508,1692.8041,0,39,39,39,1,0.2,0.8,0.2,0.8,,,,,,,,,,,,,,,0.747,,0.8,0.2,0.8,0.2,0.4,0.6,0.4,0.6,,,0.7418,,0.2,0.8,0.2,0.8,0.8,0.2,0.2,0.8,1,0
,,66f7aee700d2b58d3c21d64b,66fcbc1a810425318284b8e9,2024-10-02_04h27.19.613,mdp,2024.2.1,Win32,2.73000273,66fa4ebf79326e780c390304,,,,,,,,,,,,,,,,,,,,,1692.8055,1692.8055,1692.8072,1693.8961,0,1,left,0.0102,0.0002,1693.8979,1695.0036,1,1,right,1695.0058,1697.9265,1,0,right,1,1697.9266,1697.9266,1697.9291,1699.3801,0,40,40,40,1,0.2,0.8,0.2,0.8,,,,,,,,,,,,,,,0.0104,,0.8,0.2,0.8,0.2,0.4,0.6,0.4,0.6,,,1.8393,0.0003,0.2,0.8,0.2,0.8,0.8,0.2,0.2,0.8,1,0
,,66f7aee700d2b58d3c21d64b,66fcbc1a810425318284b8e9,2024-10-02_04h27.19.613,mdp,2024.2.1,Win32,2.73000273,66fa4ebf79326e780c390304,,,,,,,,,,,,,,,,,,,,,1699.3819,1699.3819,1699.3835,1700.4674,0,1,left,0.0096,,1700.4694,1702.3269,1,0,right,1702.3288,1704.1607,1,1,right,0,1704.1614,1704.1614,1704.1631,1705.6196,0,41,41,41,1,0.2,0.8,0.2,0.8,,,,,,,,,,,,,,,0.7517,0.0003,0.8,0.2,0.8,0.2,0.4,0.6,0.4,0.6,,,0.764,,0.2,0.8,0.2,0.8,0.6,0.4,0.8,0.2,1,0
,,66f7aee700d2b58d3c21d64b,66fcbc1a810425318284b8e9,2024-10-02_04h27.19.613,mdp,2024.2.1,Win32,2.73000273,66fa4ebf79326e780c390304,,,,,,,,,,,,,,,,,,,,,1705.6203,1705.6203,1705.6219,1706.7133,1,1,right,0.0108,0.0012,1706.7157,1708.5453,1,1,right,1708.5481,1711.1205,1,0,right,1,1711.1205,1711.1205,1711.1222,1712.615,0,42,42,42,1,0.2,0.8,0.2,0.8,,,,,,,,,,,,,,,0.7626,0.0008,0.8,0.2,0.8,0.2,0.4,0.6,0.4,0.6,,,1.4898,0.0008,0.2,0.8,0.2,0.8,0.8,0.2,0.6,0.4,1,0
,,66f7aee700d2b58d3c21d64b,66fcbc1a810425318284b8e9,2024-10-02_04h27.19.613,mdp,2024.2.1,Win32,2.73000273,66fa4ebf79326e780c390304,,,,,,,,,,,,,,,,,,,,,1712.6163,1712.6163,1712.618,1714.0801,1,1,right,0.3746,0.0002,1714.0819,1715.9383,1,1,right,1715.94,1717.7547,1,0,right,1,1717.7548,1717.7548,1717.7567,1719.2133,0,43,43,43,1,0.2,0.8,0.2,0.8,,,,,,,,,,,,,,,0.7485,,0.8,0.2,0.8,0.2,0.4,0.6,0.4,0.6,,,0.7418,0.0002,0.2,0.8,0.2,0.8,0.8,0.2,0.6,0.4,1,0
,,66f7aee700d2b58d3c21d64b,66fcbc1a810425318284b8e9,2024-10-02_04h27.19.613,mdp,2024.2.1,Win32,2.73000273,66fa4ebf79326e780c390304,,,,,,,,,,,,,,,,,,,,,1719.2146,1719.2146,1719.2162,1720.6846,1,1,right,0.3799,,1720.6865,1722.8945,1,1,right,1722.8963,1725.0627,1,0,right,1,1725.0629,1725.0629,1725.0643,1726.5639,0,44,44,44,1,0.2,0.8,0.2,0.8,,,,,,,,,,,,,,,1.1272,0.0003,0.8,0.2,0.8,0.2,0.4,0.6,0.4,0.6,,,1.0961,0.0001,0.2,0.8,0.2,0.8,0.8,0.2,0.6,0.4,1,0
,,66f7aee700d2b58d3c21d64b,66fcbc1a810425318284b8e9,2024-10-02_04h27.19.613,mdp,2024.2.1,Win32,2.73000273,66fa4ebf79326e780c390304,,,,,,,,,,,,,,,,,,,,,1726.565,1726.565,1726.5667,1727.6383,1,1,right,0.0104,,1727.64,1729.4898,1,1,right,1729.4918,1731.331,1,0,right,1,1731.3312,1731.3312,1731.3329,1732.7898,0,45,45,45,1,0.2,0.8,0.2,0.8,,,,,,,,,,,,,,,0.7549,,0.8,0.2,0.8,0.2,0.6,0.4,0.2,0.8,,,0.7369,,0.2,0.8,0.2,0.8,0.8,0.2,0.6,0.4,1,0
,,66f7aee700d2b58d3c21d64b,66fcbc1a810425318284b8e9,2024-10-02_04h27.19.613,mdp,2024.2.1,Win32,2.73000273,66fa4ebf79326e780c390304,,,,,,,,,,,,,,,,,,,,,1732.7911,1732.7911,1732.7928,1734.2631,1,1,right,0.3834,,1734.2662,1736.1346,1,1,right,1736.1372,1737.9456,1,1,right,0,1737.9458,1737.9458,1737.9486,1739.423,0,46,46,46,1,0.2,0.8,0.2,0.8,,,,,,,,,,,,,,,0.7707,,0.8,0.2,0.8,0.2,0.6,0.4,0.2,0.8,,,0.7342,,0.2,0.8,0.2,0.8,0.8,0.2,0.6,0.4,1,0
,,66f7aee700d2b58d3c21d64b,66fcbc1a810425318284b8e9,2024-10-02_04h27.19.613,mdp,2024.2.1,Win32,2.73000273,66fa4ebf79326e780c390304,,,,,,,,,,,,,,,,,,,,,1739.4244,1739.4245,1739.4262,1740.8885,1,1,right,0.3691,,1740.8899,1742.3689,0,1,left,1742.3706,1744.2258,1,1,right,0,1744.2259,1744.2259,1744.2281,1745.7053,0,47,47,47,1,0.2,0.8,0.2,0.8,,,,,,,,,,,,,,,0.3749,,0.8,0.2,0.8,0.2,0.6,0.4,0.2,0.8,,,0.744,0.0008,0.2,0.8,0.2,0.8,0.8,0.2,0.6,0.4,1,0
,,66f7aee700d2b58d3c21d64b,66fcbc1a810425318284b8e9,2024-10-02_04h27.19.613,mdp,2024.2.1,Win32,2.73000273,66fa4ebf79326e780c390304,,,,,,,,,,,,,,,,,,,,,1745.7066,1745.7067,1745.7083,1747.1743,0,1,left,0.3934,0.0002,1747.1759,1748.6343,0,0,left,1748.6366,1750.4639,1,0,right,1,1750.464,1750.464,1750.4663,1751.9271,0,48,48,48,1,0.2,0.8,0.2,0.8,,,,,,,,,,,,,,,0.3828,,0.8,0.2,0.8,0.2,0.6,0.4,0.2,0.8,,,0.7339,,0.2,0.8,0.2,0.8,0.8,0.2,0.6,0.4,1,0
,,66f7aee700d2b58d3c21d64b,66fcbc1a810425318284b8e9,2024-10-02_04h27.19.613,mdp,2024.2.1,Win32,2.73000273,66fa4ebf79326e780c390304,,,,,,,,,,,,,,,,,,,,,1751.9278,1751.9278,1751.9294,1753.387,0,0,left,0.3803,0.0002,1753.389,1754.8529,0,0,left,1754.8552,1756.6414,1,1,right,0,1756.6415,1756.6415,1756.6436,1758.102,0,49,49,49,1,0.2,0.8,0.2,0.8,,,,,,,,,,,,,,,0.371,,0.8,0.2,0.8,0.2,0.6,0.4,0.2,0.8,,,0.7201,,0.2,0.8,0.2,0.8,0.8,0.2,0.6,0.4,1,0
,,66f7aee700d2b58d3c21d64b,66fcbc1a810425318284b8e9,2024-10-02_04h27.19.613,mdp,2024.2.1,Win32,2.73000273,66fa4ebf79326e780c390304,,,,,,,,,,,,,,,,,,,,,,,,,,,,,,,,,,,,,,,,,,,,,,,,,,,,,,,,1758.1021,1816.7488,0,2,2,2,1,imgs/rabbit.png,imgs/squirrel.png,imgs/lion.png,imgs/goat.png,imgs/cat.png,,,,,,,,,,,,,,,,,,,,,,,,
,,66f7aee700d2b58d3c21d64b,66fcbc1a810425318284b8e9,2024-10-02_04h27.19.613,mdp,2024.2.1,Win32,2.73000273,66fa4ebf79326e780c390304,,,,,,,,,,,,,,3,seqs/st3seq24.csv,1816.7502,1888.4938,space,70.6363,,1888.5099,1888.5099,1888.5114,1928.7089,1,0,right,39.1127,,1928.7112,1941.4298,1,0,right,1941.4318,1949.8824,0,0,left,1,1949.8824,1949.8824,1949.8844,1951.3242,0,0,0,0,1,0.8,0.2,0.4,0.6,,,,,,,,,,,,,,,11.6315,,0.4,0.6,0.6,0.4,0.2,0.8,0.2,0.8,,,7.3831,,0.6,0.4,0.2,0.8,0.6,0.4,0.2,0.8,1,0
,,66f7aee700d2b58d3c21d64b,66fcbc1a810425318284b8e9,2024-10-02_04h27.19.613,mdp,2024.2.1,Win32,2.73000273,66fa4ebf79326e780c390304,,,,,,,,,,,,,,,,,,,,,1951.3257,1951.3257,1951.3275,1955.3541,1,1,right,2.958,,1955.356,1965.3002,1,1,right,1965.3027,1971.1712,0,0,left,1,1971.1713,1971.1713,1971.1731,1972.6347,0,1,1,1,1,0.8,0.2,0.4,0.6,,,,,,,,,,,,,,,8.8693,,0.4,0.6,0.6,0.4,0.2,0.8,0.2,0.8,,,4.7818,,0.6,0.4,0.2,0.8,0.6,0.4,0.2,0.8,1,0
,,66f7aee700d2b58d3c21d64b,66fcbc1a810425318284b8e9,2024-10-02_04h27.19.613,mdp,2024.2.1,Win32,2.73000273,66fa4ebf79326e780c390304,,,,,,,,,,,,,,,,,,,,,1972.6359,1972.6359,1972.6381,1975.545,1,1,right,1.8161,,1975.5479,1979.9481,1,1,right,1979.9498,1982.1336,0,0,left,1,1982.1338,1982.1338,1982.1355,1983.6043,0,2,2,2,1,0.8,0.2,0.4,0.6,,,,,,,,,,,,,,,3.3095,,0.4,0.6,0.6,0.4,0.2,0.8,0.2,0.8,,,1.1142,0.0003,0.6,0.4,0.2,0.8,0.6,0.4,0.2,0.8,1,0
,,66f7aee700d2b58d3c21d64b,66fcbc1a810425318284b8e9,2024-10-02_04h27.19.613,mdp,2024.2.1,Win32,2.73000273,66fa4ebf79326e780c390304,,,,,,,,,,,,,,,,,,,,,1983.6056,1983.6056,1983.6073,1985.7582,1,1,right,1.0923,,1985.7602,1987.9516,1,0,right,1987.9535,1990.1734,0,1,left,0,1990.1735,1990.1735,1990.1752,1991.6158,0,3,3,3,1,0.8,0.2,0.4,0.6,,,,,,,,,,,,,,,1.1101,,0.4,0.6,0.6,0.4,0.2,0.8,0.2,0.8,,,1.1288,,0.6,0.4,0.2,0.8,0.6,0.4,0.2,0.8,1,0
,,66f7aee700d2b58d3c21d64b,66fcbc1a810425318284b8e9,2024-10-02_04h27.19.613,mdp,2024.2.1,Win32,2.73000273,66fa4ebf79326e780c390304,,,,,,,,,,,,,,,,,,,,,1991.6171,1991.6171,1991.619,1993.449,1,0,right,0.7646,,1993.4519,1995.6455,1,0,right,1995.6477,1997.4943,0,0,left,1,1997.4944,1997.4944,1997.4966,1998.9435,0,4,4,4,1,0.8,0.2,0.4,0.6,,,,,,,,,,,,,,,1.0936,0.0002,0.4,0.6,0.6,0.4,0.2,0.8,0.2,0.8,,,0.74,0.0002,0.6,0.4,0.2,0.8,0.6,0.4,0.2,0.8,1,0
,,66f7aee700d2b58d3c21d64b,66fcbc1a810425318284b8e9,2024-10-02_04h27.19.613,mdp,2024.2.1,Win32,2.73000273,66fa4ebf79326e780c390304,,,,,,,,,,,,,,,,,,,,,1998.9447,1998.9448,1998.9465,2000.7516,1,0,right,0.739,0.0002,2000.7534,2004.0597,0,0,left,2004.0617,2005.8915,1,1,right,0,2005.8916,2005.8916,2005.8935,2007.3667,0,5,5,5,1,0.8,0.2,0.4,0.6,,,,,,,,,,,,,,,2.2311,,0.4,0.6,0.6,0.4,0.2,0.8,0.2,0.8,,,0.7537,,0.6,0.4,0.2,0.8,0.6,0.4,0.2,0.8,1,0
,,66f7aee700d2b58d3c21d64b,66fcbc1a810425318284b8e9,2024-10-02_04h27.19.613,mdp,2024.2.1,Win32,2.73000273,66fa4ebf79326e780c390304,,,,,,,,,,,,,,,,,,,,,2007.3681,2007.3681,2007.3701,2008.4875,1,1,right,0.0096,,2008.4894,2010.3497,1,1,right,2010.3527,2012.1951,1,1,right,0,2012.1951,2012.1951,2012.1968,2013.6606,0,6,6,6,1,0.8,0.2,0.4,0.6,,,,,,,,,,,,,,,0.7863,,0.4,0.6,0.6,0.4,0.2,0.8,0.2,0.8,,,0.7818,0.0002,0.6,0.4,0.2,0.8,0.6,0.4,0.2,0.8,1,0
,,66f7aee700d2b58d3c21d64b,66fcbc1a810425318284b8e9,2024-10-02_04h27.19.613,mdp,2024.2.1,Win32,2.73000273,66fa4ebf79326e780c390304,,,,,,,,,,,,,,,,,,,,,2013.662,2013.662,2013.6637,2015.4795,1,0,right,0.7417,0.0002,2015.4815,2017.358,0,1,left,2017.3597,2019.212,0,0,left,1,2019.2121,2019.2122,2019.2139,2020.7074,0,7,7,7,1,0.8,0.2,0.4,0.6,,,,,,,,,,,,,,,0.8016,,0.4,0.6,0.6,0.4,0.2,0.8,0.2,0.8,,,0.7686,0.0002,0.6,0.4,0.2,0.8,0.6,0.4,0.2,0.8,1,0
,,66f7aee700d2b58d3c21d64b,66fcbc1a810425318284b8e9,2024-10-02_04h27.19.613,mdp,2024.2.1,Win32,2.73000273,66fa4ebf79326e780c390304,,,,,,,,,,,,,,,,,,,,,2020.7084,2020.7084,2020.7112,2021.7841,1,1,right,0.0101,,2021.7865,2023.6358,0,1,left,2023.6383,2025.4472,0,1,left,0,2025.4473,2025.4473,2025.4489,2026.8983,0,8,8,8,1,0.8,0.2,0.4,0.6,,,,,,,,,,,,,,,0.7372,,0.4,0.6,0.6,0.4,0.2,0.8,0.2,0.8,,,0.738,,0.6,0.4,0.2,0.8,0.6,0.4,0.2,0.8,1,0
,,66f7aee700d2b58d3c21d64b,66fcbc1a810425318284b8e9,2024-10-02_04h27.19.613,mdp,2024.2.1,Win32,2.73000273,66fa4ebf79326e780c390304,,,,,,,,,,,,,,,,,,,,,2026.8996,2026.8997,2026.9013,2029.1438,1,1,right,1.1192,,2029.1458,2030.9487,1,1,right,2030.9505,2033.1648,1,1,right,0,2033.1649,2033.1649,2033.1668,2034.6193,0,9,9,9,1,0.8,0.2,0.4,0.6,,,,,,,,,,,,,,,0.7387,0.0002,0.4,0.6,0.6,0.4,0.2,0.8,0.2,0.8,,,1.132,,0.6,0.4,0.2,0.8,0.6,0.4,0.2,0.8,1,0
,,66f7aee700d2b58d3c21d64b,66fcbc1a810425318284b8e9,2024-10-02_04h27.19.613,mdp,2024.2.1,Win32,2.73000273,66fa4ebf79326e780c390304,,,,,,,,,,,,,,,,,,,,,2034.6206,2034.6206,2034.6223,2036.0933,0,0,left,0.4041,,2036.0953,2037.9037,0,1,left,2037.9057,2040.1116,0,1,left,0,2040.1117,2040.1117,2040.1132,2041.6015,0,10,10,10,1,0.8,0.2,0.4,0.6,,,,,,,,,,,,,,,0.7373,,0.4,0.6,0.6,0.4,0.2,0.8,0.2,0.8,,,1.1299,,0.6,0.4,0.2,0.8,0.6,0.4,0.2,0.8,1,0
,,66f7aee700d2b58d3c21d64b,66fcbc1a810425318284b8e9,2024-10-02_04h27.19.613,mdp,2024.2.1,Win32,2.73000273,66fa4ebf79326e780c390304,,,,,,,,,,,,,,,,,,,,,2041.6029,2041.6029,2041.6049,2043.4831,1,1,right,0.7634,0.0002,2043.485,2044.5911,0,0,left,2044.5926,2046.3651,0,0,left,1,2046.3651,2046.3652,2046.367,2047.7873,0,11,11,11,1,0.8,0.2,0.4,0.6,,,,,,,,,,,,,,,0.0087,,0.4,0.6,0.6,0.4,0.2,0.8,0.2,0.8,,,0.7264,0.0002,0.6,0.4,0.2,0.8,0.6,0.4,0.2,0.8,1,0
,,66f7aee700d2b58d3c21d64b,66fcbc1a810425318284b8e9,2024-10-02_04h27.19.613,mdp,2024.2.1,Win32,2.73000273,66fa4ebf79326e780c390304,,,,,,,,,,,,,,,,,,,,,2047.7885,2047.7885,2047.7902,2049.984,1,1,right,1.0831,,2049.9866,2052.4808,0,1,left,2052.4824,2055.3628,0,1,left,0,2055.3629,2055.3629,2055.3648,2056.7828,0,12,12,12,1,0.8,0.2,0.4,0.6,,,,,,,,,,,,,,,1.4337,,0.4,0.6,0.6,0.4,0.2,0.8,0.2,0.8,,,1.8309,0.0003,0.6,0.4,0.2,0.8,0.6,0.4,0.2,0.8,1,0
,,66f7aee700d2b58d3c21d64b,66fcbc1a810425318284b8e9,2024-10-02_04h27.19.613,mdp,2024.2.1,Win32,2.73000273,66fa4ebf79326e780c390304,,,,,,,,,,,,,,,,,,,,,2056.7839,2056.7839,2056.7856,2058.5736,0,0,left,0.7381,,2058.5755,2060.3939,1,0,right,2060.3958,2062.2228,0,1,left,0,2062.2229,2062.2229,2062.2247,2063.6851,0,13,13,13,1,0.8,0.2,0.4,0.6,,,,,,,,,,,,,,,0.74,0.0004,0.8,0.2,0.8,0.2,0.2,0.8,0.2,0.8,,,0.7448,0.0002,0.6,0.4,0.2,0.8,0.6,0.4,0.2,0.8,1,0
,,66f7aee700d2b58d3c21d64b,66fcbc1a810425318284b8e9,2024-10-02_04h27.19.613,mdp,2024.2.1,Win32,2.73000273,66fa4ebf79326e780c390304,,,,,,,,,,,,,,,,,,,,,2063.686,2063.686,2063.6878,2064.7849,0,0,left,0.0099,0.0001,2064.7868,2066.2679,1,0,right,2066.2696,2067.7207,0,1,left,0,2067.7208,2067.7208,2067.7225,2069.1688,0,14,14,14,1,0.8,0.2,0.4,0.6,,,,,,,,,,,,,,,0.3826,,0.8,0.2,0.8,0.2,0.2,0.8,0.2,0.8,,,0.3753,,0.6,0.4,0.2,0.8,0.6,0.4,0.2,0.8,1,0
,,66f7aee700d2b58d3c21d64b,66fcbc1a810425318284b8e9,2024-10-02_04h27.19.613,mdp,2024.2.1,Win32,2.73000273,66fa4ebf79326e780c390304,,,,,,,,,,,,,,,,,,,,,2069.1701,2069.1701,2069.1719,2070.2841,1,1,right,0.0095,,2070.2864,2072.1255,1,1,right,2072.1272,2073.9688,0,0,left,1,2073.9688,2073.9688,2073.971,2075.4815,0,15,15,15,1,0.8,0.2,0.4,0.6,,,,,,,,,,,,,,,0.7546,0.0008,0.8,0.2,0.8,0.2,0.2,0.8,0.2,0.8,,,0.7615,1E-04,0.6,0.4,0.2,0.8,0.6,0.4,0.2,0.8,1,0
,,66f7aee700d2b58d3c21d64b,66fcbc1a810425318284b8e9,2024-10-02_04h27.19.613,mdp,2024.2.1,Win32,2.73000273,66fa4ebf79326e780c390304,,,,,,,,,,,,,,,,,,,,,2075.4823,2075.4823,2075.4836,2078.0164,1,1,right,1.473,,2078.0184,2079.8796,0,0,left,2079.8816,2082.4215,0,1,left,0,2082.4216,2082.4216,2082.4235,2083.883,0,16,16,16,1,0.8,0.2,0.4,0.6,,,,,,,,,,,,,,,0.7702,,0.8,0.2,0.8,0.2,0.2,0.8,0.2,0.8,,,1.4648,0.0003,0.6,0.4,0.2,0.8,0.6,0.4,0.2,0.8,1,0
,,66f7aee700d2b58d3c21d64b,66fcbc1a810425318284b8e9,2024-10-02_04h27.19.613,mdp,2024.2.1,Win32,2.73000273,66fa4ebf79326e780c390304,,,,,,,,,,,,,,,,,,,,,2083.8843,2083.8843,2083.886,2085.6976,0,0,left,0.7447,0.0002,2085.6995,2087.1852,1,1,right,2087.1871,2089.0047,0,0,left,1,2089.0048,2089.0048,2089.0067,2090.4665,0,17,17,17,1,0.8,0.2,0.4,0.6,,,,,,,,,,,,,,,0.4066,,0.6,0.4,0.2,0.8,0.2,0.8,0.2,0.8,,,0.7443,,0.6,0.4,0.2,0.8,0.6,0.4,0.2,0.8,1,0
,,66f7aee700d2b58d3c21d64b,66fcbc1a810425318284b8e9,2024-10-02_04h27.19.613,mdp,2024.2.1,Win32,2.73000273,66fa4ebf79326e780c390304,,,,,,,,,,,,,,,,,,,,,2090.4678,2090.4678,2090.4696,2091.9587,1,1,right,0.4142,,2091.9605,2094.1502,1,1,right,2094.152,2095.9708,0,0,left,1,2095.9709,2095.9709,2095.9725,2097.4494,0,18,18,18,1,0.8,0.2,0.4,0.6,,,,,,,,,,,,,,,1.1232,0.0002,0.6,0.4,0.2,0.8,0.2,0.8,0.2,0.8,,,0.7393,,0.6,0.4,0.2,0.8,0.6,0.4,0.2,0.8,1,0
,,66f7aee700d2b58d3c21d64b,66fcbc1a810425318284b8e9,2024-10-02_04h27.19.613,mdp,2024.2.1,Win32,2.73000273,66fa4ebf79326e780c390304,,,,,,,,,,,,,,,,,,,,,2097.4506,2097.4506,2097.4526,2099.6702,1,0,right,1.1352,1E-04,2099.672,2101.5199,1,1,right,2101.5222,2102.9756,0,0,left,1,2102.9757,2102.9757,2102.9774,2104.4607,0,19,19,19,1,0.8,0.2,0.4,0.6,,,,,,,,,,,,,,,0.7686,0.0002,0.6,0.4,0.2,0.8,0.2,0.8,0.2,0.8,,,0.3763,,0.6,0.4,0.2,0.8,0.6,0.4,0.2,0.8,1,0
,,66f7aee700d2b58d3c21d64b,66fcbc1a810425318284b8e9,2024-10-02_04h27.19.613,mdp,2024.2.1,Win32,2.73000273,66fa4ebf79326e780c390304,,,,,,,,,,,,,,,,,,,,,2104.4617,2104.4617,2104.4632,2105.9594,1,1,right,0.4191,,2105.9614,2107.818,1,0,right,2107.8199,2109.6376,0,0,left,1,2109.6377,2109.6378,2109.6401,2111.1189,0,20,20,20,1,0.8,0.2,0.4,0.6,,,,,,,,,,,,,,,0.7566,,0.6,0.4,0.2,0.8,0.2,0.8,0.2,0.8,,,0.7447,,0.6,0.4,0.2,0.8,0.6,0.4,0.2,0.8,1,0
,,66f7aee700d2b58d3c21d64b,66fcbc1a810425318284b8e9,2024-10-02_04h27.19.613,mdp,2024.2.1,Win32,2.73000273,66fa4ebf79326e780c390304,,,,,,,,,,,,,,,,,,,,,2111.1204,2111.1204,2111.1221,2112.9525,1,1,right,0.7396,,2112.9543,2114.8115,1,1,right,2114.8132,2116.6191,0,0,left,1,2116.6192,2116.6192,2116.6215,2118.073,0,21,21,21,1,0.8,0.2,0.4,0.6,,,,,,,,,,,,,,,0.7547,,0.4,0.6,0.8,0.2,0.2,0.8,0.2,0.8,,,0.7346,,0.6,0.4,0.2,0.8,0.6,0.4,0.2,0.8,1,0
,,66f7aee700d2b58d3c21d64b,66fcbc1a810425318284b8e9,2024-10-02_04h27.19.613,mdp,2024.2.1,Win32,2.73000273,66fa4ebf79326e780c390304,,,,,,,,,,,,,,,,,,,,,2118.0744,2118.0744,2118.0762,2119.5381,1,0,right,0.3751,,2119.54,2121.3645,1,0,right,2121.3661,2123.182,0,1,left,0,2123.1822,2123.1822,2123.1841,2124.6482,0,22,22,22,1,0.8,0.2,0.4,0.6,,,,,,,,,,,,,,,0.7424,,0.4,0.6,0.8,0.2,0.2,0.8,0.2,0.8,,,0.738,,0.6,0.4,0.2,0.8,0.6,0.4,0.2,0.8,1,0
,,66f7aee700d2b58d3c21d64b,66fcbc1a810425318284b8e9,2024-10-02_04h27.19.613,mdp,2024.2.1,Win32,2.73000273,66fa4ebf79326e780c390304,,,,,,,,,,,,,,,,,,,,,2124.6494,2124.6494,2124.6513,2126.4672,0,0,left,0.7414,0.0002,2126.4693,2127.5562,1,1,right,2127.5581,2129.3892,0,0,left,1,2129.3894,2129.3894,2129.3913,2130.8544,0,23,23,23,1,0.8,0.2,0.4,0.6,,,,,,,,,,,,,,,0.0095,,0.4,0.6,0.8,0.2,0.2,0.8,0.2,0.8,,,0.7425,,0.6,0.4,0.2,0.8,0.6,0.4,0.2,0.8,1,0
,,66f7aee700d2b58d3c21d64b,66fcbc1a810425318284b8e9,2024-10-02_04h27.19.613,mdp,2024.2.1,Win32,2.73000273,66fa4ebf79326e780c390304,,,,,,,,,,,,,,,,,,,,,2130.8558,2130.8558,2130.8574,2132.3021,1,0,right,0.3734,,2132.3039,2134.1519,0,1,left,2134.154,2135.9701,1,1,right,0,2135.9701,2135.9702,2135.9725,2137.468,0,24,24,24,1,0.8,0.2,0.4,0.6,,,,,,,,,,,,,,,0.7462,0.0012,0.4,0.6,0.8,0.2,0.2,0.8,0.2,0.8,,,0.7356,0.0002,0.6,0.4,0.2,0.8,0.6,0.4,0.2,0.8,1,0
,,66f7aee700d2b58d3c21d64b,66fcbc1a810425318284b8e9,2024-10-02_04h27.19.613,mdp,2024.2.1,Win32,2.73000273,66fa4ebf79326e780c390304,,,,,,,,,,,,,,,,,,,,,2137.4692,2137.4692,2137.4709,2138.9156,1,1,right,0.3741,,2138.9169,2140.7654,0,1,left,2140.7668,2142.5868,0,0,left,1,2142.5869,2142.587,2142.5887,2144.0712,0,25,25,25,1,0.8,0.2,0.4,0.6,,,,,,,,,,,,,,,0.7702,,0.4,0.6,0.8,0.2,0.2,0.8,0.2,0.8,,,0.7382,0.0003,0.6,0.4,0.2,0.8,0.6,0.4,0.2,0.8,1,0
,,66f7aee700d2b58d3c21d64b,66fcbc1a810425318284b8e9,2024-10-02_04h27.19.613,mdp,2024.2.1,Win32,2.73000273,66fa4ebf79326e780c390304,,,,,,,,,,,,,,,,,,,,,2144.0725,2144.0725,2144.0742,2145.9065,1,1,right,0.7367,0.0002,2145.9083,2147.3913,0,1,left,2147.393,2149.2452,0,1,left,0,2149.2454,2149.2454,2149.2472,2150.7277,0,26,26,26,1,0.8,0.2,0.4,0.6,,,,,,,,,,,,,,,0.3792,,0.4,0.6,0.8,0.2,0.2,0.8,0.2,0.8,,,0.7695,,0.6,0.4,0.2,0.8,0.6,0.4,0.2,0.8,1,0
,,66f7aee700d2b58d3c21d64b,66fcbc1a810425318284b8e9,2024-10-02_04h27.19.613,mdp,2024.2.1,Win32,2.73000273,66fa4ebf79326e780c390304,,,,,,,,,,,,,,,,,,,,,2150.7291,2150.7291,2150.7307,2152.1881,0,0,left,0.3768,,2152.19,2154.4298,1,1,right,2154.4321,2156.2872,0,0,left,1,2156.2873,2156.2873,2156.2894,2157.7543,0,27,27,27,1,0.4,0.6,0.8,0.2,,,,,,,,,,,,,,,1.1534,,0.4,0.6,0.8,0.2,0.2,0.8,0.2,0.8,,,0.7435,0.0006,0.6,0.4,0.2,0.8,0.6,0.4,0.2,0.8,1,0
,,66f7aee700d2b58d3c21d64b,66fcbc1a810425318284b8e9,2024-10-02_04h27.19.613,mdp,2024.2.1,Win32,2.73000273,66fa4ebf79326e780c390304,,,,,,,,,,,,,,,,,,,,,2157.7551,2157.7551,2157.7569,2159.9576,1,0,right,1.1318,0.0002,2159.9595,2161.8086,0,0,left,2161.8108,2163.2645,0,0,left,1,2163.2646,2163.2646,2163.2665,2164.7323,0,28,28,28,1,0.4,0.6,0.8,0.2,,,,,,,,,,,,,,,0.7507,0.0008,0.4,0.6,0.8,0.2,0.2,0.8,0.2,0.8,,,0.3778,,0.6,0.4,0.2,0.8,0.6,0.4,0.2,0.8,1,0
,,66f7aee700d2b58d3c21d64b,66fcbc1a810425318284b8e9,2024-10-02_04h27.19.613,mdp,2024.2.1,Win32,2.73000273,66fa4ebf79326e780c390304,,,,,,,,,,,,,,,,,,,,,2164.7334,2164.7334,2164.7351,2166.5514,1,0,right,0.7378,,2166.5534,2168.3838,0,1,left,2168.3856,2170.1994,0,1,left,0,2170.1995,2170.1995,2170.2014,2171.6601,0,29,29,29,1,0.4,0.6,0.8,0.2,,,,,,,,,,,,,,,0.7442,,0.4,0.6,0.8,0.2,0.2,0.8,0.2,0.8,,,0.7463,0.0002,0.6,0.4,0.2,0.8,0.6,0.4,0.2,0.8,1,0
,,66f7aee700d2b58d3c21d64b,66fcbc1a810425318284b8e9,2024-10-02_04h27.19.613,mdp,2024.2.1,Win32,2.73000273,66fa4ebf79326e780c390304,,,,,,,,,,,,,,,,,,,,,2171.6607,2171.661,2171.6624,2173.5209,0,1,left,0.7552,,2173.5226,2175.3564,1,0,right,2175.3592,2177.1878,0,1,left,0,2177.1879,2177.1879,2177.1896,2178.6548,0,30,30,30,1,0.4,0.6,0.8,0.2,,,,,,,,,,,,,,,0.7521,0.0007,0.4,0.6,0.8,0.2,0.2,0.8,0.2,0.8,,,0.7576,0.0003,0.6,0.4,0.2,0.8,0.6,0.4,0.2,0.8,1,0
,,66f7aee700d2b58d3c21d64b,66fcbc1a810425318284b8e9,2024-10-02_04h27.19.613,mdp,2024.2.1,Win32,2.73000273,66fa4ebf79326e780c390304,,,,,,,,,,,,,,,,,,,,,2178.6562,2178.6562,2178.6582,2180.4927,0,0,left,0.7336,0.0001,2180.4949,2181.9684,1,0,right,2181.9701,2183.8439,1,1,right,0,2183.844,2183.844,2183.8457,2185.3098,0,31,31,31,1,0.4,0.6,0.8,0.2,,,,,,,,,,,,,,,0.3769,,0.4,0.6,0.8,0.2,0.2,0.8,0.2,0.8,,,0.7838,,0.6,0.4,0.2,0.8,0.6,0.4,0.2,0.8,1,0
,,66f7aee700d2b58d3c21d64b,66fcbc1a810425318284b8e9,2024-10-02_04h27.19.613,mdp,2024.2.1,Win32,2.73000273,66fa4ebf79326e780c390304,,,,,,,,,,,,,,,,,,,,,2185.311,2185.311,2185.313,2187.2394,1,0,right,0.7645,0.0007,2187.2411,2188.7148,0,0,left,2188.7173,2190.5901,0,1,left,0,2190.5901,2190.5901,2190.592,2192.0327,0,32,32,32,1,0.4,0.6,0.8,0.2,,,,,,,,,,,,,,,0.375,,0.4,0.6,0.8,0.2,0.2,0.8,0.2,0.8,,,0.7631,0.0003,0.6,0.4,0.2,0.8,0.6,0.4,0.2,0.8,1,0
,,66f7aee700d2b58d3c21d64b,66fcbc1a810425318284b8e9,2024-10-02_04h27.19.613,mdp,2024.2.1,Win32,2.73000273,66fa4ebf79326e780c390304,,,,,,,,,,,,,,,,,,,,,2192.0339,2192.0339,2192.0356,2193.8981,1,0,right,0.8046,,2193.8998,2196.1195,1,0,right,2196.1218,2197.9423,0,0,left,1,2197.9424,2197.9424,2197.9441,2199.3994,0,33,33,33,1,0.4,0.6,0.8,0.2,,,,,,,,,,,,,,,1.1091,,0.4,0.6,0.8,0.2,0.2,0.8,0.2,0.8,,,0.7481,,0.6,0.4,0.2,0.8,0.6,0.4,0.2,0.8,1,0
,,66f7aee700d2b58d3c21d64b,66fcbc1a810425318284b8e9,2024-10-02_04h27.19.613,mdp,2024.2.1,Win32,2.73000273,66fa4ebf79326e780c390304,,,,,,,,,,,,,,,,,,,,,2199.4009,2199.4009,2199.4031,2201.2599,1,0,right,0.7444,,2201.2622,2203.0676,0,0,left,2203.0697,2204.9525,0,0,left,1,2204.9526,2204.9526,2204.9543,2206.3941,0,34,34,34,1,0.4,0.6,0.8,0.2,,,,,,,,,,,,,,,0.7416,0.0002,0.4,0.6,0.8,0.2,0.2,0.8,0.2,0.8,,,0.7499,,0.6,0.4,0.2,0.8,0.6,0.4,0.2,0.8,1,0
,,66f7aee700d2b58d3c21d64b,66fcbc1a810425318284b8e9,2024-10-02_04h27.19.613,mdp,2024.2.1,Win32,2.73000273,66fa4ebf79326e780c390304,,,,,,,,,,,,,,,,,,,,,2206.3953,2206.3953,2206.3972,2208.1963,1,0,right,0.7324,,2208.1982,2210.008,0,1,left,2210.0097,2211.8204,0,0,left,1,2211.8204,2211.8204,2211.8221,2213.275,0,35,35,35,1,0.4,0.6,0.8,0.2,,,,,,,,,,,,,,,0.737,0.0008,0.4,0.6,0.8,0.2,0.2,0.8,0.2,0.8,,,0.7416,,0.6,0.4,0.2,0.8,0.6,0.4,0.2,0.8,1,0
,,66f7aee700d2b58d3c21d64b,66fcbc1a810425318284b8e9,2024-10-02_04h27.19.613,mdp,2024.2.1,Win32,2.73000273,66fa4ebf79326e780c390304,,,,,,,,,,,,,,,,,,,,,2213.2763,2213.2763,2213.278,2215.0781,1,1,right,0.7377,,2215.0799,2217.2727,0,1,left,2217.2745,2219.109,0,1,left,0,2219.1091,2219.1091,2219.1106,2220.5788,0,36,36,36,1,0.4,0.6,0.8,0.2,,,,,,,,,,,,,,,1.121,0.0002,0.4,0.6,0.8,0.2,0.2,0.8,0.2,0.8,,,0.7314,,0.6,0.4,0.2,0.8,0.6,0.4,0.2,0.8,1,0
,,66f7aee700d2b58d3c21d64b,66fcbc1a810425318284b8e9,2024-10-02_04h27.19.613,mdp,2024.2.1,Win32,2.73000273,66fa4ebf79326e780c390304,,,,,,,,,,,,,,,,,,,,,2220.5802,2220.5803,2220.582,2222.7647,1,1,right,1.0929,,2222.7664,2224.6077,0,1,left,2224.6093,2226.4195,0,1,left,0,2226.4196,2226.4196,2226.4215,2227.8755,0,37,37,37,1,0.4,0.6,0.8,0.2,,,,,,,,,,,,,,,0.7458,0.0002,0.4,0.6,0.8,0.2,0.2,0.8,0.2,0.8,,,0.7415,0.0002,0.8,0.2,0.8,0.2,0.6,0.4,0.2,0.8,1,0
,,66f7aee700d2b58d3c21d64b,66fcbc1a810425318284b8e9,2024-10-02_04h27.19.613,mdp,2024.2.1,Win32,2.73000273,66fa4ebf79326e780c390304,,,,,,,,,,,,,,,,,,,,,2227.8764,2227.8765,2227.8785,2229.699,0,1,left,0.7427,0.0003,2229.7007,2231.1692,1,1,right,2231.171,2232.9846,0,0,left,1,2232.9848,2232.9848,2232.9864,2234.4366,0,38,38,38,1,0.4,0.6,0.8,0.2,,,,,,,,,,,,,,,0.3742,0.0002,0.4,0.6,0.8,0.2,0.2,0.8,0.2,0.8,,,0.7514,0.0006,0.8,0.2,0.8,0.2,0.6,0.4,0.2,0.8,1,0
,,66f7aee700d2b58d3c21d64b,66fcbc1a810425318284b8e9,2024-10-02_04h27.19.613,mdp,2024.2.1,Win32,2.73000273,66fa4ebf79326e780c390304,,,,,,,,,,,,,,,,,,,,,2234.438,2234.4381,2234.4403,2236.2565,1,1,right,0.7448,,2236.2588,2237.743,0,0,left,2237.745,2239.5498,0,0,left,1,2239.55,2239.55,2239.5519,2241.0015,0,39,39,39,1,0.4,0.6,0.8,0.2,,,,,,,,,,,,,,,0.4128,,0.4,0.6,0.8,0.2,0.8,0.2,0.6,0.4,,,0.7354,,0.8,0.2,0.8,0.2,0.6,0.4,0.2,0.8,1,0
,,66f7aee700d2b58d3c21d64b,66fcbc1a810425318284b8e9,2024-10-02_04h27.19.613,mdp,2024.2.1,Win32,2.73000273,66fa4ebf79326e780c390304,,,,,,,,,,,,,,,,,,,,,2241.003,2241.003,2241.0052,2242.859,1,0,right,0.7426,0.0001,2242.8623,2244.3289,0,0,left,2244.3306,2246.2251,0,0,left,1,2246.2251,2246.2251,2246.2267,2247.705,0,40,40,40,1,0.4,0.6,0.8,0.2,,,,,,,,,,,,,,,0.3847,0.0004,0.4,0.6,0.8,0.2,0.8,0.2,0.6,0.4,,,0.7996,0.0018,0.8,0.2,0.8,0.2,0.6,0.4,0.2,0.8,1,0
,,66f7aee700d2b58d3c21d64b,66fcbc1a810425318284b8e9,2024-10-02_04h27.19.613,mdp,2024.2.1,Win32,2.73000273,66fa4ebf79326e780c390304,,,,,,,,,,,,,,,,,,,,,2247.7062,2247.7062,2247.7085,2249.5543,1,0,right,0.7832,0.0006,2249.5561,2251.1553,0,0,left,2251.157,2252.688,0,0,left,1,2252.6881,2252.6881,2252.6898,2254.1861,0,41,41,41,1,0.4,0.6,0.8,0.2,,,,,,,,,,,,,,,0.4209,0.0003,0.4,0.6,0.8,0.2,0.8,0.2,0.6,0.4,,,0.3973,,0.8,0.2,0.8,0.2,0.6,0.4,0.2,0.8,1,0
,,66f7aee700d2b58d3c21d64b,66fcbc1a810425318284b8e9,2024-10-02_04h27.19.613,mdp,2024.2.1,Win32,2.73000273,66fa4ebf79326e780c390304,,,,,,,,,,,,,,,,,,,,,2254.1871,2254.1871,2254.1892,2255.6875,1,0,right,0.4138,,2255.6892,2257.2756,0,1,left,2257.2782,2259.1883,0,1,left,0,2259.1884,2259.1884,2259.1902,2260.7016,0,42,42,42,1,0.4,0.6,0.8,0.2,,,,,,,,,,,,,,,0.4035,,0.4,0.6,0.8,0.2,0.8,0.2,0.6,0.4,,,0.7811,,0.8,0.2,0.8,0.2,0.6,0.4,0.2,0.8,1,0
,,66f7aee700d2b58d3c21d64b,66fcbc1a810425318284b8e9,2024-10-02_04h27.19.613,mdp,2024.2.1,Win32,2.73000273,66fa4ebf79326e780c390304,,,,,,,,,,,,,,,,,,,,,2260.7029,2260.7029,2260.7047,2262.9403,0,1,left,1.1316,0.0002,2262.9438,2264.4522,0,0,left,2264.4541,2266.4452,0,0,left,1,2266.4453,2266.4453,2266.4467,2267.9709,0,43,43,43,1,0.4,0.6,0.8,0.2,,,,,,,,,,,,,,,0.3751,,0.4,0.6,0.8,0.2,0.8,0.2,0.6,0.4,,,0.773,0.0002,0.8,0.2,0.8,0.2,0.6,0.4,0.2,0.8,1,0
,,66f7aee700d2b58d3c21d64b,66fcbc1a810425318284b8e9,2024-10-02_04h27.19.613,mdp,2024.2.1,Win32,2.73000273,66fa4ebf79326e780c390304,,,,,,,,,,,,,,,,,,,,,2267.9713,2267.9714,2267.9725,2269.5004,0,0,left,0.393,,2269.5021,2271.4872,0,0,left,2271.4896,2273.3115,0,0,left,1,2273.3116,2273.3116,2273.3133,2274.8664,0,44,44,44,1,0.4,0.6,0.8,0.2,,,,,,,,,,,,,,,0.7593,0.002,0.6,0.4,0.6,0.4,0.8,0.2,0.6,0.4,,,0.749,0.0003,0.8,0.2,0.8,0.2,0.6,0.4,0.2,0.8,1,0
,,66f7aee700d2b58d3c21d64b,66fcbc1a810425318284b8e9,2024-10-02_04h27.19.613,mdp,2024.2.1,Win32,2.73000273,66fa4ebf79326e780c390304,,,,,,,,,,,,,,,,,,,,,2274.8675,2274.8675,2274.8692,2276.6973,0,1,left,0.724,,2276.6993,2278.5335,0,0,left,2278.5354,2280.4089,0,1,left,0,2280.4092,2280.4092,2280.4113,2281.8645,0,45,45,45,1,0.4,0.6,0.8,0.2,,,,,,,,,,,,,,,0.751,1E-04,0.6,0.4,0.6,0.4,0.8,0.2,0.6,0.4,,,0.7425,0.0001,0.8,0.2,0.8,0.2,0.6,0.4,0.2,0.8,1,0
,,66f7aee700d2b58d3c21d64b,66fcbc1a810425318284b8e9,2024-10-02_04h27.19.613,mdp,2024.2.1,Win32,2.73000273,66fa4ebf79326e780c390304,,,,,,,,,,,,,,,,,,,,,2281.8657,2281.8657,2281.8674,2282.9836,0,1,left,0.0111,,2282.9857,2284.7753,1,1,right,2284.7771,2286.5486,0,0,left,1,2286.5487,2286.5487,2286.5505,2288.0041,0,46,46,46,1,0.4,0.6,0.8,0.2,,,,,,,,,,,,,,,0.719,,0.6,0.4,0.6,0.4,0.8,0.2,0.6,0.4,,,0.7207,,0.8,0.2,0.8,0.2,0.6,0.4,0.2,0.8,1,0
,,66f7aee700d2b58d3c21d64b,66fcbc1a810425318284b8e9,2024-10-02_04h27.19.613,mdp,2024.2.1,Win32,2.73000273,66fa4ebf79326e780c390304,,,,,,,,,,,,,,,,,,,,,2288.0053,2288.0053,2288.007,2289.829,1,1,right,0.7204,,2289.8309,2291.2656,0,0,left,2291.2675,2293.4767,0,1,left,0,2293.4767,2293.4767,2293.4785,2294.9038,0,47,47,47,1,0.4,0.6,0.8,0.2,,,,,,,,,,,,,,,0.366,,0.6,0.4,0.6,0.4,0.8,0.2,0.6,0.4,,,1.1501,,0.8,0.2,0.8,0.2,0.6,0.4,0.2,0.8,1,0
,,66f7aee700d2b58d3c21d64b,66fcbc1a810425318284b8e9,2024-10-02_04h27.19.613,mdp,2024.2.1,Win32,2.73000273,66fa4ebf79326e780c390304,,,,,,,,,,,,,,,,,,,,,2294.9046,2294.9046,2294.9064,2296.7018,0,0,left,0.7231,0.0003,2296.7036,2297.7684,1,1,right,2297.7703,2299.1903,0,0,left,1,2299.1904,2299.1904,2299.1917,2300.2702,0,48,48,48,1,0.4,0.6,0.8,0.2,,,,,,,,,,,,,,,0.0095,,0.6,0.4,0.6,0.4,0.8,0.2,0.6,0.4,,,0.3724,,0.8,0.2,0.8,0.2,0.6,0.4,0.2,0.8,1,0
,,66f7aee700d2b58d3c21d64b,66fcbc1a810425318284b8e9,2024-10-02_04h27.19.613,mdp,2024.2.1,Win32,2.73000273,66fa4ebf79326e780c390304,,,,,,,,,,,,,,,,,,,,,2300.2714,2300.2714,2300.273,2302.4537,1,0,right,1.1201,0.0006,2302.4555,2303.8948,0,0,left,2303.8961,2305.7215,0,1,left,0,2305.7216,2305.7216,2305.7238,2307.1656,0,49,49,49,1,0.4,0.6,0.8,0.2,,,,,,,,,,,,,,,0.38,,0.6,0.4,0.6,0.4,0.8,0.2,0.6,0.4,,,0.729,,0.8,0.2,0.8,0.2,0.6,0.4,0.2,0.8,1,0
,,66f7aee700d2b58d3c21d64b,66fcbc1a810425318284b8e9,2024-10-02_04h27.19.613,mdp,2024.2.1,Win32,2.73000273,66fa4ebf79326e780c390304,,,,,,,,,,,,,,,,,,,,,,,,,,,,,,,,,,,,,,,,,,,,,,,,,,,,,,,,2307.1658,2366.0594,0,3,3,5,1,imgs/goat.png,imgs/pig.png,imgs/squirrel.png,imgs/dog.png,imgs/cat.png,,,,,,,,,,,,,,,,,,,,,,,,
,,66f7aee700d2b58d3c21d64b,66fcbc1a810425318284b8e9,2024-10-02_04h27.19.613,mdp,2024.2.1,Win32,2.73000273,66fa4ebf79326e780c390304,,,,,,,,,,,,,,1,seqs/st1seq32.csv,2366.0613,2471.6894,space,104.5365,,2471.7043,2471.7043,2471.706,2478.7238,0,0,left,5.9335,0.0002,2478.7253,2478.7261,0,1,,2478.7275,2478.7282,0,1,,1,2478.7283,2478.7283,2478.7291,2480.191,0,0,0,0,1,0.6,0.4,0.2,0.8,1,0,,,,,,,,,,,,,,,,,,,,,,,,,,,,,,,,,,,,
,,66f7aee700d2b58d3c21d64b,66fcbc1a810425318284b8e9,2024-10-02_04h27.19.613,mdp,2024.2.1,Win32,2.73000273,66fa4ebf79326e780c390304,,,,,,,,,,,,,,,,,,,,,2480.1938,2480.1938,2480.1965,2483.9409,0,1,left,2.6253,,2483.9429,2483.944,0,0,,2483.9456,2483.9467,0,0,,0,2483.9467,2483.9467,2483.9484,2485.382,0,1,1,1,1,0.6,0.4,0.2,0.8,1,0,,,,,,,,,,,,,,,,,,,,,,,,,,,,,,,,,,,,
,,66f7aee700d2b58d3c21d64b,66fcbc1a810425318284b8e9,2024-10-02_04h27.19.613,mdp,2024.2.1,Win32,2.73000273,66fa4ebf79326e780c390304,,,,,,,,,,,,,,,,,,,,,2485.3833,2485.3833,2485.3851,2488.3272,0,0,left,1.8648,,2488.3296,2488.3306,0,0,,2488.3322,2488.3331,0,1,,1,2488.3332,2488.3332,2488.3346,2489.8009,0,2,2,2,1,0.6,0.4,0.2,0.8,1,0,,,,,,,,,,,,,,,,,,,,,,,,,,,,,,,,,,,,
,,66f7aee700d2b58d3c21d64b,66fcbc1a810425318284b8e9,2024-10-02_04h27.19.613,mdp,2024.2.1,Win32,2.73000273,66fa4ebf79326e780c390304,,,,,,,,,,,,,,,,,,,,,2489.8021,2489.8021,2489.8038,2492.7263,1,1,right,1.8355,0.0009,2492.7281,2492.7291,0,1,,2492.7308,2492.7318,0,1,,0,2492.7318,2492.7318,2492.7333,2494.2217,0,3,3,3,1,0.6,0.4,0.2,0.8,1,0,,,,,,,,,,,,,,,,,,,,,,,,,,,,,,,,,,,,
,,66f7aee700d2b58d3c21d64b,66fcbc1a810425318284b8e9,2024-10-02_04h27.19.613,mdp,2024.2.1,Win32,2.73000273,66fa4ebf79326e780c390304,,,,,,,,,,,,,,,,,,,,,2494.2227,2494.2227,2494.2243,2497.2119,0,0,left,1.9106,0.001,2497.2149,2497.2163,0,1,,2497.2178,2497.2189,0,0,,1,2497.219,2497.219,2497.2204,2498.6898,0,4,4,4,1,0.6,0.4,0.2,0.8,1,0,,,,,,,,,,,,,,,,,,,,,,,,,,,,,,,,,,,,
,,66f7aee700d2b58d3c21d64b,66fcbc1a810425318284b8e9,2024-10-02_04h27.19.613,mdp,2024.2.1,Win32,2.73000273,66fa4ebf79326e780c390304,,,,,,,,,,,,,,,,,,,,,2498.691,2498.691,2498.6928,2501.2663,0,0,left,1.5013,0.0011,2501.2691,2501.2704,0,1,,2501.272,2501.273,0,1,,1,2501.2731,2501.2731,2501.2745,2502.7344,0,5,5,5,1,0.6,0.4,0.2,0.8,1,0,,,,,,,,,,,,,,,,,,,,,,,,,,,,,,,,,,,,
,,66f7aee700d2b58d3c21d64b,66fcbc1a810425318284b8e9,2024-10-02_04h27.19.613,mdp,2024.2.1,Win32,2.73000273,66fa4ebf79326e780c390304,,,,,,,,,,,,,,,,,,,,,2502.7355,2502.7356,2502.7373,2504.9195,0,0,left,1.0977,0.0011,2504.9225,2504.9238,0,1,,2504.9254,2504.9268,0,1,,1,2504.9269,2504.9269,2504.9282,2506.4072,0,6,6,6,1,0.6,0.4,0.2,0.8,1,0,,,,,,,,,,,,,,,,,,,,,,,,,,,,,,,,,,,,
,,66f7aee700d2b58d3c21d64b,66fcbc1a810425318284b8e9,2024-10-02_04h27.19.613,mdp,2024.2.1,Win32,2.73000273,66fa4ebf79326e780c390304,,,,,,,,,,,,,,,,,,,,,2506.4084,2506.4085,2506.4108,2508.2485,0,0,left,0.7699,,2508.2504,2508.2511,0,0,,2508.252,2508.2526,0,0,,1,2508.2528,2508.2528,2508.2535,2509.6911,0,7,7,7,1,0.8,0.2,0.8,0.2,1,0,,,,,,,,,,,,,,,,,,,,,,,,,,,,,,,,,,,,
,,66f7aee700d2b58d3c21d64b,66fcbc1a810425318284b8e9,2024-10-02_04h27.19.613,mdp,2024.2.1,Win32,2.73000273,66fa4ebf79326e780c390304,,,,,,,,,,,,,,,,,,,,,2509.6923,2509.6923,2509.6941,2511.9654,0,0,left,1.1539,,2511.9676,2511.9687,0,1,,2511.9703,2511.9713,0,0,,1,2511.9713,2511.9713,2511.9727,2513.45,0,8,8,8,1,0.6,0.4,0.6,0.4,1,0,,,,,,,,,,,,,,,,,,,,,,,,,,,,,,,,,,,,
,,66f7aee700d2b58d3c21d64b,66fcbc1a810425318284b8e9,2024-10-02_04h27.19.613,mdp,2024.2.1,Win32,2.73000273,66fa4ebf79326e780c390304,,,,,,,,,,,,,,,,,,,,,2513.4512,2513.4512,2513.453,2515.6407,0,1,left,1.1078,,2515.6427,2515.6441,0,0,,2515.6457,2515.6468,0,1,,0,2515.6468,2515.6468,2515.6483,2517.1113,0,9,9,9,1,0.6,0.4,0.6,0.4,1,0,,,,,,,,,,,,,,,,,,,,,,,,,,,,,,,,,,,,
,,66f7aee700d2b58d3c21d64b,66fcbc1a810425318284b8e9,2024-10-02_04h27.19.613,mdp,2024.2.1,Win32,2.73000273,66fa4ebf79326e780c390304,,,,,,,,,,,,,,,,,,,,,2517.112,2517.112,2517.1138,2519.7268,0,1,left,1.4812,,2519.7281,2519.7294,0,1,,2519.7303,2519.7311,0,1,,0,2519.7311,2519.7311,2519.7331,2521.1958,0,10,10,10,1,0.6,0.4,0.6,0.4,1,0,,,,,,,,,,,,,,,,,,,,,,,,,,,,,,,,,,,,
,,66f7aee700d2b58d3c21d64b,66fcbc1a810425318284b8e9,2024-10-02_04h27.19.613,mdp,2024.2.1,Win32,2.73000273,66fa4ebf79326e780c390304,,,,,,,,,,,,,,,,,,,,,2521.1969,2521.1969,2521.1986,2523.7958,1,1,right,1.5134,,2523.7976,2523.7985,0,0,,2523.8001,2523.8015,0,0,,0,2523.8015,2523.8016,2523.803,2525.2822,0,11,11,11,1,0.6,0.4,0.6,0.4,1,0,,,,,,,,,,,,,,,,,,,,,,,,,,,,,,,,,,,,
,,66f7aee700d2b58d3c21d64b,66fcbc1a810425318284b8e9,2024-10-02_04h27.19.613,mdp,2024.2.1,Win32,2.73000273,66fa4ebf79326e780c390304,,,,,,,,,,,,,,,,,,,,,2525.2834,2525.2834,2525.2855,2527.1185,1,1,right,0.7383,,2527.1204,2527.1212,0,0,,2527.122,2527.1233,0,0,,0,2527.1234,2527.1234,2527.1242,2528.5681,0,12,12,12,1,0.6,0.4,0.6,0.4,1,0,,,,,,,,,,,,,,,,,,,,,,,,,,,,,,,,,,,,
,,66f7aee700d2b58d3c21d64b,66fcbc1a810425318284b8e9,2024-10-02_04h27.19.613,mdp,2024.2.1,Win32,2.73000273,66fa4ebf79326e780c390304,,,,,,,,,,,,,,,,,,,,,2528.5689,2528.569,2528.5705,2530.7726,0,1,left,1.1316,0.0003,2530.7744,2530.7754,0,0,,2530.7771,2530.7781,0,0,,0,2530.7781,2530.7781,2530.7803,2532.2299,0,13,13,13,1,0.4,0.6,0.8,0.2,1,0,,,,,,,,,,,,,,,,,,,,,,,,,,,,,,,,,,,,
,,66f7aee700d2b58d3c21d64b,66fcbc1a810425318284b8e9,2024-10-02_04h27.19.613,mdp,2024.2.1,Win32,2.73000273,66fa4ebf79326e780c390304,,,,,,,,,,,,,,,,,,,,,2532.2309,2532.2309,2532.2329,2534.4063,0,1,left,1.1017,0.0003,2534.4082,2534.4093,0,1,,2534.4109,2534.4119,0,1,,0,2534.412,2534.412,2534.4134,2535.8535,0,14,14,14,1,0.2,0.8,0.6,0.4,1,0,,,,,,,,,,,,,,,,,,,,,,,,,,,,,,,,,,,,
,,66f7aee700d2b58d3c21d64b,66fcbc1a810425318284b8e9,2024-10-02_04h27.19.613,mdp,2024.2.1,Win32,2.73000273,66fa4ebf79326e780c390304,,,,,,,,,,,,,,,,,,,,,2535.8546,2535.8546,2535.8563,2537.3466,1,0,right,0.3777,,2537.3487,2537.3496,0,0,,2537.3512,2537.3522,0,0,,1,2537.3522,2537.3522,2537.354,2538.4933,0,15,15,15,1,0.8,0.2,0.8,0.2,1,0,,,,,,,,,,,,,,,,,,,,,,,,,,,,,,,,,,,,
,,66f7aee700d2b58d3c21d64b,66fcbc1a810425318284b8e9,2024-10-02_04h27.19.613,mdp,2024.2.1,Win32,2.73000273,66fa4ebf79326e780c390304,,,,,,,,,,,,,,,,,,,,,2538.4945,2538.4945,2538.4962,2540.3185,0,0,left,0.743,0.0003,2540.3208,2540.3219,0,0,,2540.3235,2540.3245,0,0,,1,2540.3245,2540.3245,2540.3259,2541.7654,0,16,16,16,1,0.8,0.2,0.8,0.2,1,0,,,,,,,,,,,,,,,,,,,,,,,,,,,,,,,,,,,,
,,66f7aee700d2b58d3c21d64b,66fcbc1a810425318284b8e9,2024-10-02_04h27.19.613,mdp,2024.2.1,Win32,2.73000273,66fa4ebf79326e780c390304,,,,,,,,,,,,,,,,,,,,,2541.7665,2541.7665,2541.7682,2543.6022,1,0,right,0.7508,0.0009,2543.6039,2543.605,0,0,,2543.6066,2543.6075,0,0,,1,2543.6076,2543.6076,2543.609,2545.0729,0,17,17,17,1,0.8,0.2,0.8,0.2,1,0,,,,,,,,,,,,,,,,,,,,,,,,,,,,,,,,,,,,
,,66f7aee700d2b58d3c21d64b,66fcbc1a810425318284b8e9,2024-10-02_04h27.19.613,mdp,2024.2.1,Win32,2.73000273,66fa4ebf79326e780c390304,,,,,,,,,,,,,,,,,,,,,2545.0744,2545.0744,2545.0761,2546.901,0,0,left,0.7582,,2546.9031,2546.904,0,0,,2546.9056,2546.9067,0,0,,1,2546.9067,2546.9067,2546.9082,2548.367,0,18,18,18,1,0.8,0.2,0.8,0.2,1,0,,,,,,,,,,,,,,,,,,,,,,,,,,,,,,,,,,,,
,,66f7aee700d2b58d3c21d64b,66fcbc1a810425318284b8e9,2024-10-02_04h27.19.613,mdp,2024.2.1,Win32,2.73000273,66fa4ebf79326e780c390304,,,,,,,,,,,,,,,,,,,,,2548.3683,2548.3683,2548.3702,2549.8199,1,0,right,0.3791,,2549.8212,2549.8222,0,1,,2549.8233,2549.8243,0,1,,1,2549.8243,2549.8243,2549.8253,2551.2774,0,19,19,19,1,0.6,0.4,0.6,0.4,1,0,,,,,,,,,,,,,,,,,,,,,,,,,,,,,,,,,,,,
,,66f7aee700d2b58d3c21d64b,66fcbc1a810425318284b8e9,2024-10-02_04h27.19.613,mdp,2024.2.1,Win32,2.73000273,66fa4ebf79326e780c390304,,,,,,,,,,,,,,,,,,,,,2551.2783,2551.2783,2551.2813,2552.3969,0,0,left,0.0094,,2552.3989,2552.4004,0,1,,2552.402,2552.4029,0,1,,1,2552.403,2552.403,2552.4045,2553.8773,0,20,20,20,1,0.4,0.6,0.8,0.2,1,0,,,,,,,,,,,,,,,,,,,,,,,,,,,,,,,,,,,,
,,66f7aee700d2b58d3c21d64b,66fcbc1a810425318284b8e9,2024-10-02_04h27.19.613,mdp,2024.2.1,Win32,2.73000273,66fa4ebf79326e780c390304,,,,,,,,,,,,,,,,,,,,,2553.8785,2553.8785,2553.8803,2554.9645,1,0,right,0.01,,2554.9664,2554.9674,0,0,,2554.9694,2554.9704,0,1,,1,2554.9705,2554.9705,2554.9719,2556.436,0,21,21,21,1,0.4,0.6,0.8,0.2,1,0,,,,,,,,,,,,,,,,,,,,,,,,,,,,,,,,,,,,
,,66f7aee700d2b58d3c21d64b,66fcbc1a810425318284b8e9,2024-10-02_04h27.19.613,mdp,2024.2.1,Win32,2.73000273,66fa4ebf79326e780c390304,,,,,,,,,,,,,,,,,,,,,2556.4372,2556.4372,2556.439,2557.9221,0,1,left,0.3775,,2557.9244,2557.9255,0,1,,2557.927,2557.928,0,1,,0,2557.928,2557.928,2557.9295,2559.4124,0,22,22,22,1,0.4,0.6,0.8,0.2,1,0,,,,,,,,,,,,,,,,,,,,,,,,,,,,,,,,,,,,
,,66f7aee700d2b58d3c21d64b,66fcbc1a810425318284b8e9,2024-10-02_04h27.19.613,mdp,2024.2.1,Win32,2.73000273,66fa4ebf79326e780c390304,,,,,,,,,,,,,,,,,,,,,2559.4134,2559.4134,2559.4151,2561.2438,0,1,left,0.7369,0.0001,2561.2456,2561.2471,0,1,,2561.2486,2561.2496,0,0,,0,2561.2496,2561.2496,2561.251,2562.7102,0,23,23,23,1,0.4,0.6,0.8,0.2,1,0,,,,,,,,,,,,,,,,,,,,,,,,,,,,,,,,,,,,
,,66f7aee700d2b58d3c21d64b,66fcbc1a810425318284b8e9,2024-10-02_04h27.19.613,mdp,2024.2.1,Win32,2.73000273,66fa4ebf79326e780c390304,,,,,,,,,,,,,,,,,,,,,2562.7114,2562.7114,2562.7132,2564.1933,0,1,left,0.3757,,2564.1957,2564.1967,0,0,,2564.1979,2564.1987,0,1,,0,2564.1987,2564.1987,2564.1996,2565.6605,0,24,24,24,1,0.4,0.6,0.8,0.2,1,0,,,,,,,,,,,,,,,,,,,,,,,,,,,,,,,,,,,,
,,66f7aee700d2b58d3c21d64b,66fcbc1a810425318284b8e9,2024-10-02_04h27.19.613,mdp,2024.2.1,Win32,2.73000273,66fa4ebf79326e780c390304,,,,,,,,,,,,,,,,,,,,,2565.6617,2565.6617,2565.6635,2567.5256,1,0,right,0.7559,,2567.5278,2567.5288,0,0,,2567.5304,2567.5314,0,0,,1,2567.5315,2567.5315,2567.5328,2568.9911,0,25,25,25,1,0.4,0.6,0.8,0.2,1,0,,,,,,,,,,,,,,,,,,,,,,,,,,,,,,,,,,,,
,,66f7aee700d2b58d3c21d64b,66fcbc1a810425318284b8e9,2024-10-02_04h27.19.613,mdp,2024.2.1,Win32,2.73000273,66fa4ebf79326e780c390304,,,,,,,,,,,,,,,,,,,,,2568.9918,2568.9919,2568.9942,2570.8203,1,0,right,0.7681,,2570.8223,2570.8233,0,0,,2570.8248,2570.8262,0,0,,1,2570.8263,2570.8263,2570.8278,2572.2909,0,26,26,26,1,0.4,0.6,0.8,0.2,1,0,,,,,,,,,,,,,,,,,,,,,,,,,,,,,,,,,,,,
,,66f7aee700d2b58d3c21d64b,66fcbc1a810425318284b8e9,2024-10-02_04h27.19.613,mdp,2024.2.1,Win32,2.73000273,66fa4ebf79326e780c390304,,,,,,,,,,,,,,,,,,,,,2572.2921,2572.2921,2572.2939,2573.7787,1,0,right,0.3945,,2573.7805,2573.7816,0,0,,2573.7835,2573.7845,0,1,,1,2573.7846,2573.7846,2573.7861,2575.2248,0,27,27,27,1,0.4,0.6,0.8,0.2,1,0,,,,,,,,,,,,,,,,,,,,,,,,,,,,,,,,,,,,
,,66f7aee700d2b58d3c21d64b,66fcbc1a810425318284b8e9,2024-10-02_04h27.19.613,mdp,2024.2.1,Win32,2.73000273,66fa4ebf79326e780c390304,,,,,,,,,,,,,,,,,,,,,2575.226,2575.226,2575.2277,2576.3124,1,0,right,0.0104,,2576.3143,2576.3153,0,0,,2576.3169,2576.318,0,0,,1,2576.318,2576.318,2576.3194,2577.7813,0,28,28,28,1,0.4,0.6,0.8,0.2,1,0,,,,,,,,,,,,,,,,,,,,,,,,,,,,,,,,,,,,
,,66f7aee700d2b58d3c21d64b,66fcbc1a810425318284b8e9,2024-10-02_04h27.19.613,mdp,2024.2.1,Win32,2.73000273,66fa4ebf79326e780c390304,,,,,,,,,,,,,,,,,,,,,2577.7825,2577.7825,2577.7842,2579.2903,1,1,right,0.4034,,2579.2919,2579.293,0,0,,2579.2946,2579.2956,0,0,,0,2579.2957,2579.2957,2579.2971,2580.7564,0,29,29,29,1,0.4,0.6,0.8,0.2,1,0,,,,,,,,,,,,,,,,,,,,,,,,,,,,,,,,,,,,
,,66f7aee700d2b58d3c21d64b,66fcbc1a810425318284b8e9,2024-10-02_04h27.19.613,mdp,2024.2.1,Win32,2.73000273,66fa4ebf79326e780c390304,,,,,,,,,,,,,,,,,,,,,2580.7577,2580.7578,2580.7595,2583.7305,0,0,left,1.8795,0.0002,2583.7327,2583.7338,0,0,,2583.7354,2583.7364,0,1,,1,2583.7365,2583.7365,2583.738,2585.1929,0,30,30,30,1,0.4,0.6,0.8,0.2,1,0,,,,,,,,,,,,,,,,,,,,,,,,,,,,,,,,,,,,
,,66f7aee700d2b58d3c21d64b,66fcbc1a810425318284b8e9,2024-10-02_04h27.19.613,mdp,2024.2.1,Win32,2.73000273,66fa4ebf79326e780c390304,,,,,,,,,,,,,,,,,,,,,2585.194,2585.1941,2585.1958,2587.3589,0,1,left,1.0967,,2587.361,2587.3621,0,0,,2587.3637,2587.365,0,1,,0,2587.365,2587.3651,2587.3664,2588.8029,0,31,31,31,1,0.4,0.6,0.8,0.2,1,0,,,,,,,,,,,,,,,,,,,,,,,,,,,,,,,,,,,,
,,66f7aee700d2b58d3c21d64b,66fcbc1a810425318284b8e9,2024-10-02_04h27.19.613,mdp,2024.2.1,Win32,2.73000273,66fa4ebf79326e780c390304,,,,,,,,,,,,,,,,,,,,,2588.8041,2588.8041,2588.8059,2591.7336,0,0,left,1.8503,0.0012,2591.7354,2591.7364,0,0,,2591.738,2591.739,0,1,,1,2591.7391,2591.7391,2591.7404,2593.1947,0,32,32,32,1,0.4,0.6,0.8,0.2,1,0,,,,,,,,,,,,,,,,,,,,,,,,,,,,,,,,,,,,
,,66f7aee700d2b58d3c21d64b,66fcbc1a810425318284b8e9,2024-10-02_04h27.19.613,mdp,2024.2.1,Win32,2.73000273,66fa4ebf79326e780c390304,,,,,,,,,,,,,,,,,,,,,2593.1961,2593.1961,2593.1978,2595.774,1,0,right,1.5071,,2595.7769,2595.7779,0,1,,2595.7795,2595.7805,0,0,,1,2595.7806,2595.7806,2595.7819,2597.2556,0,33,33,33,1,0.4,0.6,0.8,0.2,1,0,,,,,,,,,,,,,,,,,,,,,,,,,,,,,,,,,,,,
,,66f7aee700d2b58d3c21d64b,66fcbc1a810425318284b8e9,2024-10-02_04h27.19.613,mdp,2024.2.1,Win32,2.73000273,66fa4ebf79326e780c390304,,,,,,,,,,,,,,,,,,,,,2597.2569,2597.2569,2597.2586,2599.464,0,0,left,1.1246,,2599.4658,2599.4669,0,0,,2599.4687,2599.4698,0,1,,1,2599.4698,2599.4698,2599.4712,2600.9036,0,34,34,34,1,0.4,0.6,0.8,0.2,1,0,,,,,,,,,,,,,,,,,,,,,,,,,,,,,,,,,,,,
