init_exp.started,init_exp.stopped,participant,session,date,expName,psychopyVersion,OS,frameRate,study_id,disp_instruction.started,disp_instruction.stopped,instruction.thisRepN,instruction.thisTrialN,instruction.thisN,instruction.thisIndex,instruction.ran,instimg_path,consent.started,consent.stopped,key_resp_3.keys,key_resp_3.rt,key_resp_3.duration,n_steps,sequence_path,init_block.started,init_block.stopped,key_resp.keys,key_resp.rt,key_resp.duration,init_trials.started,init_trials.stopped,step0.started,step0.stopped,act0,s1,res0.keys,res0.rt,res0.duration,step1.started,step1.stopped,act1,s2,res1.keys,step2.started,step2.stopped,act2,s3,res2.keys,rew,reward_comp.started,reward_comp.stopped,reward_disp.started,reward_disp.stopped,trials.thisRepN,trials.thisTrialN,trials.thisN,trials.thisIndex,trials.ran,s00a0s10,s00a0s11,s00a1s10,s00a1s11,rew10,rew11,break_block.started,break_block.stopped,block.thisRepN,block.thisTrialN,block.thisN,block.thisIndex,block.ran,s00path,s10path,s11path,s20path,s21path,res1.rt,res1.duration,s10a0s20,s10a0s21,s10a1s20,s10a1s21,s11a0s20,s11a0s21,s11a1s20,s11a1s21,rew20,rew21,res2.rt,res2.duration,s20a0s30,s20a0s31,s20a1s30,s20a1s31,s21a0s30,s21a0s31,s21a1s30,s21a1s31,rew30,rew31
0.0002,0.0008,66fc6d168db73b4d68af6cfb,66fc98a769a3d881bf67bb1d,2024-10-02_01h50.09.186,mdp,2024.2.1,Win32,59.88023952,66fa4ebf79326e780c390304,,,,,,,,,,,,,,,,,,,,,,,,,,,,,,,,,,,,,,,,,,,,,,,,,,,,,,,,,,,,,,,,,,,,,,,,,,,,,,,,,,,,,,,,,,,
,,66fc6d168db73b4d68af6cfb,66fc98a769a3d881bf67bb1d,2024-10-02_01h50.09.186,mdp,2024.2.1,Win32,59.88023952,66fa4ebf79326e780c390304,0.0026,45.4988,0,0,0,0,1,rlnn_exp/rlnn_exp.001.png,,,,,,,,,,,,,,,,,,,,,,,,,,,,,,,,,,,,,,,,,,,,,,,,,,,,,,,,,,,,,,,,,,,,,,,,,,,,,,,,,,,
,,66fc6d168db73b4d68af6cfb,66fc98a769a3d881bf67bb1d,2024-10-02_01h50.09.186,mdp,2024.2.1,Win32,59.88023952,66fa4ebf79326e780c390304,45.4992,76.7411,0,1,1,1,1,rlnn_exp/rlnn_exp.002.png,,,,,,,,,,,,,,,,,,,,,,,,,,,,,,,,,,,,,,,,,,,,,,,,,,,,,,,,,,,,,,,,,,,,,,,,,,,,,,,,,,,
,,66fc6d168db73b4d68af6cfb,66fc98a769a3d881bf67bb1d,2024-10-02_01h50.09.186,mdp,2024.2.1,Win32,59.88023952,66fa4ebf79326e780c390304,76.7413,89.1179,0,2,2,2,1,rlnn_exp/rlnn_exp.003.png,,,,,,,,,,,,,,,,,,,,,,,,,,,,,,,,,,,,,,,,,,,,,,,,,,,,,,,,,,,,,,,,,,,,,,,,,,,,,,,,,,,
,,66fc6d168db73b4d68af6cfb,66fc98a769a3d881bf67bb1d,2024-10-02_01h50.09.186,mdp,2024.2.1,Win32,59.88023952,66fa4ebf79326e780c390304,89.1181,100.2771,0,3,3,3,1,rlnn_exp/rlnn_exp.004.png,,,,,,,,,,,,,,,,,,,,,,,,,,,,,,,,,,,,,,,,,,,,,,,,,,,,,,,,,,,,,,,,,,,,,,,,,,,,,,,,,,,
,,66fc6d168db73b4d68af6cfb,66fc98a769a3d881bf67bb1d,2024-10-02_01h50.09.186,mdp,2024.2.1,Win32,59.88023952,66fa4ebf79326e780c390304,,,,,,,,,100.2773,118.8759,y,8.584,,,,,,,,,,,,,,,,,,,,,,,,,,,,,,,,,,,,,,,,,,,,,,,,,,,,,,,,,,,,,,,,,,,,,,,,,,,,,,,
,,66fc6d168db73b4d68af6cfb,66fc98a769a3d881bf67bb1d,2024-10-02_01h50.09.186,mdp,2024.2.1,Win32,59.88023952,66fa4ebf79326e780c390304,,,,,,,,,,,,,,1,seqs/st1seq33.csv,118.8777,120.7441,space,1.342,,120.7454,120.7455,120.7457,122.9792,0,1,left,1.7109,,122.9794,122.9801,,1,,122.9802,122.9806,,0,,0,122.9807,122.9807,122.9808,124.4805,0,0,0,0,1,0.4,0.6,0.8,0.2,1,0,,,,,,,,,,,,,,,,,,,,,,,,,,,,,,,,,,,,
,,66fc6d168db73b4d68af6cfb,66fc98a769a3d881bf67bb1d,2024-10-02_01h50.09.186,mdp,2024.2.1,Win32,59.88023952,66fa4ebf79326e780c390304,,,,,,,,,,,,,,,,,,,,,124.4807,124.4807,124.4811,125.8315,1,0,right,0.8344,,125.832,125.8324,,0,,125.8326,125.8328,,0,,1,125.8328,125.8329,125.8331,127.3327,0,1,1,1,1,0.4,0.6,0.8,0.2,1,0,,,,,,,,,,,,,,,,,,,,,,,,,,,,,,,,,,,,
,,66fc6d168db73b4d68af6cfb,66fc98a769a3d881bf67bb1d,2024-10-02_01h50.09.186,mdp,2024.2.1,Win32,59.88023952,66fa4ebf79326e780c390304,,,,,,,,,,,,,,,,,,,,,127.3329,127.3329,127.3335,128.6505,1,1,right,0.8135,,128.651,128.6513,,1,,128.6515,128.6517,,0,,0,128.6517,128.6517,128.6518,130.1517,0,2,2,2,1,0.8,0.2,0.4,0.6,1,0,,,,,,,,,,,,,,,,,,,,,,,,,,,,,,,,,,,,
,,66fc6d168db73b4d68af6cfb,66fc98a769a3d881bf67bb1d,2024-10-02_01h50.09.186,mdp,2024.2.1,Win32,59.88023952,66fa4ebf79326e780c390304,,,,,,,,,,,,,,,,,,,,,130.152,130.152,130.1525,131.1192,1,0,right,0.4586,,131.1196,131.1199,,1,,131.1201,131.1203,,0,,1,131.1203,131.1203,131.1205,132.6204,0,3,3,3,1,0.8,0.2,0.4,0.6,1,0,,,,,,,,,,,,,,,,,,,,,,,,,,,,,,,,,,,,
,,66fc6d168db73b4d68af6cfb,66fc98a769a3d881bf67bb1d,2024-10-02_01h50.09.186,mdp,2024.2.1,Win32,59.88023952,66fa4ebf79326e780c390304,,,,,,,,,,,,,,,,,,,,,132.6206,132.6207,132.6211,133.5712,1,1,right,0.4461,,133.5717,133.5719,,1,,133.5722,133.5724,,0,,0,133.5724,133.5724,133.5726,135.0725,0,4,4,4,1,0.8,0.2,0.4,0.6,1,0,,,,,,,,,,,,,,,,,,,,,,,,,,,,,,,,,,,,
,,66fc6d168db73b4d68af6cfb,66fc98a769a3d881bf67bb1d,2024-10-02_01h50.09.186,mdp,2024.2.1,Win32,59.88023952,66fa4ebf79326e780c390304,,,,,,,,,,,,,,,,,,,,,135.0726,135.0726,135.0732,135.8732,1,1,right,0.283,,135.8737,135.874,,1,,135.8742,135.8744,,0,,0,135.8744,135.8744,135.8745,137.3744,0,5,5,5,1,0.8,0.2,0.4,0.6,1,0,,,,,,,,,,,,,,,,,,,,,,,,,,,,,,,,,,,,
,,66fc6d168db73b4d68af6cfb,66fc98a769a3d881bf67bb1d,2024-10-02_01h50.09.186,mdp,2024.2.1,Win32,59.88023952,66fa4ebf79326e780c390304,,,,,,,,,,,,,,,,,,,,,137.3746,137.3746,137.3752,138.1917,0,0,left,0.3075,,138.1922,138.1925,,0,,138.1928,138.1929,,0,,1,138.1929,138.1929,138.1931,139.693,0,6,6,6,1,0.8,0.2,0.4,0.6,1,0,,,,,,,,,,,,,,,,,,,,,,,,,,,,,,,,,,,,
,,66fc6d168db73b4d68af6cfb,66fc98a769a3d881bf67bb1d,2024-10-02_01h50.09.186,mdp,2024.2.1,Win32,59.88023952,66fa4ebf79326e780c390304,,,,,,,,,,,,,,,,,,,,,139.6931,139.6931,139.6937,140.6771,0,0,left,0.4775,,140.6775,140.6778,,0,,140.678,140.6782,,0,,1,140.6782,140.6782,140.6784,142.1783,0,7,7,7,1,0.8,0.2,0.4,0.6,1,0,,,,,,,,,,,,,,,,,,,,,,,,,,,,,,,,,,,,
,,66fc6d168db73b4d68af6cfb,66fc98a769a3d881bf67bb1d,2024-10-02_01h50.09.186,mdp,2024.2.1,Win32,59.88023952,66fa4ebf79326e780c390304,,,,,,,,,,,,,,,,,,,,,142.1785,142.1785,142.1789,142.9623,0,0,left,0.272,,142.9627,142.963,,0,,142.9632,142.9634,,1,,1,142.9635,142.9635,142.9637,144.4636,0,8,8,8,1,0.8,0.2,0.4,0.6,1,0,,,,,,,,,,,,,,,,,,,,,,,,,,,,,,,,,,,,
,,66fc6d168db73b4d68af6cfb,66fc98a769a3d881bf67bb1d,2024-10-02_01h50.09.186,mdp,2024.2.1,Win32,59.88023952,66fa4ebf79326e780c390304,,,,,,,,,,,,,,,,,,,,,144.4637,144.4637,144.4641,145.6979,0,0,left,0.7169,,145.6983,145.6987,,0,,145.699,145.6992,,0,,1,145.6992,145.6992,145.6993,147.1991,0,9,9,9,1,0.8,0.2,0.4,0.6,1,0,,,,,,,,,,,,,,,,,,,,,,,,,,,,,,,,,,,,
,,66fc6d168db73b4d68af6cfb,66fc98a769a3d881bf67bb1d,2024-10-02_01h50.09.186,mdp,2024.2.1,Win32,59.88023952,66fa4ebf79326e780c390304,,,,,,,,,,,,,,,,,,,,,147.1993,147.1993,147.1997,147.9498,0,1,left,0.2428,,147.9502,147.9505,,0,,147.9508,147.951,,1,,0,147.951,147.951,147.9512,149.451,0,10,10,10,1,0.4,0.6,0.8,0.2,1,0,,,,,,,,,,,,,,,,,,,,,,,,,,,,,,,,,,,,
,,66fc6d168db73b4d68af6cfb,66fc98a769a3d881bf67bb1d,2024-10-02_01h50.09.186,mdp,2024.2.1,Win32,59.88023952,66fa4ebf79326e780c390304,,,,,,,,,,,,,,,,,,,,,149.4512,149.4512,149.4515,150.4187,0,1,left,0.4628,,150.419,150.4193,,1,,150.4196,150.4198,,1,,0,150.4198,150.4198,150.4199,151.9197,0,11,11,11,1,0.4,0.6,0.8,0.2,1,0,,,,,,,,,,,,,,,,,,,,,,,,,,,,,,,,,,,,
,,66fc6d168db73b4d68af6cfb,66fc98a769a3d881bf67bb1d,2024-10-02_01h50.09.186,mdp,2024.2.1,Win32,59.88023952,66fa4ebf79326e780c390304,,,,,,,,,,,,,,,,,,,,,151.9198,151.9198,151.9203,152.8872,0,1,left,0.4579,,152.8876,152.8879,,1,,152.8881,152.8884,,0,,0,152.8884,152.8884,152.8885,154.3884,0,12,12,12,1,0.6,0.4,0.2,0.8,1,0,,,,,,,,,,,,,,,,,,,,,,,,,,,,,,,,,,,,
,,66fc6d168db73b4d68af6cfb,66fc98a769a3d881bf67bb1d,2024-10-02_01h50.09.186,mdp,2024.2.1,Win32,59.88023952,66fa4ebf79326e780c390304,,,,,,,,,,,,,,,,,,,,,154.3886,154.3886,154.389,155.3726,1,1,right,0.4698,,155.373,155.3733,,1,,155.3735,155.3738,,1,,0,155.3738,155.3738,155.374,156.8738,0,13,13,13,1,0.6,0.4,0.2,0.8,1,0,,,,,,,,,,,,,,,,,,,,,,,,,,,,,,,,,,,,
,,66fc6d168db73b4d68af6cfb,66fc98a769a3d881bf67bb1d,2024-10-02_01h50.09.186,mdp,2024.2.1,Win32,59.88023952,66fa4ebf79326e780c390304,,,,,,,,,,,,,,,,,,,,,156.8739,156.8739,156.8744,157.7079,1,1,right,0.3275,,157.7083,157.7086,,1,,157.7089,157.709,,1,,0,157.709,157.709,157.7093,159.2091,0,14,14,14,1,0.6,0.4,0.2,0.8,1,0,,,,,,,,,,,,,,,,,,,,,,,,,,,,,,,,,,,,
,,66fc6d168db73b4d68af6cfb,66fc98a769a3d881bf67bb1d,2024-10-02_01h50.09.186,mdp,2024.2.1,Win32,59.88023952,66fa4ebf79326e780c390304,,,,,,,,,,,,,,,,,,,,,159.2093,159.2093,159.2096,160.0098,0,0,left,0.2827,,160.0102,160.0104,,0,,160.0108,160.0109,,0,,1,160.0109,160.011,160.0112,161.5111,0,15,15,15,1,0.6,0.4,0.2,0.8,1,0,,,,,,,,,,,,,,,,,,,,,,,,,,,,,,,,,,,,
,,66fc6d168db73b4d68af6cfb,66fc98a769a3d881bf67bb1d,2024-10-02_01h50.09.186,mdp,2024.2.1,Win32,59.88023952,66fa4ebf79326e780c390304,,,,,,,,,,,,,,,,,,,,,161.5112,161.5112,161.5116,162.345,0,0,left,0.3226,,162.3455,162.3458,,1,,162.3461,162.3462,,0,,1,162.3462,162.3462,162.3464,163.8463,0,16,16,16,1,0.6,0.4,0.2,0.8,1,0,,,,,,,,,,,,,,,,,,,,,,,,,,,,,,,,,,,,
,,66fc6d168db73b4d68af6cfb,66fc98a769a3d881bf67bb1d,2024-10-02_01h50.09.186,mdp,2024.2.1,Win32,59.88023952,66fa4ebf79326e780c390304,,,,,,,,,,,,,,,,,,,,,163.8464,163.8464,163.8468,164.4968,0,1,left,0.1331,,164.4972,164.4976,,1,,164.4978,164.498,,0,,0,164.498,164.498,164.4984,165.998,0,17,17,17,1,0.6,0.4,0.2,0.8,1,0,,,,,,,,,,,,,,,,,,,,,,,,,,,,,,,,,,,,
,,66fc6d168db73b4d68af6cfb,66fc98a769a3d881bf67bb1d,2024-10-02_01h50.09.186,mdp,2024.2.1,Win32,59.88023952,66fa4ebf79326e780c390304,,,,,,,,,,,,,,,,,,,,,165.9981,165.9981,165.9985,166.6819,0,1,left,0.1792,,166.6823,166.6826,,0,,166.6828,166.683,,0,,0,166.683,166.683,166.6833,168.1831,0,18,18,18,1,0.6,0.4,0.2,0.8,1,0,,,,,,,,,,,,,,,,,,,,,,,,,,,,,,,,,,,,
,,66fc6d168db73b4d68af6cfb,66fc98a769a3d881bf67bb1d,2024-10-02_01h50.09.186,mdp,2024.2.1,Win32,59.88023952,66fa4ebf79326e780c390304,,,,,,,,,,,,,,,,,,,,,168.1833,168.1833,168.1837,168.867,0,1,left,0.1781,,168.8675,168.8679,,0,,168.8681,168.8684,,0,,0,168.8684,168.8684,168.8685,170.3682,0,19,19,19,1,0.6,0.4,0.2,0.8,1,0,,,,,,,,,,,,,,,,,,,,,,,,,,,,,,,,,,,,
,,66fc6d168db73b4d68af6cfb,66fc98a769a3d881bf67bb1d,2024-10-02_01h50.09.186,mdp,2024.2.1,Win32,59.88023952,66fa4ebf79326e780c390304,,,,,,,,,,,,,,,,,,,,,170.3684,170.3684,170.3687,171.0688,0,0,left,0.1926,,171.0693,171.0696,,0,,171.0699,171.0701,,0,,1,171.0701,171.0701,171.0703,172.5701,0,20,20,20,1,0.8,0.2,0.6,0.4,1,0,,,,,,,,,,,,,,,,,,,,,,,,,,,,,,,,,,,,
,,66fc6d168db73b4d68af6cfb,66fc98a769a3d881bf67bb1d,2024-10-02_01h50.09.186,mdp,2024.2.1,Win32,59.88023952,66fa4ebf79326e780c390304,,,,,,,,,,,,,,,,,,,,,172.5703,172.5703,172.5706,173.3874,0,1,left,0.3095,,173.3879,173.3882,,0,,173.3884,173.3885,,0,,0,173.3885,173.3886,173.3887,174.8887,0,21,21,21,1,0.8,0.2,0.6,0.4,1,0,,,,,,,,,,,,,,,,,,,,,,,,,,,,,,,,,,,,
,,66fc6d168db73b4d68af6cfb,66fc98a769a3d881bf67bb1d,2024-10-02_01h50.09.186,mdp,2024.2.1,Win32,59.88023952,66fa4ebf79326e780c390304,,,,,,,,,,,,,,,,,,,,,174.8888,174.8888,174.8891,175.6727,0,0,left,0.2705,,175.6731,175.6733,,0,,175.6736,175.6738,,1,,1,175.6738,175.6738,175.674,177.1739,0,22,22,22,1,0.8,0.2,0.6,0.4,1,0,,,,,,,,,,,,,,,,,,,,,,,,,,,,,,,,,,,,
,,66fc6d168db73b4d68af6cfb,66fc98a769a3d881bf67bb1d,2024-10-02_01h50.09.186,mdp,2024.2.1,Win32,59.88023952,66fa4ebf79326e780c390304,,,,,,,,,,,,,,,,,,,,,177.1741,177.1741,177.1745,177.8912,0,0,left,0.2031,,177.8916,177.8919,,0,,177.8921,177.8923,,1,,1,177.8923,177.8923,177.8924,179.3924,0,23,23,23,1,0.8,0.2,0.6,0.4,1,0,,,,,,,,,,,,,,,,,,,,,,,,,,,,,,,,,,,,
,,66fc6d168db73b4d68af6cfb,66fc98a769a3d881bf67bb1d,2024-10-02_01h50.09.186,mdp,2024.2.1,Win32,59.88023952,66fa4ebf79326e780c390304,,,,,,,,,,,,,,,,,,,,,179.3926,179.3926,179.3929,180.1097,0,1,left,0.2085,,180.1102,180.1103,,1,,180.1106,180.1108,,0,,0,180.1108,180.1108,180.1109,181.6109,0,24,24,24,1,0.8,0.2,0.6,0.4,1,0,,,,,,,,,,,,,,,,,,,,,,,,,,,,,,,,,,,,
,,66fc6d168db73b4d68af6cfb,66fc98a769a3d881bf67bb1d,2024-10-02_01h50.09.186,mdp,2024.2.1,Win32,59.88023952,66fa4ebf79326e780c390304,,,,,,,,,,,,,,,,,,,,,181.6111,181.6111,181.6114,182.3115,0,0,left,0.1832,,182.312,182.3122,,0,,182.3124,182.3127,,0,,1,182.3127,182.3127,182.3128,183.8128,0,25,25,25,1,0.8,0.2,0.6,0.4,1,0,,,,,,,,,,,,,,,,,,,,,,,,,,,,,,,,,,,,
,,66fc6d168db73b4d68af6cfb,66fc98a769a3d881bf67bb1d,2024-10-02_01h50.09.186,mdp,2024.2.1,Win32,59.88023952,66fa4ebf79326e780c390304,,,,,,,,,,,,,,,,,,,,,183.8128,183.8128,183.8132,184.7635,0,0,left,0.444,,184.764,184.7643,,0,,184.7645,184.7647,,0,,1,184.7647,184.7647,184.7649,186.2648,0,26,26,26,1,0.8,0.2,0.6,0.4,1,0,,,,,,,,,,,,,,,,,,,,,,,,,,,,,,,,,,,,
,,66fc6d168db73b4d68af6cfb,66fc98a769a3d881bf67bb1d,2024-10-02_01h50.09.186,mdp,2024.2.1,Win32,59.88023952,66fa4ebf79326e780c390304,,,,,,,,,,,,,,,,,,,,,186.265,186.265,186.2653,187.1155,0,0,left,0.3335,,187.1159,187.1162,,0,,187.1164,187.1166,,0,,1,187.1166,187.1166,187.1167,188.6167,0,27,27,27,1,0.8,0.2,0.6,0.4,1,0,,,,,,,,,,,,,,,,,,,,,,,,,,,,,,,,,,,,
,,66fc6d168db73b4d68af6cfb,66fc98a769a3d881bf67bb1d,2024-10-02_01h50.09.186,mdp,2024.2.1,Win32,59.88023952,66fa4ebf79326e780c390304,,,,,,,,,,,,,,,,,,,,,188.6168,188.6168,188.6172,189.4007,0,0,left,0.2671,,189.4012,189.4014,,0,,189.4016,189.4017,,0,,1,189.4017,189.4017,189.4019,190.9019,0,28,28,28,1,0.8,0.2,0.6,0.4,1,0,,,,,,,,,,,,,,,,,,,,,,,,,,,,,,,,,,,,
,,66fc6d168db73b4d68af6cfb,66fc98a769a3d881bf67bb1d,2024-10-02_01h50.09.186,mdp,2024.2.1,Win32,59.88023952,66fa4ebf79326e780c390304,,,,,,,,,,,,,,,,,,,,,190.902,190.902,190.9023,191.6859,0,0,left,0.2748,,191.6863,191.6866,,0,,191.6872,191.6873,,0,,1,191.6874,191.6874,191.6876,193.1871,0,29,29,29,1,0.8,0.2,0.6,0.4,1,0,,,,,,,,,,,,,,,,,,,,,,,,,,,,,,,,,,,,
,,66fc6d168db73b4d68af6cfb,66fc98a769a3d881bf67bb1d,2024-10-02_01h50.09.186,mdp,2024.2.1,Win32,59.88023952,66fa4ebf79326e780c390304,,,,,,,,,,,,,,,,,,,,,193.1873,193.1873,193.1878,193.821,0,0,left,0.118,,193.8214,193.8217,,0,,193.822,193.8223,,1,,1,193.8223,193.8223,193.8224,195.3222,0,30,30,30,1,0.8,0.2,0.6,0.4,1,0,,,,,,,,,,,,,,,,,,,,,,,,,,,,,,,,,,,,
,,66fc6d168db73b4d68af6cfb,66fc98a769a3d881bf67bb1d,2024-10-02_01h50.09.186,mdp,2024.2.1,Win32,59.88023952,66fa4ebf79326e780c390304,,,,,,,,,,,,,,,,,,,,,195.3224,195.3224,195.3229,196.1062,0,0,left,0.2758,,196.1066,196.1069,,1,,196.1071,196.1073,,1,,1,196.1073,196.1073,196.1074,197.6075,0,31,31,31,1,0.2,0.8,0.8,0.2,1,0,,,,,,,,,,,,,,,,,,,,,,,,,,,,,,,,,,,,
,,66fc6d168db73b4d68af6cfb,66fc98a769a3d881bf67bb1d,2024-10-02_01h50.09.186,mdp,2024.2.1,Win32,59.88023952,66fa4ebf79326e780c390304,,,,,,,,,,,,,,,,,,,,,197.6077,197.6077,197.608,198.8918,0,0,left,0.7688,,198.8922,198.8925,,1,,198.8927,198.8929,,0,,1,198.8929,198.8929,198.893,200.3931,0,32,32,32,1,0.2,0.8,0.8,0.2,1,0,,,,,,,,,,,,,,,,,,,,,,,,,,,,,,,,,,,,
,,66fc6d168db73b4d68af6cfb,66fc98a769a3d881bf67bb1d,2024-10-02_01h50.09.186,mdp,2024.2.1,Win32,59.88023952,66fa4ebf79326e780c390304,,,,,,,,,,,,,,,,,,,,,200.3933,200.3933,200.3936,201.177,0,1,left,0.2717,,201.1776,201.1778,,1,,201.1781,201.1782,,1,,0,201.1783,201.1783,201.1784,202.6783,0,33,33,33,1,0.2,0.8,0.8,0.2,1,0,,,,,,,,,,,,,,,,,,,,,,,,,,,,,,,,,,,,
,,66fc6d168db73b4d68af6cfb,66fc98a769a3d881bf67bb1d,2024-10-02_01h50.09.186,mdp,2024.2.1,Win32,59.88023952,66fa4ebf79326e780c390304,,,,,,,,,,,,,,,,,,,,,202.6784,202.6784,202.6788,203.4122,0,1,left,0.2262,,203.4127,203.413,,0,,203.4133,203.4134,,1,,0,203.4134,203.4134,203.4135,204.9135,0,34,34,34,1,0.2,0.8,0.8,0.2,1,0,,,,,,,,,,,,,,,,,,,,,,,,,,,,,,,,,,,,
,,66fc6d168db73b4d68af6cfb,66fc98a769a3d881bf67bb1d,2024-10-02_01h50.09.186,mdp,2024.2.1,Win32,59.88023952,66fa4ebf79326e780c390304,,,,,,,,,,,,,,,,,,,,,204.9136,204.9136,204.9141,205.5473,0,1,left,0.1186,,205.5478,205.5481,,1,,205.5483,205.5484,,1,,0,205.5485,205.5485,205.5486,207.0487,0,35,35,35,1,0.2,0.8,0.8,0.2,1,0,,,,,,,,,,,,,,,,,,,,,,,,,,,,,,,,,,,,
,,66fc6d168db73b4d68af6cfb,66fc98a769a3d881bf67bb1d,2024-10-02_01h50.09.186,mdp,2024.2.1,Win32,59.88023952,66fa4ebf79326e780c390304,,,,,,,,,,,,,,,,,,,,,207.0488,207.0488,207.0491,207.9494,1,0,right,0.3837,,207.9498,207.95,,1,,207.9503,207.9505,,1,,1,207.9505,207.9505,207.9507,209.4505,0,36,36,36,1,0.8,0.2,0.6,0.4,1,0,,,,,,,,,,,,,,,,,,,,,,,,,,,,,,,,,,,,
,,66fc6d168db73b4d68af6cfb,66fc98a769a3d881bf67bb1d,2024-10-02_01h50.09.186,mdp,2024.2.1,Win32,59.88023952,66fa4ebf79326e780c390304,,,,,,,,,,,,,,,,,,,,,209.4507,209.4508,209.4511,210.0344,1,0,right,0.0695,,210.0348,210.035,,1,,210.0353,210.0354,,0,,1,210.0354,210.0354,210.0356,211.5356,0,37,37,37,1,0.8,0.2,0.6,0.4,1,0,,,,,,,,,,,,,,,,,,,,,,,,,,,,,,,,,,,,
,,66fc6d168db73b4d68af6cfb,66fc98a769a3d881bf67bb1d,2024-10-02_01h50.09.186,mdp,2024.2.1,Win32,59.88023952,66fa4ebf79326e780c390304,,,,,,,,,,,,,,,,,,,,,211.5357,211.5357,211.536,212.3363,1,0,right,0.2883,,212.3368,212.337,,1,,212.3372,212.3375,,0,,1,212.3375,212.3375,212.3376,213.8375,0,38,38,38,1,0.8,0.2,0.6,0.4,1,0,,,,,,,,,,,,,,,,,,,,,,,,,,,,,,,,,,,,
,,66fc6d168db73b4d68af6cfb,66fc98a769a3d881bf67bb1d,2024-10-02_01h50.09.186,mdp,2024.2.1,Win32,59.88023952,66fa4ebf79326e780c390304,,,,,,,,,,,,,,,,,,,,,213.8377,213.8377,213.8382,214.3713,1,1,right,0.0256,,214.3718,214.3721,,0,,214.3723,214.3726,,0,,0,214.3726,214.3726,214.3729,215.8725,0,39,39,39,1,0.8,0.2,0.6,0.4,1,0,,,,,,,,,,,,,,,,,,,,,,,,,,,,,,,,,,,,
,,66fc6d168db73b4d68af6cfb,66fc98a769a3d881bf67bb1d,2024-10-02_01h50.09.186,mdp,2024.2.1,Win32,59.88023952,66fa4ebf79326e780c390304,,,,,,,,,,,,,,,,,,,,,215.8727,215.8727,215.8736,216.6732,1,1,right,0.2874,,216.6737,216.6739,,0,,216.6741,216.6743,,0,,0,216.6743,216.6743,216.6745,218.1744,0,40,40,40,1,0.8,0.2,0.6,0.4,1,0,,,,,,,,,,,,,,,,,,,,,,,,,,,,,,,,,,,,
,,66fc6d168db73b4d68af6cfb,66fc98a769a3d881bf67bb1d,2024-10-02_01h50.09.186,mdp,2024.2.1,Win32,59.88023952,66fa4ebf79326e780c390304,,,,,,,,,,,,,,,,,,,,,218.1746,218.1746,218.1749,218.6916,1,0,right,0.0002,,218.692,218.6923,,1,,218.6925,218.6926,,1,,1,218.6926,218.6926,218.6929,220.1927,0,41,41,41,1,0.8,0.2,0.6,0.4,1,0,,,,,,,,,,,,,,,,,,,,,,,,,,,,,,,,,,,,
,,66fc6d168db73b4d68af6cfb,66fc98a769a3d881bf67bb1d,2024-10-02_01h50.09.186,mdp,2024.2.1,Win32,59.88023952,66fa4ebf79326e780c390304,,,,,,,,,,,,,,,,,,,,,220.1929,220.1929,220.1933,220.8766,1,1,right,0.1754,,220.8771,220.8774,,0,,220.8775,220.8777,,0,,0,220.8777,220.8777,220.8779,222.3779,0,42,42,42,1,0.8,0.2,0.6,0.4,1,0,,,,,,,,,,,,,,,,,,,,,,,,,,,,,,,,,,,,
,,66fc6d168db73b4d68af6cfb,66fc98a769a3d881bf67bb1d,2024-10-02_01h50.09.186,mdp,2024.2.1,Win32,59.88023952,66fa4ebf79326e780c390304,,,,,,,,,,,,,,,,,,,,,222.3781,222.3781,222.3784,223.4789,0,0,left,0.5836,,223.4793,223.4795,,0,,223.4797,223.4798,,0,,1,223.4798,223.4798,223.48,224.98,0,43,43,43,1,0.8,0.2,0.6,0.4,1,0,,,,,,,,,,,,,,,,,,,,,,,,,,,,,,,,,,,,
,,66fc6d168db73b4d68af6cfb,66fc98a769a3d881bf67bb1d,2024-10-02_01h50.09.186,mdp,2024.2.1,Win32,59.88023952,66fa4ebf79326e780c390304,,,,,,,,,,,,,,,,,,,,,224.9802,224.9802,224.9806,225.7139,0,0,left,0.2279,,225.7144,225.7147,,0,,225.7148,225.7151,,1,,1,225.7151,225.7151,225.7152,227.2152,0,44,44,44,1,0.8,0.2,0.6,0.4,1,0,,,,,,,,,,,,,,,,,,,,,,,,,,,,,,,,,,,,
,,66fc6d168db73b4d68af6cfb,66fc98a769a3d881bf67bb1d,2024-10-02_01h50.09.186,mdp,2024.2.1,Win32,59.88023952,66fa4ebf79326e780c390304,,,,,,,,,,,,,,,,,,,,,227.2154,227.2154,227.2158,227.7323,0,0,left,0.0006,,227.7328,227.733,,1,,227.7333,227.7334,,0,,1,227.7335,227.7335,227.7336,229.2336,0,45,45,45,1,0.8,0.2,0.6,0.4,1,0,,,,,,,,,,,,,,,,,,,,,,,,,,,,,,,,,,,,
,,66fc6d168db73b4d68af6cfb,66fc98a769a3d881bf67bb1d,2024-10-02_01h50.09.186,mdp,2024.2.1,Win32,59.88023952,66fa4ebf79326e780c390304,,,,,,,,,,,,,,,,,,,,,229.2338,229.2338,229.2342,230.0676,0,0,left,0.3256,,230.068,230.0683,,0,,230.0685,230.0687,,0,,1,230.0687,230.0687,230.0689,231.5688,0,46,46,46,1,0.6,0.4,0.4,0.6,1,0,,,,,,,,,,,,,,,,,,,,,,,,,,,,,,,,,,,,
,,66fc6d168db73b4d68af6cfb,66fc98a769a3d881bf67bb1d,2024-10-02_01h50.09.186,mdp,2024.2.1,Win32,59.88023952,66fa4ebf79326e780c390304,,,,,,,,,,,,,,,,,,,,,231.569,231.569,231.5694,232.186,0,1,left,0.1025,,232.1864,232.1867,,0,,232.1868,232.1871,,0,,0,232.1871,232.1871,232.1872,233.6872,0,47,47,47,1,0.6,0.4,0.4,0.6,1,0,,,,,,,,,,,,,,,,,,,,,,,,,,,,,,,,,,,,
,,66fc6d168db73b4d68af6cfb,66fc98a769a3d881bf67bb1d,2024-10-02_01h50.09.186,mdp,2024.2.1,Win32,59.88023952,66fa4ebf79326e780c390304,,,,,,,,,,,,,,,,,,,,,233.6874,233.6874,233.6878,234.5546,0,0,left,0.352,,234.5551,234.5553,,0,,234.5555,234.5557,,0,,1,234.5557,234.5557,234.5558,236.0558,0,48,48,48,1,0.6,0.4,0.4,0.6,1,0,,,,,,,,,,,,,,,,,,,,,,,,,,,,,,,,,,,,
,,66fc6d168db73b4d68af6cfb,66fc98a769a3d881bf67bb1d,2024-10-02_01h50.09.186,mdp,2024.2.1,Win32,59.88023952,66fa4ebf79326e780c390304,,,,,,,,,,,,,,,,,,,,,236.056,236.056,236.0564,237.0567,0,0,left,0.496,,237.0571,237.0574,,0,,237.0576,237.0577,,0,,1,237.0578,237.0578,237.0579,238.558,0,49,49,49,1,0.8,0.2,0.8,0.2,1,0,,,,,,,,,,,,,,,,,,,,,,,,,,,,,,,,,,,,
,,66fc6d168db73b4d68af6cfb,66fc98a769a3d881bf67bb1d,2024-10-02_01h50.09.186,mdp,2024.2.1,Win32,59.88023952,66fa4ebf79326e780c390304,,,,,,,,,,,,,,,,,,,,,,,,,,,,,,,,,,,,,,,,,,,,,,,,,,,,,,,,238.5582,297.0731,0,0,0,0,1,imgs/cat.png,imgs/giraffe.png,imgs/lion.png,imgs/rabbit.png,imgs/kangaroo.png,,,,,,,,,,,,,,,,,,,,,,,,
,,66fc6d168db73b4d68af6cfb,66fc98a769a3d881bf67bb1d,2024-10-02_01h50.09.186,mdp,2024.2.1,Win32,59.88023952,66fa4ebf79326e780c390304,,,,,,,,,,,,,,2,seqs/st2seq15.csv,297.0736,307.0145,space,9.4294,,307.0173,307.0174,307.0178,308.399,0,0,left,0.852,,308.3994,310.2004,0,1,left,310.2009,310.2011,,0,,0,310.2011,310.2011,310.2013,311.7017,0,0,0,0,1,0.2,0.8,0.8,0.2,,,,,,,,,,,,,,,1.2835,,0.6,0.4,0.2,0.8,0.6,0.4,0.8,0.2,1,0,,,,,,,,,,,,
,,66fc6d168db73b4d68af6cfb,66fc98a769a3d881bf67bb1d,2024-10-02_01h50.09.186,mdp,2024.2.1,Win32,59.88023952,66fa4ebf79326e780c390304,,,,,,,,,,,,,,,,,,,,,311.7019,311.7019,311.7023,312.2521,0,1,left,0.0335,,312.2525,313.1028,0,1,left,313.1032,313.1035,,0,,0,313.1036,313.1036,313.1038,314.6041,0,1,1,1,1,0.2,0.8,0.8,0.2,,,,,,,,,,,,,,,0.3425,,0.4,0.6,0.8,0.2,0.6,0.4,0.8,0.2,1,0,,,,,,,,,,,,
,,66fc6d168db73b4d68af6cfb,66fc98a769a3d881bf67bb1d,2024-10-02_01h50.09.186,mdp,2024.2.1,Win32,59.88023952,66fa4ebf79326e780c390304,,,,,,,,,,,,,,,,,,,,,314.6042,314.6042,314.6046,315.288,0,1,left,0.1769,,315.2884,316.439,0,0,left,316.4394,316.4397,,0,,1,316.4397,316.4397,316.44,317.9402,0,2,2,2,1,0.2,0.8,0.8,0.2,,,,,,,,,,,,,,,0.6371,,0.4,0.6,0.8,0.2,0.6,0.4,0.8,0.2,1,0,,,,,,,,,,,,
,,66fc6d168db73b4d68af6cfb,66fc98a769a3d881bf67bb1d,2024-10-02_01h50.09.186,mdp,2024.2.1,Win32,59.88023952,66fa4ebf79326e780c390304,,,,,,,,,,,,,,,,,,,,,317.9403,317.9403,317.9407,318.7408,0,1,left,0.2898,,318.7412,319.625,0,0,left,319.6254,319.6256,,0,,1,319.6256,319.6256,319.6258,321.1261,0,3,3,3,1,0.2,0.8,0.8,0.2,,,,,,,,,,,,,,,0.3682,,0.4,0.6,0.8,0.2,0.6,0.4,0.8,0.2,1,0,,,,,,,,,,,,
,,66fc6d168db73b4d68af6cfb,66fc98a769a3d881bf67bb1d,2024-10-02_01h50.09.186,mdp,2024.2.1,Win32,59.88023952,66fa4ebf79326e780c390304,,,,,,,,,,,,,,,,,,,,,321.1263,321.1263,321.1267,321.8768,0,0,left,0.2331,,321.8772,322.7775,0,0,left,322.7779,322.7781,,0,,1,322.7781,322.7781,322.7783,324.2787,0,4,4,4,1,0.2,0.8,0.8,0.2,,,,,,,,,,,,,,,0.3908,,0.4,0.6,0.8,0.2,0.6,0.4,0.8,0.2,1,0,,,,,,,,,,,,
,,66fc6d168db73b4d68af6cfb,66fc98a769a3d881bf67bb1d,2024-10-02_01h50.09.186,mdp,2024.2.1,Win32,59.88023952,66fa4ebf79326e780c390304,,,,,,,,,,,,,,,,,,,,,324.279,324.279,324.2793,325.0627,0,0,left,0.2781,,325.0632,325.8468,0,1,left,325.8472,325.8475,,0,,0,325.8475,325.8475,325.8478,327.3479,0,5,5,5,1,0.8,0.2,0.6,0.4,,,,,,,,,,,,,,,0.2781,,0.4,0.6,0.8,0.2,0.6,0.4,0.8,0.2,1,0,,,,,,,,,,,,
,,66fc6d168db73b4d68af6cfb,66fc98a769a3d881bf67bb1d,2024-10-02_01h50.09.186,mdp,2024.2.1,Win32,59.88023952,66fa4ebf79326e780c390304,,,,,,,,,,,,,,,,,,,,,327.3482,327.3482,327.3485,328.1153,0,0,left,0.2573,,328.1156,329.016,0,1,left,329.0164,329.0167,,1,,0,329.0167,329.0167,329.017,330.5172,0,6,6,6,1,0.8,0.2,0.6,0.4,,,,,,,,,,,,,,,0.3861,,0.4,0.6,0.8,0.2,0.6,0.4,0.8,0.2,1,0,,,,,,,,,,,,
,,66fc6d168db73b4d68af6cfb,66fc98a769a3d881bf67bb1d,2024-10-02_01h50.09.186,mdp,2024.2.1,Win32,59.88023952,66fa4ebf79326e780c390304,,,,,,,,,,,,,,,,,,,,,330.5174,330.5174,330.5178,331.3847,0,0,left,0.3519,,331.3852,332.302,1,0,right,332.3024,332.3028,,0,,1,332.3028,332.3028,332.303,333.8032,0,7,7,7,1,0.8,0.2,0.6,0.4,,,,,,,,,,,,,,,0.4045,,0.4,0.6,0.8,0.2,0.6,0.4,0.8,0.2,1,0,,,,,,,,,,,,
,,66fc6d168db73b4d68af6cfb,66fc98a769a3d881bf67bb1d,2024-10-02_01h50.09.186,mdp,2024.2.1,Win32,59.88023952,66fa4ebf79326e780c390304,,,,,,,,,,,,,,,,,,,,,333.8034,333.8034,333.8037,334.6707,0,0,left,0.3534,,334.6711,335.6882,1,1,right,335.6887,335.6889,,0,,0,335.6889,335.6889,335.6892,337.1894,0,8,8,8,1,0.8,0.2,0.6,0.4,,,,,,,,,,,,,,,0.5018,,0.4,0.6,0.8,0.2,0.6,0.4,0.8,0.2,1,0,,,,,,,,,,,,
,,66fc6d168db73b4d68af6cfb,66fc98a769a3d881bf67bb1d,2024-10-02_01h50.09.186,mdp,2024.2.1,Win32,59.88023952,66fa4ebf79326e780c390304,,,,,,,,,,,,,,,,,,,,,337.1896,337.1896,337.19,338.3237,0,0,left,0.6177,,338.3241,339.3245,1,0,right,339.325,339.3252,,0,,1,339.3252,339.3252,339.3254,340.8258,0,9,9,9,1,0.8,0.2,0.6,0.4,,,,,,,,,,,,,,,0.4838,,0.4,0.6,0.8,0.2,0.6,0.4,0.8,0.2,1,0,,,,,,,,,,,,
,,66fc6d168db73b4d68af6cfb,66fc98a769a3d881bf67bb1d,2024-10-02_01h50.09.186,mdp,2024.2.1,Win32,59.88023952,66fa4ebf79326e780c390304,,,,,,,,,,,,,,,,,,,,,340.8259,340.8259,340.8263,341.6097,0,1,left,0.2748,,341.6102,343.1276,0,1,left,343.128,343.1284,,0,,0,343.1284,343.1284,343.1286,344.6289,0,10,10,10,1,0.8,0.2,0.6,0.4,,,,,,,,,,,,,,,1.0007,,0.4,0.6,0.8,0.2,0.4,0.6,0.4,0.6,1,0,,,,,,,,,,,,
,,66fc6d168db73b4d68af6cfb,66fc98a769a3d881bf67bb1d,2024-10-02_01h50.09.186,mdp,2024.2.1,Win32,59.88023952,66fa4ebf79326e780c390304,,,,,,,,,,,,,,,,,,,,,344.6291,344.6291,344.6295,345.4629,0,0,left,0.3273,,345.4633,346.5805,1,0,right,346.581,346.5813,,0,,1,346.5813,346.5813,346.5815,348.0817,0,11,11,11,1,0.8,0.2,0.6,0.4,,,,,,,,,,,,,,,0.599,,0.4,0.6,0.8,0.2,0.4,0.6,0.4,0.6,1,0,,,,,,,,,,,,
,,66fc6d168db73b4d68af6cfb,66fc98a769a3d881bf67bb1d,2024-10-02_01h50.09.186,mdp,2024.2.1,Win32,59.88023952,66fa4ebf79326e780c390304,,,,,,,,,,,,,,,,,,,,,348.082,348.082,348.0823,348.9325,0,0,left,0.3459,,348.9328,349.8331,1,1,right,349.8337,349.8339,,0,,0,349.8339,349.8339,349.8342,351.3344,0,12,12,12,1,0.8,0.2,0.6,0.4,,,,,,,,,,,,,,,0.3919,,0.4,0.6,0.8,0.2,0.4,0.6,0.4,0.6,1,0,,,,,,,,,,,,
,,66fc6d168db73b4d68af6cfb,66fc98a769a3d881bf67bb1d,2024-10-02_01h50.09.186,mdp,2024.2.1,Win32,59.88023952,66fa4ebf79326e780c390304,,,,,,,,,,,,,,,,,,,,,351.3346,351.3346,351.335,352.0684,0,0,left,0.2218,,352.0687,353.1526,1,0,right,353.153,353.1533,,1,,1,353.1533,353.1533,353.1535,354.6538,0,13,13,13,1,0.8,0.2,0.6,0.4,,,,,,,,,,,,,,,0.5757,,0.4,0.6,0.8,0.2,0.8,0.2,0.6,0.4,1,0,,,,,,,,,,,,
,,66fc6d168db73b4d68af6cfb,66fc98a769a3d881bf67bb1d,2024-10-02_01h50.09.186,mdp,2024.2.1,Win32,59.88023952,66fa4ebf79326e780c390304,,,,,,,,,,,,,,,,,,,,,354.654,354.654,354.6543,355.6046,0,0,left,0.4381,,355.605,356.4553,1,1,right,356.4557,356.456,,0,,0,356.456,356.456,356.4563,357.9565,0,14,14,14,1,0.8,0.2,0.6,0.4,,,,,,,,,,,,,,,0.3434,,0.4,0.6,0.8,0.2,0.8,0.2,0.6,0.4,1,0,,,,,,,,,,,,
,,66fc6d168db73b4d68af6cfb,66fc98a769a3d881bf67bb1d,2024-10-02_01h50.09.186,mdp,2024.2.1,Win32,59.88023952,66fa4ebf79326e780c390304,,,,,,,,,,,,,,,,,,,,,357.9567,357.9567,357.9571,358.6404,0,0,left,0.1754,,358.6408,359.758,1,0,right,359.7585,359.7587,,1,,1,359.7587,359.7587,359.759,361.2593,0,15,15,15,1,0.8,0.2,0.6,0.4,,,,,,,,,,,,,,,0.6115,,0.4,0.6,0.8,0.2,0.8,0.2,0.6,0.4,1,0,,,,,,,,,,,,
,,66fc6d168db73b4d68af6cfb,66fc98a769a3d881bf67bb1d,2024-10-02_01h50.09.186,mdp,2024.2.1,Win32,59.88023952,66fa4ebf79326e780c390304,,,,,,,,,,,,,,,,,,,,,361.2595,361.2595,361.2599,362.0433,0,1,left,0.267,,362.0437,362.894,1,1,right,362.8944,362.8946,,1,,0,362.8946,362.8946,362.8948,364.3952,0,16,16,16,1,0.8,0.2,0.6,0.4,,,,,,,,,,,,,,,0.3426,,0.4,0.6,0.8,0.2,0.8,0.2,0.6,0.4,1,0,,,,,,,,,,,,
,,66fc6d168db73b4d68af6cfb,66fc98a769a3d881bf67bb1d,2024-10-02_01h50.09.186,mdp,2024.2.1,Win32,59.88023952,66fa4ebf79326e780c390304,,,,,,,,,,,,,,,,,,,,,364.3954,364.3954,364.3957,365.3126,0,0,left,0.401,,365.3131,366.3135,1,0,right,366.3138,366.3141,,0,,1,366.3141,366.3141,366.3143,367.8147,0,17,17,17,1,0.8,0.2,0.6,0.4,,,,,,,,,,,,,,,0.4825,,0.4,0.6,0.8,0.2,0.8,0.2,0.6,0.4,1,0,,,,,,,,,,,,
,,66fc6d168db73b4d68af6cfb,66fc98a769a3d881bf67bb1d,2024-10-02_01h50.09.186,mdp,2024.2.1,Win32,59.88023952,66fa4ebf79326e780c390304,,,,,,,,,,,,,,,,,,,,,367.8148,367.8148,367.8152,368.7488,0,0,left,0.4295,,368.7493,369.7997,1,1,right,369.8001,369.8003,,0,,0,369.8003,369.8003,369.8005,371.3009,0,18,18,18,1,0.8,0.2,0.6,0.4,,,,,,,,,,,,,,,0.5352,,0.4,0.6,0.8,0.2,0.8,0.2,0.6,0.4,1,0,,,,,,,,,,,,
,,66fc6d168db73b4d68af6cfb,66fc98a769a3d881bf67bb1d,2024-10-02_01h50.09.186,mdp,2024.2.1,Win32,59.88023952,66fa4ebf79326e780c390304,,,,,,,,,,,,,,,,,,,,,371.301,371.3011,371.3014,372.0682,0,0,left,0.263,,372.0686,373.0357,1,0,right,373.0362,373.0364,,0,,1,373.0365,373.0365,373.0367,374.5369,0,19,19,19,1,0.8,0.2,0.6,0.4,,,,,,,,,,,,,,,0.4558,,0.4,0.6,0.8,0.2,0.8,0.2,0.6,0.4,1,0,,,,,,,,,,,,
,,66fc6d168db73b4d68af6cfb,66fc98a769a3d881bf67bb1d,2024-10-02_01h50.09.186,mdp,2024.2.1,Win32,59.88023952,66fa4ebf79326e780c390304,,,,,,,,,,,,,,,,,,,,,374.5371,374.5371,374.5375,375.2876,0,1,left,0.2425,,375.2879,376.1716,1,1,right,376.172,376.1722,,0,,0,376.1722,376.1722,376.1725,377.6728,0,20,20,20,1,0.8,0.2,0.6,0.4,,,,,,,,,,,,,,,0.3779,,0.4,0.6,0.8,0.2,0.8,0.2,0.6,0.4,1,0,,,,,,,,,,,,
,,66fc6d168db73b4d68af6cfb,66fc98a769a3d881bf67bb1d,2024-10-02_01h50.09.186,mdp,2024.2.1,Win32,59.88023952,66fa4ebf79326e780c390304,,,,,,,,,,,,,,,,,,,,,377.673,377.673,377.6734,378.5736,0,0,left,0.3947,,378.574,379.7079,1,0,right,379.7082,379.7085,,0,,1,379.7085,379.7085,379.7086,381.2092,0,21,21,21,1,0.8,0.2,0.6,0.4,,,,,,,,,,,,,,,0.6285,,0.4,0.6,0.8,0.2,0.8,0.2,0.6,0.4,1,0,,,,,,,,,,,,
,,66fc6d168db73b4d68af6cfb,66fc98a769a3d881bf67bb1d,2024-10-02_01h50.09.186,mdp,2024.2.1,Win32,59.88023952,66fa4ebf79326e780c390304,,,,,,,,,,,,,,,,,,,,,381.2093,381.2093,381.2096,381.9764,0,0,left,0.2577,,381.9768,383.1274,1,1,right,383.1279,383.1281,,0,,0,383.1282,383.1282,383.1283,384.6286,0,22,22,22,1,0.8,0.2,0.6,0.4,,,,,,,,,,,,,,,0.635,,0.4,0.6,0.8,0.2,0.4,0.6,0.2,0.8,1,0,,,,,,,,,,,,
,,66fc6d168db73b4d68af6cfb,66fc98a769a3d881bf67bb1d,2024-10-02_01h50.09.186,mdp,2024.2.1,Win32,59.88023952,66fa4ebf79326e780c390304,,,,,,,,,,,,,,,,,,,,,384.6288,384.6288,384.6291,385.546,1,0,right,0.407,,385.5464,386.8638,0,1,left,386.8641,386.8643,,1,,0,386.8644,386.8644,386.8646,388.365,0,23,23,23,1,0.8,0.2,0.6,0.4,,,,,,,,,,,,,,,0.8092,,0.2,0.8,0.6,0.4,0.4,0.6,0.2,0.8,1,0,,,,,,,,,,,,
,,66fc6d168db73b4d68af6cfb,66fc98a769a3d881bf67bb1d,2024-10-02_01h50.09.186,mdp,2024.2.1,Win32,59.88023952,66fa4ebf79326e780c390304,,,,,,,,,,,,,,,,,,,,,388.3652,388.3652,388.3656,389.2824,1,0,right,0.4004,,389.2829,390.1832,1,1,right,390.1836,390.1838,,1,,0,390.1838,390.1838,390.1841,391.6845,0,24,24,24,1,0.8,0.2,0.6,0.4,,,,,,,,,,,,,,,0.3921,,0.2,0.8,0.6,0.4,0.4,0.6,0.2,0.8,1,0,,,,,,,,,,,,
,,66fc6d168db73b4d68af6cfb,66fc98a769a3d881bf67bb1d,2024-10-02_01h50.09.186,mdp,2024.2.1,Win32,59.88023952,66fa4ebf79326e780c390304,,,,,,,,,,,,,,,,,,,,,391.6846,391.6846,391.6851,392.6353,1,0,right,0.4335,,392.6357,393.4526,1,1,right,393.4529,393.4532,,1,,0,393.4532,393.4532,393.4535,394.9538,0,25,25,25,1,0.8,0.2,0.6,0.4,,,,,,,,,,,,,,,0.3118,,0.2,0.8,0.6,0.4,0.2,0.8,0.4,0.6,1,0,,,,,,,,,,,,
,,66fc6d168db73b4d68af6cfb,66fc98a769a3d881bf67bb1d,2024-10-02_01h50.09.186,mdp,2024.2.1,Win32,59.88023952,66fa4ebf79326e780c390304,,,,,,,,,,,,,,,,,,,,,394.954,394.954,394.9544,395.7711,0,0,left,0.2999,,395.7716,396.6551,1,1,right,396.6556,396.6558,,0,,0,396.6558,396.6558,396.656,398.1565,0,26,26,26,1,0.8,0.2,0.6,0.4,,,,,,,,,,,,,,,0.3675,,0.2,0.8,0.6,0.4,0.2,0.8,0.4,0.6,1,0,,,,,,,,,,,,
,,66fc6d168db73b4d68af6cfb,66fc98a769a3d881bf67bb1d,2024-10-02_01h50.09.186,mdp,2024.2.1,Win32,59.88023952,66fa4ebf79326e780c390304,,,,,,,,,,,,,,,,,,,,,398.1566,398.1566,398.157,399.641,0,0,left,0.9679,,399.6414,400.9254,0,0,left,400.9259,400.9261,,1,,1,400.9262,400.9262,400.9264,402.4266,0,27,27,27,1,0.8,0.2,0.6,0.4,,,,,,,,,,,,,,,0.7778,,0.2,0.8,0.6,0.4,0.2,0.8,0.4,0.6,1,0,,,,,,,,,,,,
,,66fc6d168db73b4d68af6cfb,66fc98a769a3d881bf67bb1d,2024-10-02_01h50.09.186,mdp,2024.2.1,Win32,59.88023952,66fa4ebf79326e780c390304,,,,,,,,,,,,,,,,,,,,,402.4267,402.4267,402.4271,403.5442,0,0,left,0.6003,,403.5447,404.4116,0,1,left,404.4121,404.4123,,1,,0,404.4123,404.4123,404.4126,405.9128,0,28,28,28,1,0.8,0.2,0.6,0.4,,,,,,,,,,,,,,,0.3549,,0.2,0.8,0.6,0.4,0.2,0.8,0.4,0.6,1,0,,,,,,,,,,,,
,,66fc6d168db73b4d68af6cfb,66fc98a769a3d881bf67bb1d,2024-10-02_01h50.09.186,mdp,2024.2.1,Win32,59.88023952,66fa4ebf79326e780c390304,,,,,,,,,,,,,,,,,,,,,405.913,405.913,405.9134,406.4967,0,1,left,0.0664,,406.4971,407.2806,0,1,left,407.2811,407.2813,,1,,0,407.2813,407.2813,407.2816,408.7818,0,29,29,29,1,0.8,0.2,0.6,0.4,,,,,,,,,,,,,,,0.2652,,0.2,0.8,0.6,0.4,0.2,0.8,0.4,0.6,1,0,,,,,,,,,,,,
,,66fc6d168db73b4d68af6cfb,66fc98a769a3d881bf67bb1d,2024-10-02_01h50.09.186,mdp,2024.2.1,Win32,59.88023952,66fa4ebf79326e780c390304,,,,,,,,,,,,,,,,,,,,,408.782,408.782,408.7825,409.9496,0,0,left,0.6526,,409.9499,411.0338,0,1,left,411.0341,411.0344,,1,,0,411.0344,411.0344,411.0347,412.535,0,30,30,30,1,0.8,0.2,0.6,0.4,,,,,,,,,,,,,,,0.5709,,0.2,0.8,0.6,0.4,0.2,0.8,0.4,0.6,1,0,,,,,,,,,,,,
,,66fc6d168db73b4d68af6cfb,66fc98a769a3d881bf67bb1d,2024-10-02_01h50.09.186,mdp,2024.2.1,Win32,59.88023952,66fa4ebf79326e780c390304,,,,,,,,,,,,,,,,,,,,,412.5352,412.5352,412.5355,413.369,0,0,left,0.3239,,413.3694,414.3532,1,0,right,414.3536,414.3538,,1,,1,414.3539,414.3539,414.354,415.8544,0,31,31,31,1,0.8,0.2,0.6,0.4,,,,,,,,,,,,,,,0.4668,,0.2,0.8,0.6,0.4,0.2,0.8,0.4,0.6,1,0,,,,,,,,,,,,
,,66fc6d168db73b4d68af6cfb,66fc98a769a3d881bf67bb1d,2024-10-02_01h50.09.186,mdp,2024.2.1,Win32,59.88023952,66fa4ebf79326e780c390304,,,,,,,,,,,,,,,,,,,,,415.8546,415.8546,415.855,416.8552,0,0,left,0.4923,,416.8556,417.7225,1,1,right,417.723,417.7232,,0,,0,417.7232,417.7232,417.7234,419.2239,0,32,32,32,1,0.8,0.2,0.6,0.4,,,,,,,,,,,,,,,0.3635,,0.2,0.8,0.6,0.4,0.2,0.8,0.4,0.6,1,0,,,,,,,,,,,,
,,66fc6d168db73b4d68af6cfb,66fc98a769a3d881bf67bb1d,2024-10-02_01h50.09.186,mdp,2024.2.1,Win32,59.88023952,66fa4ebf79326e780c390304,,,,,,,,,,,,,,,,,,,,,419.2241,419.2241,419.2245,420.2079,0,0,left,0.4689,,420.2084,421.0253,1,0,right,421.0258,421.026,,0,,1,421.0261,421.0261,421.0262,422.5266,0,33,33,33,1,0.8,0.2,0.6,0.4,,,,,,,,,,,,,,,0.3063,,0.2,0.8,0.6,0.4,0.2,0.8,0.4,0.6,1,0,,,,,,,,,,,,
,,66fc6d168db73b4d68af6cfb,66fc98a769a3d881bf67bb1d,2024-10-02_01h50.09.186,mdp,2024.2.1,Win32,59.88023952,66fa4ebf79326e780c390304,,,,,,,,,,,,,,,,,,,,,422.5267,422.5267,422.5274,423.3272,0,0,left,0.2919,,423.3276,424.1279,1,0,right,424.1283,424.1285,,0,,1,424.1285,424.1285,424.1288,425.6291,0,34,34,34,1,0.8,0.2,0.6,0.4,,,,,,,,,,,,,,,0.2912,,0.2,0.8,0.6,0.4,0.2,0.8,0.4,0.6,1,0,,,,,,,,,,,,
,,66fc6d168db73b4d68af6cfb,66fc98a769a3d881bf67bb1d,2024-10-02_01h50.09.186,mdp,2024.2.1,Win32,59.88023952,66fa4ebf79326e780c390304,,,,,,,,,,,,,,,,,,,,,425.6293,425.6293,425.6297,426.4464,0,0,left,0.3,,426.4469,427.3138,1,0,right,427.3142,427.3145,,0,,1,427.3145,427.3145,427.3147,428.8151,0,35,35,35,1,0.8,0.2,0.6,0.4,,,,,,,,,,,,,,,0.3636,,0.2,0.8,0.6,0.4,0.2,0.8,0.4,0.6,1,0,,,,,,,,,,,,
,,66fc6d168db73b4d68af6cfb,66fc98a769a3d881bf67bb1d,2024-10-02_01h50.09.186,mdp,2024.2.1,Win32,59.88023952,66fa4ebf79326e780c390304,,,,,,,,,,,,,,,,,,,,,428.8153,428.8153,428.8157,429.6491,0,0,left,0.3173,,429.6496,430.4998,1,0,right,430.5003,430.5005,,0,,1,430.5005,430.5005,430.5008,432.0011,0,36,36,36,1,0.8,0.2,0.6,0.4,,,,,,,,,,,,,,,0.3443,,0.2,0.8,0.6,0.4,0.2,0.8,0.4,0.6,1,0,,,,,,,,,,,,
,,66fc6d168db73b4d68af6cfb,66fc98a769a3d881bf67bb1d,2024-10-02_01h50.09.186,mdp,2024.2.1,Win32,59.88023952,66fa4ebf79326e780c390304,,,,,,,,,,,,,,,,,,,,,432.0012,432.0013,432.0016,432.8183,0,1,left,0.3131,,432.8188,433.5858,1,0,right,433.5863,433.5867,,1,,1,433.5867,433.5867,433.5869,435.087,0,37,37,37,1,0.8,0.2,0.6,0.4,,,,,,,,,,,,,,,0.2488,,0.2,0.8,0.6,0.4,0.2,0.8,0.4,0.6,1,0,,,,,,,,,,,,
,,66fc6d168db73b4d68af6cfb,66fc98a769a3d881bf67bb1d,2024-10-02_01h50.09.186,mdp,2024.2.1,Win32,59.88023952,66fa4ebf79326e780c390304,,,,,,,,,,,,,,,,,,,,,435.0871,435.0871,435.0875,435.9043,0,0,left,0.3063,,435.9046,436.8384,1,0,right,436.8388,436.839,,1,,1,436.839,436.839,436.8392,438.3396,0,38,38,38,1,0.8,0.2,0.6,0.4,,,,,,,,,,,,,,,0.4245,,0.2,0.8,0.6,0.4,0.2,0.8,0.4,0.6,1,0,,,,,,,,,,,,
,,66fc6d168db73b4d68af6cfb,66fc98a769a3d881bf67bb1d,2024-10-02_01h50.09.186,mdp,2024.2.1,Win32,59.88023952,66fa4ebf79326e780c390304,,,,,,,,,,,,,,,,,,,,,438.3397,438.3397,438.3401,439.3739,0,1,left,0.5184,,439.3743,440.3913,1,1,right,440.3918,440.392,,0,,0,440.392,440.392,440.3922,441.8925,0,39,39,39,1,0.8,0.2,0.6,0.4,,,,,,,,,,,,,,,0.498,,0.2,0.8,0.6,0.4,0.2,0.8,0.4,0.6,1,0,,,,,,,,,,,,
,,66fc6d168db73b4d68af6cfb,66fc98a769a3d881bf67bb1d,2024-10-02_01h50.09.186,mdp,2024.2.1,Win32,59.88023952,66fa4ebf79326e780c390304,,,,,,,,,,,,,,,,,,,,,441.8927,441.8927,441.893,442.9101,0,0,left,0.501,,442.9104,443.744,1,0,right,443.7445,443.7447,,1,,1,443.7448,443.7448,443.745,445.2453,0,40,40,40,1,0.8,0.2,0.6,0.4,,,,,,,,,,,,,,,0.3213,,0.8,0.2,0.2,0.8,0.2,0.8,0.4,0.6,1,0,,,,,,,,,,,,
,,66fc6d168db73b4d68af6cfb,66fc98a769a3d881bf67bb1d,2024-10-02_01h50.09.186,mdp,2024.2.1,Win32,59.88023952,66fa4ebf79326e780c390304,,,,,,,,,,,,,,,,,,,,,445.2455,445.2455,445.2458,445.8458,0,1,left,0.0841,,445.8462,446.6465,1,0,right,446.6469,446.6472,,0,,1,446.6472,446.6472,446.6475,448.1477,0,41,41,41,1,0.8,0.2,0.6,0.4,,,,,,,,,,,,,,,0.2815,,0.8,0.2,0.2,0.8,0.2,0.8,0.4,0.6,1,0,,,,,,,,,,,,
,,66fc6d168db73b4d68af6cfb,66fc98a769a3d881bf67bb1d,2024-10-02_01h50.09.186,mdp,2024.2.1,Win32,59.88023952,66fa4ebf79326e780c390304,,,,,,,,,,,,,,,,,,,,,448.1479,448.1479,448.1482,449.2153,0,0,left,0.5582,,449.2157,450.1994,1,1,right,450.1999,450.2001,,1,,0,450.2001,450.2001,450.2003,451.7007,0,42,42,42,1,0.8,0.2,0.6,0.4,,,,,,,,,,,,,,,0.4666,,0.8,0.2,0.2,0.8,0.2,0.8,0.4,0.6,1,0,,,,,,,,,,,,
,,66fc6d168db73b4d68af6cfb,66fc98a769a3d881bf67bb1d,2024-10-02_01h50.09.186,mdp,2024.2.1,Win32,59.88023952,66fa4ebf79326e780c390304,,,,,,,,,,,,,,,,,,,,,451.7008,451.7009,451.7012,452.5681,0,0,left,0.348,,452.5685,453.4188,1,1,right,453.4191,453.4194,,0,,0,453.4194,453.4195,453.4197,454.92,0,43,43,43,1,0.8,0.2,0.6,0.4,,,,,,,,,,,,,,,0.3379,,0.8,0.2,0.2,0.8,0.2,0.8,0.4,0.6,1,0,,,,,,,,,,,,
,,66fc6d168db73b4d68af6cfb,66fc98a769a3d881bf67bb1d,2024-10-02_01h50.09.186,mdp,2024.2.1,Win32,59.88023952,66fa4ebf79326e780c390304,,,,,,,,,,,,,,,,,,,,,454.9202,454.9202,454.9205,456.3378,0,0,left,0.9031,,456.3382,457.1385,0,0,left,457.1389,457.1391,,0,,1,457.1392,457.1392,457.1393,458.6398,0,44,44,44,1,0.8,0.2,0.6,0.4,,,,,,,,,,,,,,,0.2871,,0.8,0.2,0.2,0.8,0.2,0.8,0.4,0.6,1,0,,,,,,,,,,,,
,,66fc6d168db73b4d68af6cfb,66fc98a769a3d881bf67bb1d,2024-10-02_01h50.09.186,mdp,2024.2.1,Win32,59.88023952,66fa4ebf79326e780c390304,,,,,,,,,,,,,,,,,,,,,458.6399,458.6399,458.6403,459.4405,0,0,left,0.2819,,459.4408,460.2578,0,0,left,460.2581,460.2584,,0,,1,460.2584,460.2584,460.2587,461.7591,0,45,45,45,1,0.8,0.2,0.6,0.4,,,,,,,,,,,,,,,0.3052,,0.8,0.2,0.2,0.8,0.2,0.8,0.4,0.6,1,0,,,,,,,,,,,,
,,66fc6d168db73b4d68af6cfb,66fc98a769a3d881bf67bb1d,2024-10-02_01h50.09.186,mdp,2024.2.1,Win32,59.88023952,66fa4ebf79326e780c390304,,,,,,,,,,,,,,,,,,,,,461.7593,461.7593,461.7596,462.5764,0,0,left,0.301,,462.5768,463.3437,0,0,left,463.3441,463.3443,,0,,1,463.3444,463.3444,463.3445,464.8449,0,46,46,46,1,0.8,0.2,0.6,0.4,,,,,,,,,,,,,,,0.2571,,0.8,0.2,0.2,0.8,0.2,0.8,0.4,0.6,1,0,,,,,,,,,,,,
,,66fc6d168db73b4d68af6cfb,66fc98a769a3d881bf67bb1d,2024-10-02_01h50.09.186,mdp,2024.2.1,Win32,59.88023952,66fa4ebf79326e780c390304,,,,,,,,,,,,,,,,,,,,,464.845,464.845,464.8455,465.6622,0,0,left,0.3084,,465.6627,466.5129,0,0,left,466.5132,466.5135,,0,,1,466.5135,466.5135,466.5136,468.0141,0,47,47,47,1,0.8,0.2,0.6,0.4,,,,,,,,,,,,,,,0.3467,,0.8,0.2,0.2,0.8,0.2,0.8,0.4,0.6,1,0,,,,,,,,,,,,
,,66fc6d168db73b4d68af6cfb,66fc98a769a3d881bf67bb1d,2024-10-02_01h50.09.186,mdp,2024.2.1,Win32,59.88023952,66fa4ebf79326e780c390304,,,,,,,,,,,,,,,,,,,,,468.0143,468.0143,468.0147,468.5979,0,0,left,0.0748,,468.5984,469.3485,0,0,left,469.349,469.3492,,1,,1,469.3493,469.3493,469.3494,470.8499,0,48,48,48,1,0.8,0.2,0.6,0.4,,,,,,,,,,,,,,,0.2432,,0.8,0.2,0.2,0.8,0.2,0.8,0.4,0.6,1,0,,,,,,,,,,,,
,,66fc6d168db73b4d68af6cfb,66fc98a769a3d881bf67bb1d,2024-10-02_01h50.09.186,mdp,2024.2.1,Win32,59.88023952,66fa4ebf79326e780c390304,,,,,,,,,,,,,,,,,,,,,470.85,470.85,470.8503,471.9007,0,0,left,0.5349,,471.9011,472.7514,0,1,left,472.7518,472.7521,,0,,0,472.7521,472.7521,472.7523,474.2527,0,49,49,49,1,0.8,0.2,0.6,0.4,,,,,,,,,,,,,,,0.3406,,0.8,0.2,0.2,0.8,0.2,0.8,0.4,0.6,1,0,,,,,,,,,,,,
,,66fc6d168db73b4d68af6cfb,66fc98a769a3d881bf67bb1d,2024-10-02_01h50.09.186,mdp,2024.2.1,Win32,59.88023952,66fa4ebf79326e780c390304,,,,,,,,,,,,,,,,,,,,,,,,,,,,,,,,,,,,,,,,,,,,,,,,,,,,,,,,474.2527,532.7676,0,1,1,4,1,imgs/goat.png,imgs/elephant.png,imgs/kangaroo.png,imgs/bear.png,imgs/lion.png,,,,,,,,,,,,,,,,,,,,,,,,
,,66fc6d168db73b4d68af6cfb,66fc98a769a3d881bf67bb1d,2024-10-02_01h50.09.186,mdp,2024.2.1,Win32,59.88023952,66fa4ebf79326e780c390304,,,,,,,,,,,,,,3,seqs/st3seq12.csv,532.7681,534.6359,space,1.36,,534.6386,534.6386,534.6389,536.4541,0,0,left,1.2797,,536.4545,537.7051,0,0,left,537.7056,538.6058,0,1,left,0,538.6059,538.6059,538.6062,540.107,0,0,0,0,1,0.8,0.2,0.4,0.6,,,,,,,,,,,,,,,0.7342,,0.6,0.4,0.6,0.4,0.6,0.4,0.2,0.8,,,0.3884,,0.2,0.8,0.8,0.2,0.8,0.2,0.2,0.8,1,0
,,66fc6d168db73b4d68af6cfb,66fc98a769a3d881bf67bb1d,2024-10-02_01h50.09.186,mdp,2024.2.1,Win32,59.88023952,66fa4ebf79326e780c390304,,,,,,,,,,,,,,,,,,,,,540.1072,540.1072,540.1076,540.9078,0,0,left,0.2926,,540.9082,541.675,0,1,left,541.6754,542.7592,0,0,left,1,542.7593,542.7593,542.7597,544.2604,0,1,1,1,1,0.8,0.2,0.4,0.6,,,,,,,,,,,,,,,0.2593,,0.6,0.4,0.6,0.4,0.6,0.4,0.2,0.8,,,0.5776,,0.2,0.8,0.8,0.2,0.8,0.2,0.2,0.8,1,0
,,66fc6d168db73b4d68af6cfb,66fc98a769a3d881bf67bb1d,2024-10-02_01h50.09.186,mdp,2024.2.1,Win32,59.88023952,66fa4ebf79326e780c390304,,,,,,,,,,,,,,,,,,,,,544.2607,544.2607,544.261,544.8943,0,0,left,0.1222,,544.8947,546.2121,1,1,right,546.2125,547.4966,0,0,left,1,547.4966,547.4966,547.497,548.9978,0,2,2,2,1,0.8,0.2,0.4,0.6,,,,,,,,,,,,,,,0.8002,,0.6,0.4,0.6,0.4,0.6,0.4,0.2,0.8,,,0.7708,,0.2,0.8,0.8,0.2,0.8,0.2,0.2,0.8,1,0
,,66fc6d168db73b4d68af6cfb,66fc98a769a3d881bf67bb1d,2024-10-02_01h50.09.186,mdp,2024.2.1,Win32,59.88023952,66fa4ebf79326e780c390304,,,,,,,,,,,,,,,,,,,,,548.9979,548.9979,548.9983,549.8151,0,0,left,0.3129,,549.8154,550.8659,1,0,right,550.8664,552.5673,1,0,right,1,552.5674,552.5674,552.5677,554.0685,0,3,3,3,1,0.8,0.2,0.4,0.6,,,,,,,,,,,,,,,0.544,,0.6,0.4,0.6,0.4,0.6,0.4,0.2,0.8,,,1.1954,,0.2,0.8,0.8,0.2,0.8,0.2,0.2,0.8,1,0
,,66fc6d168db73b4d68af6cfb,66fc98a769a3d881bf67bb1d,2024-10-02_01h50.09.186,mdp,2024.2.1,Win32,59.88023952,66fa4ebf79326e780c390304,,,,,,,,,,,,,,,,,,,,,554.0687,554.0688,554.0691,554.9026,0,0,left,0.3286,,554.903,556.2037,1,0,right,556.2041,557.2212,1,0,right,1,557.2212,557.2212,557.2216,558.7224,0,4,4,4,1,0.8,0.2,0.4,0.6,,,,,,,,,,,,,,,0.7924,,0.6,0.4,0.6,0.4,0.6,0.4,0.2,0.8,,,0.5072,,0.2,0.8,0.8,0.2,0.8,0.2,0.2,0.8,1,0
,,66fc6d168db73b4d68af6cfb,66fc98a769a3d881bf67bb1d,2024-10-02_01h50.09.186,mdp,2024.2.1,Win32,59.88023952,66fa4ebf79326e780c390304,,,,,,,,,,,,,,,,,,,,,558.7227,558.7227,558.723,559.4397,0,0,left,0.212,,559.4401,560.5407,1,1,right,560.5411,561.7416,0,0,left,1,561.7417,561.7417,561.742,563.2429,0,5,5,5,1,0.8,0.2,0.4,0.6,,,,,,,,,,,,,,,0.5912,,0.8,0.2,0.2,0.8,0.6,0.4,0.2,0.8,,,0.6821,,0.2,0.8,0.8,0.2,0.8,0.2,0.2,0.8,1,0
,,66fc6d168db73b4d68af6cfb,66fc98a769a3d881bf67bb1d,2024-10-02_01h50.09.186,mdp,2024.2.1,Win32,59.88023952,66fa4ebf79326e780c390304,,,,,,,,,,,,,,,,,,,,,563.243,563.243,563.2434,564.0601,0,0,left,0.3084,,564.0605,564.961,1,0,right,564.9614,565.845,1,1,right,0,565.845,565.845,565.8454,567.3462,0,6,6,6,1,0.8,0.2,0.4,0.6,,,,,,,,,,,,,,,0.3859,,0.8,0.2,0.2,0.8,0.6,0.4,0.2,0.8,,,0.3653,,0.2,0.8,0.8,0.2,0.8,0.2,0.2,0.8,1,0
,,66fc6d168db73b4d68af6cfb,66fc98a769a3d881bf67bb1d,2024-10-02_01h50.09.186,mdp,2024.2.1,Win32,59.88023952,66fa4ebf79326e780c390304,,,,,,,,,,,,,,,,,,,,,567.3464,567.3464,567.3467,568.2136,0,0,left,0.3498,,568.214,569.1144,1,1,right,569.1147,570.1819,0,0,left,1,570.1819,570.1819,570.1824,571.6832,0,7,7,7,1,0.8,0.2,0.4,0.6,,,,,,,,,,,,,,,0.3928,,0.8,0.2,0.2,0.8,0.6,0.4,0.2,0.8,,,0.5541,,0.2,0.8,0.8,0.2,0.8,0.2,0.2,0.8,1,0
,,66fc6d168db73b4d68af6cfb,66fc98a769a3d881bf67bb1d,2024-10-02_01h50.09.186,mdp,2024.2.1,Win32,59.88023952,66fa4ebf79326e780c390304,,,,,,,,,,,,,,,,,,,,,571.6833,571.6833,571.6838,572.5005,0,1,left,0.3058,,572.5009,574.4021,1,1,right,574.4024,575.4863,0,0,left,1,575.4863,575.4863,575.4867,576.9874,0,8,8,8,1,0.8,0.2,0.4,0.6,,,,,,,,,,,,,,,1.3895,,0.2,0.8,0.6,0.4,0.6,0.4,0.2,0.8,,,0.5781,,0.2,0.8,0.8,0.2,0.8,0.2,0.2,0.8,1,0
,,66fc6d168db73b4d68af6cfb,66fc98a769a3d881bf67bb1d,2024-10-02_01h50.09.186,mdp,2024.2.1,Win32,59.88023952,66fa4ebf79326e780c390304,,,,,,,,,,,,,,,,,,,,,576.9877,576.9877,576.988,578.2219,0,0,left,0.7227,,578.2223,579.3394,1,0,right,579.3398,580.4905,1,1,right,0,580.4905,580.4905,580.4909,581.9916,0,9,9,9,1,0.8,0.2,0.4,0.6,,,,,,,,,,,,,,,0.5989,,0.2,0.8,0.6,0.4,0.6,0.4,0.2,0.8,,,0.6407,,0.2,0.8,0.8,0.2,0.8,0.2,0.2,0.8,1,0
,,66fc6d168db73b4d68af6cfb,66fc98a769a3d881bf67bb1d,2024-10-02_01h50.09.186,mdp,2024.2.1,Win32,59.88023952,66fa4ebf79326e780c390304,,,,,,,,,,,,,,,,,,,,,581.9917,581.9917,581.9922,582.8424,0,0,left,0.343,,582.8428,583.8599,1,1,right,583.8603,584.9774,0,0,left,1,584.9774,584.9774,584.9779,586.4786,0,10,10,10,1,0.8,0.2,0.4,0.6,,,,,,,,,,,,,,,0.5006,,0.2,0.8,0.6,0.4,0.6,0.4,0.2,0.8,,,0.6001,,0.8,0.2,0.4,0.6,0.8,0.2,0.2,0.8,1,0
,,66fc6d168db73b4d68af6cfb,66fc98a769a3d881bf67bb1d,2024-10-02_01h50.09.186,mdp,2024.2.1,Win32,59.88023952,66fa4ebf79326e780c390304,,,,,,,,,,,,,,,,,,,,,586.4788,586.4788,586.4793,587.3627,0,0,left,0.3656,,587.3632,588.5137,1,0,right,588.5141,590.7322,0,1,left,0,590.7322,590.7322,590.7327,592.2334,0,11,11,11,1,0.8,0.2,0.4,0.6,,,,,,,,,,,,,,,0.6433,,0.2,0.8,0.6,0.4,0.6,0.4,0.2,0.8,,,1.7066,,0.8,0.2,0.4,0.6,0.8,0.2,0.2,0.8,1,0
,,66fc6d168db73b4d68af6cfb,66fc98a769a3d881bf67bb1d,2024-10-02_01h50.09.186,mdp,2024.2.1,Win32,59.88023952,66fa4ebf79326e780c390304,,,,,,,,,,,,,,,,,,,,,592.2336,592.2336,592.2339,593.1843,0,0,left,0.4359,,593.1847,594.4686,1,1,right,594.4691,595.4528,0,0,left,1,595.4529,595.4529,595.4533,596.954,0,12,12,12,1,0.8,0.2,0.4,0.6,,,,,,,,,,,,,,,0.7737,,0.2,0.8,0.6,0.4,0.6,0.4,0.2,0.8,,,0.4675,,0.8,0.2,0.4,0.6,0.8,0.2,0.2,0.8,1,0
,,66fc6d168db73b4d68af6cfb,66fc98a769a3d881bf67bb1d,2024-10-02_01h50.09.186,mdp,2024.2.1,Win32,59.88023952,66fa4ebf79326e780c390304,,,,,,,,,,,,,,,,,,,,,596.9542,596.9542,596.9546,597.8214,0,1,left,0.3556,,597.8218,599.3226,1,1,right,599.323,600.4235,0,1,left,0,600.4236,600.4236,600.4239,601.9248,0,13,13,13,1,0.8,0.2,0.4,0.6,,,,,,,,,,,,,,,0.9905,,0.2,0.8,0.6,0.4,0.6,0.4,0.2,0.8,,,0.5872,,0.8,0.2,0.4,0.6,0.8,0.2,0.2,0.8,1,0
,,66fc6d168db73b4d68af6cfb,66fc98a769a3d881bf67bb1d,2024-10-02_01h50.09.186,mdp,2024.2.1,Win32,59.88023952,66fa4ebf79326e780c390304,,,,,,,,,,,,,,,,,,,,,601.9249,601.9249,601.9253,602.8422,0,0,left,0.4005,,602.8426,603.9931,1,0,right,603.9936,605.2609,1,1,right,0,605.2609,605.2609,605.2613,606.7621,0,14,14,14,1,0.8,0.2,0.4,0.6,,,,,,,,,,,,,,,0.6333,,0.2,0.8,0.6,0.4,0.6,0.4,0.2,0.8,,,0.7488,,0.8,0.2,0.4,0.6,0.8,0.2,0.2,0.8,1,0
,,66fc6d168db73b4d68af6cfb,66fc98a769a3d881bf67bb1d,2024-10-02_01h50.09.186,mdp,2024.2.1,Win32,59.88023952,66fa4ebf79326e780c390304,,,,,,,,,,,,,,,,,,,,,606.7623,606.7623,606.7626,607.6295,0,0,left,0.3638,,607.6298,608.5303,1,0,right,608.5307,609.6312,1,0,right,1,609.6313,609.6313,609.6316,611.1324,0,15,15,15,1,0.8,0.2,0.4,0.6,,,,,,,,,,,,,,,0.3848,,0.2,0.8,0.6,0.4,0.6,0.4,0.2,0.8,,,0.5952,,0.8,0.2,0.4,0.6,0.8,0.2,0.2,0.8,1,0
,,66fc6d168db73b4d68af6cfb,66fc98a769a3d881bf67bb1d,2024-10-02_01h50.09.186,mdp,2024.2.1,Win32,59.88023952,66fa4ebf79326e780c390304,,,,,,,,,,,,,,,,,,,,,611.1326,611.1326,611.1329,611.9164,0,1,left,0.2725,,611.9168,613.301,1,0,right,613.3014,614.235,0,0,left,1,614.235,614.235,614.2354,615.7361,0,16,16,16,1,0.6,0.4,0.6,0.4,,,,,,,,,,,,,,,0.8711,,0.2,0.8,0.6,0.4,0.6,0.4,0.2,0.8,,,0.417,,0.8,0.2,0.4,0.6,0.8,0.2,0.2,0.8,1,0
,,66fc6d168db73b4d68af6cfb,66fc98a769a3d881bf67bb1d,2024-10-02_01h50.09.186,mdp,2024.2.1,Win32,59.88023952,66fa4ebf79326e780c390304,,,,,,,,,,,,,,,,,,,,,615.7363,615.7363,615.7367,616.737,0,1,left,0.4851,,616.7375,617.6878,1,1,right,617.6882,618.822,0,0,left,1,618.8221,618.8221,618.8225,620.3233,0,17,17,17,1,0.6,0.4,0.6,0.4,,,,,,,,,,,,,,,0.436,,0.2,0.8,0.6,0.4,0.6,0.4,0.2,0.8,,,0.6193,,0.8,0.2,0.4,0.6,0.8,0.2,0.2,0.8,1,0
,,66fc6d168db73b4d68af6cfb,66fc98a769a3d881bf67bb1d,2024-10-02_01h50.09.186,mdp,2024.2.1,Win32,59.88023952,66fa4ebf79326e780c390304,,,,,,,,,,,,,,,,,,,,,620.3235,620.3235,620.3238,621.3408,0,0,left,0.5,,621.3413,622.5251,1,1,right,622.5255,623.626,0,0,left,1,623.626,623.626,623.6265,625.1273,0,18,18,18,1,0.6,0.4,0.6,0.4,,,,,,,,,,,,,,,0.6785,,0.2,0.8,0.6,0.4,0.6,0.4,0.2,0.8,,,0.5913,,0.8,0.2,0.4,0.6,0.8,0.2,0.2,0.8,1,0
,,66fc6d168db73b4d68af6cfb,66fc98a769a3d881bf67bb1d,2024-10-02_01h50.09.186,mdp,2024.2.1,Win32,59.88023952,66fa4ebf79326e780c390304,,,,,,,,,,,,,,,,,,,,,625.1275,625.1275,625.1278,626.0447,0,0,left,0.4121,,626.0451,627.3792,1,1,right,627.3796,628.3967,0,1,left,0,628.3967,628.3967,628.3971,629.8979,0,19,19,19,1,0.6,0.4,0.6,0.4,,,,,,,,,,,,,,,0.8167,,0.2,0.8,0.6,0.4,0.6,0.4,0.2,0.8,,,0.5057,,0.2,0.8,0.2,0.8,0.8,0.2,0.2,0.8,1,0
,,66fc6d168db73b4d68af6cfb,66fc98a769a3d881bf67bb1d,2024-10-02_01h50.09.186,mdp,2024.2.1,Win32,59.88023952,66fa4ebf79326e780c390304,,,,,,,,,,,,,,,,,,,,,629.898,629.898,629.8984,630.6818,0,1,left,0.2688,,630.6823,631.8495,1,1,right,631.85,633.3508,1,1,right,0,633.3508,633.3508,633.3512,634.8519,0,20,20,20,1,0.6,0.4,0.6,0.4,,,,,,,,,,,,,,,0.6487,,0.2,0.8,0.6,0.4,0.6,0.4,0.2,0.8,,,0.9873,,0.2,0.8,0.2,0.8,0.8,0.2,0.2,0.8,1,0
,,66fc6d168db73b4d68af6cfb,66fc98a769a3d881bf67bb1d,2024-10-02_01h50.09.186,mdp,2024.2.1,Win32,59.88023952,66fa4ebf79326e780c390304,,,,,,,,,,,,,,,,,,,,,634.8521,634.8521,634.8525,635.7861,0,1,left,0.4248,,635.7865,637.1205,1,1,right,637.1209,638.0212,0,1,left,0,638.0213,638.0213,638.0217,639.5225,0,21,21,21,1,0.6,0.4,0.6,0.4,,,,,,,,,,,,,,,0.8196,,0.2,0.8,0.6,0.4,0.6,0.4,0.2,0.8,,,0.3962,,0.2,0.8,0.2,0.8,0.8,0.2,0.2,0.8,1,0
,,66fc6d168db73b4d68af6cfb,66fc98a769a3d881bf67bb1d,2024-10-02_01h50.09.186,mdp,2024.2.1,Win32,59.88023952,66fa4ebf79326e780c390304,,,,,,,,,,,,,,,,,,,,,639.5227,639.5227,639.523,640.3899,0,0,left,0.3526,,640.3903,641.6243,1,0,right,641.6247,642.9586,0,1,left,0,642.9587,642.9587,642.9591,644.46,0,22,22,22,1,0.6,0.4,0.6,0.4,,,,,,,,,,,,,,,0.7168,,0.2,0.8,0.6,0.4,0.6,0.4,0.2,0.8,,,0.8264,,0.2,0.8,0.2,0.8,0.8,0.2,0.2,0.8,1,0
,,66fc6d168db73b4d68af6cfb,66fc98a769a3d881bf67bb1d,2024-10-02_01h50.09.186,mdp,2024.2.1,Win32,59.88023952,66fa4ebf79326e780c390304,,,,,,,,,,,,,,,,,,,,,644.4601,644.4601,644.4604,645.2105,0,1,left,0.2323,,645.211,646.7118,0,0,left,646.7122,648.4966,0,0,left,1,648.4967,648.4967,648.4971,649.9979,0,23,23,23,1,0.4,0.6,0.8,0.2,,,,,,,,,,,,,,,0.9836,,0.2,0.8,0.6,0.4,0.6,0.4,0.2,0.8,,,1.2689,,0.2,0.8,0.2,0.8,0.8,0.2,0.2,0.8,1,0
,,66fc6d168db73b4d68af6cfb,66fc98a769a3d881bf67bb1d,2024-10-02_01h50.09.186,mdp,2024.2.1,Win32,59.88023952,66fa4ebf79326e780c390304,,,,,,,,,,,,,,,,,,,,,649.998,649.998,649.9984,650.8319,0,1,left,0.3259,,650.8323,652.0829,0,0,left,652.0834,653.2839,0,1,left,0,653.2839,653.2839,653.2842,654.7851,0,24,24,24,1,0.4,0.6,0.8,0.2,,,,,,,,,,,,,,,0.7337,,0.2,0.8,0.6,0.4,0.6,0.4,0.2,0.8,,,0.6973,,0.2,0.8,0.2,0.8,0.8,0.2,0.2,0.8,1,0
,,66fc6d168db73b4d68af6cfb,66fc98a769a3d881bf67bb1d,2024-10-02_01h50.09.186,mdp,2024.2.1,Win32,59.88023952,66fa4ebf79326e780c390304,,,,,,,,,,,,,,,,,,,,,654.7854,654.7854,654.7857,655.5358,0,0,left,0.2351,,655.5362,656.8368,0,0,left,656.8373,657.9378,0,1,left,0,657.9378,657.9378,657.9381,659.439,0,25,25,25,1,0.4,0.6,0.8,0.2,,,,,,,,,,,,,,,0.7942,,0.8,0.2,0.8,0.2,0.6,0.4,0.2,0.8,,,0.5901,,0.2,0.8,0.2,0.8,0.8,0.2,0.2,0.8,1,0
,,66fc6d168db73b4d68af6cfb,66fc98a769a3d881bf67bb1d,2024-10-02_01h50.09.186,mdp,2024.2.1,Win32,59.88023952,66fa4ebf79326e780c390304,,,,,,,,,,,,,,,,,,,,,659.4391,659.4391,659.4395,660.2897,0,0,left,0.3411,,660.2901,661.3406,1,0,right,661.341,662.6417,0,1,left,0,662.6417,662.6417,662.6421,664.1428,0,26,26,26,1,0.4,0.6,0.8,0.2,,,,,,,,,,,,,,,0.5383,,0.8,0.2,0.8,0.2,0.6,0.4,0.2,0.8,,,0.784,,0.2,0.8,0.2,0.8,0.8,0.2,0.2,0.8,1,0
,,66fc6d168db73b4d68af6cfb,66fc98a769a3d881bf67bb1d,2024-10-02_01h50.09.186,mdp,2024.2.1,Win32,59.88023952,66fa4ebf79326e780c390304,,,,,,,,,,,,,,,,,,,,,664.143,664.143,664.1433,664.9602,0,1,left,0.3091,,664.9606,666.6616,1,1,right,666.6621,668.1127,1,1,right,0,668.1128,668.1128,668.1132,669.614,0,27,27,27,1,0.4,0.6,0.8,0.2,,,,,,,,,,,,,,,1.1935,,0.8,0.2,0.8,0.2,0.6,0.4,0.2,0.8,,,0.9322,,0.2,0.8,0.2,0.8,0.8,0.2,0.2,0.8,1,0
,,66fc6d168db73b4d68af6cfb,66fc98a769a3d881bf67bb1d,2024-10-02_01h50.09.186,mdp,2024.2.1,Win32,59.88023952,66fa4ebf79326e780c390304,,,,,,,,,,,,,,,,,,,,,669.6142,669.6142,669.6146,670.398,0,1,left,0.2775,,670.3984,671.6491,1,1,right,671.6495,672.8167,0,0,left,1,672.8168,672.8168,672.8172,674.3179,0,28,28,28,1,0.4,0.6,0.8,0.2,,,,,,,,,,,,,,,0.742,,0.8,0.2,0.8,0.2,0.6,0.4,0.2,0.8,,,0.6512,,0.2,0.8,0.2,0.8,0.8,0.2,0.2,0.8,1,0
,,66fc6d168db73b4d68af6cfb,66fc98a769a3d881bf67bb1d,2024-10-02_01h50.09.186,mdp,2024.2.1,Win32,59.88023952,66fa4ebf79326e780c390304,,,,,,,,,,,,,,,,,,,,,674.318,674.318,674.3184,675.252,0,0,left,0.4217,,675.2525,676.5697,1,0,right,676.5702,677.6707,0,1,left,0,677.6707,677.6707,677.6711,679.1719,0,29,29,29,1,0.4,0.6,0.8,0.2,,,,,,,,,,,,,,,0.8055,,0.8,0.2,0.8,0.2,0.6,0.4,0.2,0.8,,,0.5911,,0.2,0.8,0.2,0.8,0.8,0.2,0.2,0.8,1,0
,,66fc6d168db73b4d68af6cfb,66fc98a769a3d881bf67bb1d,2024-10-02_01h50.09.186,mdp,2024.2.1,Win32,59.88023952,66fa4ebf79326e780c390304,,,,,,,,,,,,,,,,,,,,,679.1721,679.1721,679.1724,680.056,0,0,left,0.3756,,680.0564,681.0735,1,0,right,681.0739,681.9576,1,1,right,0,681.9576,681.9576,681.958,683.4588,0,30,30,30,1,0.4,0.6,0.8,0.2,,,,,,,,,,,,,,,0.5072,,0.8,0.2,0.8,0.2,0.6,0.4,0.2,0.8,,,0.3783,,0.2,0.8,0.2,0.8,0.8,0.2,0.2,0.8,1,0
,,66fc6d168db73b4d68af6cfb,66fc98a769a3d881bf67bb1d,2024-10-02_01h50.09.186,mdp,2024.2.1,Win32,59.88023952,66fa4ebf79326e780c390304,,,,,,,,,,,,,,,,,,,,,683.459,683.459,683.4593,684.5431,0,1,left,0.5682,,684.5434,686.5114,1,1,right,686.5117,687.4288,0,0,left,1,687.4288,687.4288,687.4292,688.93,0,31,31,31,1,0.4,0.6,0.8,0.2,,,,,,,,,,,,,,,1.458,,0.8,0.2,0.8,0.2,0.6,0.4,0.2,0.8,,,0.41,,0.2,0.8,0.2,0.8,0.8,0.2,0.2,0.8,1,0
,,66fc6d168db73b4d68af6cfb,66fc98a769a3d881bf67bb1d,2024-10-02_01h50.09.186,mdp,2024.2.1,Win32,59.88023952,66fa4ebf79326e780c390304,,,,,,,,,,,,,,,,,,,,,688.9302,688.9302,688.9305,689.7807,0,1,left,0.3367,,689.7811,691.3153,1,1,right,691.3157,692.483,0,0,left,1,692.483,692.483,692.4834,693.9841,0,32,32,32,1,0.4,0.6,0.8,0.2,,,,,,,,,,,,,,,1.0225,,0.8,0.2,0.8,0.2,0.6,0.4,0.2,0.8,,,0.656,,0.2,0.8,0.2,0.8,0.8,0.2,0.2,0.8,1,0
,,66fc6d168db73b4d68af6cfb,66fc98a769a3d881bf67bb1d,2024-10-02_01h50.09.186,mdp,2024.2.1,Win32,59.88023952,66fa4ebf79326e780c390304,,,,,,,,,,,,,,,,,,,,,693.9843,693.9843,693.9846,694.935,0,0,left,0.4426,,694.9355,696.8532,0,0,left,696.8537,698.7049,0,1,left,0,698.7049,698.7049,698.7052,700.206,0,33,33,33,1,0.4,0.6,0.8,0.2,,,,,,,,,,,,,,,1.4022,,0.8,0.2,0.8,0.2,0.6,0.4,0.2,0.8,,,1.3326,,0.2,0.8,0.2,0.8,0.8,0.2,0.2,0.8,1,0
,,66fc6d168db73b4d68af6cfb,66fc98a769a3d881bf67bb1d,2024-10-02_01h50.09.186,mdp,2024.2.1,Win32,59.88023952,66fa4ebf79326e780c390304,,,,,,,,,,,,,,,,,,,,,700.2061,700.2061,700.2065,701.1568,0,0,left,0.4364,,701.1572,702.6079,1,0,right,702.6083,703.8423,1,1,right,0,703.8423,703.8423,703.8426,705.3436,0,34,34,34,1,0.4,0.6,0.8,0.2,,,,,,,,,,,,,,,0.9424,,0.8,0.2,0.8,0.2,0.6,0.4,0.2,0.8,,,0.731,,0.2,0.8,0.2,0.8,0.8,0.2,0.2,0.8,1,0
,,66fc6d168db73b4d68af6cfb,66fc98a769a3d881bf67bb1d,2024-10-02_01h50.09.186,mdp,2024.2.1,Win32,59.88023952,66fa4ebf79326e780c390304,,,,,,,,,,,,,,,,,,,,,705.3437,705.3437,705.3441,706.0942,1,0,right,0.2433,,706.0946,707.5621,1,1,right,707.5625,708.6129,0,0,left,1,708.6131,708.6131,708.6134,710.1142,0,35,35,35,1,0.4,0.6,0.8,0.2,,,,,,,,,,,,,,,0.9566,,0.8,0.2,0.8,0.2,0.6,0.4,0.2,0.8,,,0.5427,,0.2,0.8,0.2,0.8,0.8,0.2,0.2,0.8,1,0
,,66fc6d168db73b4d68af6cfb,66fc98a769a3d881bf67bb1d,2024-10-02_01h50.09.186,mdp,2024.2.1,Win32,59.88023952,66fa4ebf79326e780c390304,,,,,,,,,,,,,,,,,,,,,710.1143,710.1143,710.1147,710.8815,1,0,right,0.2558,,710.8819,712.0658,1,0,right,712.0661,713.1833,0,1,left,0,713.1835,713.1835,713.1838,714.6846,0,36,36,36,1,0.4,0.6,0.8,0.2,,,,,,,,,,,,,,,0.681,,0.8,0.2,0.8,0.2,0.6,0.4,0.2,0.8,,,0.6067,,0.2,0.8,0.2,0.8,0.8,0.2,0.2,0.8,1,0
,,66fc6d168db73b4d68af6cfb,66fc98a769a3d881bf67bb1d,2024-10-02_01h50.09.186,mdp,2024.2.1,Win32,59.88023952,66fa4ebf79326e780c390304,,,,,,,,,,,,,,,,,,,,,714.6848,714.6848,714.6851,715.7188,1,1,right,0.5173,,715.7192,717.2534,0,1,left,717.2539,718.3544,0,0,left,1,718.3544,718.3544,718.3548,719.8555,0,37,37,37,1,0.4,0.6,0.8,0.2,,,,,,,,,,,,,,,1.0254,,0.8,0.2,0.8,0.2,0.4,0.6,0.4,0.6,,,0.5871,,0.2,0.8,0.2,0.8,0.8,0.2,0.2,0.8,1,0
,,66fc6d168db73b4d68af6cfb,66fc98a769a3d881bf67bb1d,2024-10-02_01h50.09.186,mdp,2024.2.1,Win32,59.88023952,66fa4ebf79326e780c390304,,,,,,,,,,,,,,,,,,,,,719.8557,719.8557,719.8561,720.6562,1,0,right,0.2832,,720.6566,721.6237,0,0,left,721.6241,723.0248,0,0,left,1,723.0249,723.0249,723.0253,724.526,0,38,38,38,1,0.4,0.6,0.8,0.2,,,,,,,,,,,,,,,0.4483,,0.8,0.2,0.8,0.2,0.4,0.6,0.4,0.6,,,0.8827,,0.2,0.8,0.2,0.8,0.8,0.2,0.2,0.8,1,0
,,66fc6d168db73b4d68af6cfb,66fc98a769a3d881bf67bb1d,2024-10-02_01h50.09.186,mdp,2024.2.1,Win32,59.88023952,66fa4ebf79326e780c390304,,,,,,,,,,,,,,,,,,,,,724.5262,724.5262,724.5266,725.4769,1,1,right,0.436,,725.4773,726.5111,0,1,left,726.5114,727.4118,0,1,left,0,727.4118,727.4118,727.4123,728.913,0,39,39,39,1,0.2,0.8,0.2,0.8,,,,,,,,,,,,,,,0.5233,,0.8,0.2,0.8,0.2,0.4,0.6,0.4,0.6,,,0.3932,,0.2,0.8,0.2,0.8,0.8,0.2,0.2,0.8,1,0
,,66fc6d168db73b4d68af6cfb,66fc98a769a3d881bf67bb1d,2024-10-02_01h50.09.186,mdp,2024.2.1,Win32,59.88023952,66fa4ebf79326e780c390304,,,,,,,,,,,,,,,,,,,,,728.9132,728.9132,728.9135,729.7471,1,1,right,0.3269,,729.7474,730.6811,0,0,left,730.6815,731.632,0,1,left,0,731.632,731.632,731.6323,733.1331,0,40,40,40,1,0.2,0.8,0.2,0.8,,,,,,,,,,,,,,,0.4231,,0.8,0.2,0.8,0.2,0.4,0.6,0.4,0.6,,,0.4318,,0.2,0.8,0.2,0.8,0.8,0.2,0.2,0.8,1,0
,,66fc6d168db73b4d68af6cfb,66fc98a769a3d881bf67bb1d,2024-10-02_01h50.09.186,mdp,2024.2.1,Win32,59.88023952,66fa4ebf79326e780c390304,,,,,,,,,,,,,,,,,,,,,733.1333,733.1333,733.1337,733.9339,1,1,right,0.2836,,733.9343,734.9013,0,1,left,734.9017,735.9189,0,0,left,1,735.9189,735.9189,735.9193,737.42,0,41,41,41,1,0.2,0.8,0.2,0.8,,,,,,,,,,,,,,,0.4522,,0.8,0.2,0.8,0.2,0.4,0.6,0.4,0.6,,,0.4984,,0.2,0.8,0.2,0.8,0.6,0.4,0.8,0.2,1,0
,,66fc6d168db73b4d68af6cfb,66fc98a769a3d881bf67bb1d,2024-10-02_01h50.09.186,mdp,2024.2.1,Win32,59.88023952,66fa4ebf79326e780c390304,,,,,,,,,,,,,,,,,,,,,737.4203,737.4203,737.4205,738.2374,1,1,right,0.3018,,738.2377,739.2382,0,1,left,739.2386,740.2558,0,0,left,1,740.2558,740.2558,740.2562,741.757,0,42,42,42,1,0.2,0.8,0.2,0.8,,,,,,,,,,,,,,,0.4919,,0.8,0.2,0.8,0.2,0.4,0.6,0.4,0.6,,,0.5,,0.2,0.8,0.2,0.8,0.8,0.2,0.6,0.4,1,0
,,66fc6d168db73b4d68af6cfb,66fc98a769a3d881bf67bb1d,2024-10-02_01h50.09.186,mdp,2024.2.1,Win32,59.88023952,66fa4ebf79326e780c390304,,,,,,,,,,,,,,,,,,,,,741.7572,741.7572,741.7575,742.5743,1,1,right,0.3081,,742.5747,743.6419,0,1,left,743.6423,744.5759,0,1,left,0,744.576,744.576,744.5764,746.0772,0,43,43,43,1,0.2,0.8,0.2,0.8,,,,,,,,,,,,,,,0.5549,,0.8,0.2,0.8,0.2,0.4,0.6,0.4,0.6,,,0.4167,,0.2,0.8,0.2,0.8,0.8,0.2,0.6,0.4,1,0
,,66fc6d168db73b4d68af6cfb,66fc98a769a3d881bf67bb1d,2024-10-02_01h50.09.186,mdp,2024.2.1,Win32,59.88023952,66fa4ebf79326e780c390304,,,,,,,,,,,,,,,,,,,,,746.0773,746.0773,746.0778,746.9446,1,1,right,0.3566,,746.9451,747.8787,0,1,left,747.8791,748.8962,0,0,left,1,748.8962,748.8962,748.8967,750.3974,0,44,44,44,1,0.2,0.8,0.2,0.8,,,,,,,,,,,,,,,0.4172,,0.8,0.2,0.8,0.2,0.4,0.6,0.4,0.6,,,0.5001,,0.2,0.8,0.2,0.8,0.8,0.2,0.6,0.4,1,0
,,66fc6d168db73b4d68af6cfb,66fc98a769a3d881bf67bb1d,2024-10-02_01h50.09.186,mdp,2024.2.1,Win32,59.88023952,66fa4ebf79326e780c390304,,,,,,,,,,,,,,,,,,,,,750.3976,750.3976,750.3979,751.2648,1,1,right,0.3642,,751.2652,752.1322,0,1,left,752.1327,753.0329,0,0,left,1,753.0329,753.033,753.0333,754.5343,0,45,45,45,1,0.2,0.8,0.2,0.8,,,,,,,,,,,,,,,0.3599,,0.8,0.2,0.8,0.2,0.6,0.4,0.2,0.8,,,0.3972,,0.2,0.8,0.2,0.8,0.8,0.2,0.6,0.4,1,0
,,66fc6d168db73b4d68af6cfb,66fc98a769a3d881bf67bb1d,2024-10-02_01h50.09.186,mdp,2024.2.1,Win32,59.88023952,66fa4ebf79326e780c390304,,,,,,,,,,,,,,,,,,,,,754.5345,754.5345,754.535,755.3849,1,1,right,0.3467,,755.3853,756.3357,0,0,left,756.3361,757.2198,0,1,left,0,757.2198,757.2198,757.2202,758.7211,0,46,46,46,1,0.2,0.8,0.2,0.8,,,,,,,,,,,,,,,0.4317,,0.8,0.2,0.8,0.2,0.6,0.4,0.2,0.8,,,0.376,,0.2,0.8,0.2,0.8,0.8,0.2,0.6,0.4,1,0
,,66fc6d168db73b4d68af6cfb,66fc98a769a3d881bf67bb1d,2024-10-02_01h50.09.186,mdp,2024.2.1,Win32,59.88023952,66fa4ebf79326e780c390304,,,,,,,,,,,,,,,,,,,,,758.7212,758.7213,758.7217,759.5551,1,0,right,0.3203,,759.5554,760.7226,1,0,right,760.7231,762.0404,1,1,right,0,762.0404,762.0404,762.0408,763.5417,0,47,47,47,1,0.2,0.8,0.2,0.8,,,,,,,,,,,,,,,0.6524,,0.8,0.2,0.8,0.2,0.6,0.4,0.2,0.8,,,0.8144,,0.2,0.8,0.2,0.8,0.8,0.2,0.6,0.4,1,0
,,66fc6d168db73b4d68af6cfb,66fc98a769a3d881bf67bb1d,2024-10-02_01h50.09.186,mdp,2024.2.1,Win32,59.88023952,66fa4ebf79326e780c390304,,,,,,,,,,,,,,,,,,,,,763.5418,763.5418,763.5422,764.3256,0,1,left,0.2756,,764.326,765.5767,0,0,left,765.5772,766.861,0,1,left,0,766.861,766.861,766.8614,768.3623,0,48,48,48,1,0.2,0.8,0.2,0.8,,,,,,,,,,,,,,,0.7322,,0.8,0.2,0.8,0.2,0.6,0.4,0.2,0.8,,,0.7685,,0.2,0.8,0.2,0.8,0.8,0.2,0.6,0.4,1,0
,,66fc6d168db73b4d68af6cfb,66fc98a769a3d881bf67bb1d,2024-10-02_01h50.09.186,mdp,2024.2.1,Win32,59.88023952,66fa4ebf79326e780c390304,,,,,,,,,,,,,,,,,,,,,768.3624,768.3624,768.3628,769.2964,0,1,left,0.4215,,769.2968,770.364,1,1,right,770.3644,771.2313,0,0,left,1,771.2313,771.2313,771.2318,772.7326,0,49,49,49,1,0.2,0.8,0.2,0.8,,,,,,,,,,,,,,,0.5527,,0.8,0.2,0.8,0.2,0.6,0.4,0.2,0.8,,,0.355,,0.2,0.8,0.2,0.8,0.8,0.2,0.6,0.4,1,0
,,66fc6d168db73b4d68af6cfb,66fc98a769a3d881bf67bb1d,2024-10-02_01h50.09.186,mdp,2024.2.1,Win32,59.88023952,66fa4ebf79326e780c390304,,,,,,,,,,,,,,,,,,,,,,,,,,,,,,,,,,,,,,,,,,,,,,,,,,,,,,,,772.7327,831.2476,0,2,2,5,1,imgs/giraffe.png,imgs/horse.png,imgs/lion.png,imgs/elephant.png,imgs/rabbit.png,,,,,,,,,,,,,,,,,,,,,,,,
,,66fc6d168db73b4d68af6cfb,66fc98a769a3d881bf67bb1d,2024-10-02_01h50.09.186,mdp,2024.2.1,Win32,59.88023952,66fa4ebf79326e780c390304,,,,,,,,,,,,,,3,seqs/st3seq46.csv,831.2478,832.7656,space,1.0006,,832.7679,832.7679,832.7683,834.2501,0,0,left,0.9585,,834.2505,835.6179,0,0,left,835.6184,836.5186,0,0,left,1,836.5186,836.5186,836.519,838.0198,0,0,0,0,1,0.4,0.6,0.6,0.4,,,,,,,,,,,,,,,0.85,,0.8,0.2,0.6,0.4,0.8,0.2,0.2,0.8,,,0.3861,,0.6,0.4,0.4,0.6,0.8,0.2,0.6,0.4,1,0
,,66fc6d168db73b4d68af6cfb,66fc98a769a3d881bf67bb1d,2024-10-02_01h50.09.186,mdp,2024.2.1,Win32,59.88023952,66fa4ebf79326e780c390304,,,,,,,,,,,,,,,,,,,,,838.0201,838.0201,838.0204,839.1041,0,1,left,0.5707,,839.1046,840.6054,1,0,right,840.6058,841.6062,0,1,left,0,841.6062,841.6062,841.6067,843.1074,0,1,1,1,1,0.4,0.6,0.6,0.4,,,,,,,,,,,,,,,0.9886,,0.8,0.2,0.6,0.4,0.8,0.2,0.2,0.8,,,0.4968,,0.6,0.4,0.4,0.6,0.8,0.2,0.6,0.4,1,0
,,66fc6d168db73b4d68af6cfb,66fc98a769a3d881bf67bb1d,2024-10-02_01h50.09.186,mdp,2024.2.1,Win32,59.88023952,66fa4ebf79326e780c390304,,,,,,,,,,,,,,,,,,,,,843.1075,843.1075,843.1079,843.9915,0,1,left,0.3712,,843.9919,845.5261,0,0,left,845.5264,846.627,0,0,left,1,846.6271,846.6271,846.6275,848.1283,0,2,2,2,1,0.4,0.6,0.6,0.4,,,,,,,,,,,,,,,1.0171,,0.8,0.2,0.6,0.4,0.8,0.2,0.2,0.8,,,0.5839,,0.6,0.4,0.4,0.6,0.6,0.4,0.2,0.8,1,0
,,66fc6d168db73b4d68af6cfb,66fc98a769a3d881bf67bb1d,2024-10-02_01h50.09.186,mdp,2024.2.1,Win32,59.88023952,66fa4ebf79326e780c390304,,,,,,,,,,,,,,,,,,,,,848.1284,848.1284,848.1288,848.8455,0,1,left,0.2003,,848.8459,849.7796,0,1,left,849.78,851.064,1,1,right,0,851.064,851.064,851.0644,852.5652,0,3,3,3,1,0.4,0.6,0.6,0.4,,,,,,,,,,,,,,,0.4248,,0.8,0.2,0.6,0.4,0.8,0.2,0.2,0.8,,,0.7682,,0.6,0.4,0.4,0.6,0.6,0.4,0.2,0.8,1,0
,,66fc6d168db73b4d68af6cfb,66fc98a769a3d881bf67bb1d,2024-10-02_01h50.09.186,mdp,2024.2.1,Win32,59.88023952,66fa4ebf79326e780c390304,,,,,,,,,,,,,,,,,,,,,852.5654,852.5654,852.5657,853.3659,0,1,left,0.2966,,853.3663,854.6003,0,0,left,854.6006,855.551,0,1,left,0,855.5511,855.5511,855.5515,857.0523,0,4,4,4,1,0.4,0.6,0.6,0.4,,,,,,,,,,,,,,,0.7201,,0.8,0.2,0.6,0.4,0.8,0.2,0.2,0.8,,,0.4351,,0.6,0.4,0.4,0.6,0.6,0.4,0.2,0.8,1,0
,,66fc6d168db73b4d68af6cfb,66fc98a769a3d881bf67bb1d,2024-10-02_01h50.09.186,mdp,2024.2.1,Win32,59.88023952,66fa4ebf79326e780c390304,,,,,,,,,,,,,,,,,,,,,857.0525,857.0525,857.0529,857.8529,0,1,left,0.2881,,857.8534,858.7203,0,0,left,858.7208,859.6044,0,1,left,0,859.6045,859.6045,859.6048,861.1055,0,5,5,5,1,0.4,0.6,0.6,0.4,,,,,,,,,,,,,,,0.3593,,0.8,0.2,0.6,0.4,0.8,0.2,0.2,0.8,,,0.3737,,0.6,0.4,0.4,0.6,0.6,0.4,0.2,0.8,1,0
,,66fc6d168db73b4d68af6cfb,66fc98a769a3d881bf67bb1d,2024-10-02_01h50.09.186,mdp,2024.2.1,Win32,59.88023952,66fa4ebf79326e780c390304,,,,,,,,,,,,,,,,,,,,,861.1057,861.1057,861.1062,861.9396,0,1,left,0.3173,,861.94,862.8904,0,0,left,862.8909,863.7911,1,0,right,1,863.7912,863.7912,863.7916,865.2924,0,6,6,6,1,0.4,0.6,0.6,0.4,,,,,,,,,,,,,,,0.4425,,0.8,0.2,0.6,0.4,0.8,0.2,0.2,0.8,,,0.3947,,0.6,0.4,0.4,0.6,0.6,0.4,0.2,0.8,1,0
,,66fc6d168db73b4d68af6cfb,66fc98a769a3d881bf67bb1d,2024-10-02_01h50.09.186,mdp,2024.2.1,Win32,59.88023952,66fa4ebf79326e780c390304,,,,,,,,,,,,,,,,,,,,,865.2926,865.2926,865.2929,866.1765,0,1,left,0.3776,,866.1769,867.1606,1,1,right,867.1611,868.862,1,0,right,1,868.8621,868.8621,868.8625,870.3632,0,7,7,7,1,0.4,0.6,0.6,0.4,,,,,,,,,,,,,,,0.4771,,0.8,0.2,0.6,0.4,0.8,0.2,0.2,0.8,,,1.1828,,0.6,0.4,0.4,0.6,0.6,0.4,0.2,0.8,1,0
,,66fc6d168db73b4d68af6cfb,66fc98a769a3d881bf67bb1d,2024-10-02_01h50.09.186,mdp,2024.2.1,Win32,59.88023952,66fa4ebf79326e780c390304,,,,,,,,,,,,,,,,,,,,,870.3634,870.3634,870.3638,871.2306,0,1,left,0.3542,,871.231,872.098,0,0,left,872.0984,873.0321,1,1,right,0,873.0322,873.0322,873.0325,874.5336,0,8,8,8,1,0.4,0.6,0.6,0.4,,,,,,,,,,,,,,,0.351,,0.8,0.2,0.6,0.4,0.8,0.2,0.2,0.8,,,0.4257,,0.6,0.4,0.4,0.6,0.6,0.4,0.2,0.8,1,0
,,66fc6d168db73b4d68af6cfb,66fc98a769a3d881bf67bb1d,2024-10-02_01h50.09.186,mdp,2024.2.1,Win32,59.88023952,66fa4ebf79326e780c390304,,,,,,,,,,,,,,,,,,,,,874.5339,874.5339,874.5348,875.7845,0,1,left,0.7197,,875.7849,877.4525,1,1,right,877.4529,878.6869,1,1,right,0,878.6869,878.6869,878.6873,880.188,0,9,9,9,1,0.4,0.6,0.6,0.4,,,,,,,,,,,,,,,1.1572,,0.8,0.2,0.6,0.4,0.8,0.2,0.2,0.8,,,0.7183,,0.6,0.4,0.4,0.6,0.6,0.4,0.2,0.8,1,0
,,66fc6d168db73b4d68af6cfb,66fc98a769a3d881bf67bb1d,2024-10-02_01h50.09.186,mdp,2024.2.1,Win32,59.88023952,66fa4ebf79326e780c390304,,,,,,,,,,,,,,,,,,,,,880.1882,880.1882,880.1885,881.4724,1,0,right,0.7695,,881.4729,882.7068,0,0,left,882.7073,883.8411,0,0,left,1,883.8411,883.8411,883.8415,885.3423,0,10,10,10,1,0.4,0.6,0.6,0.4,,,,,,,,,,,,,,,0.7223,,0.8,0.2,0.6,0.4,0.8,0.2,0.2,0.8,,,0.6238,,0.6,0.4,0.4,0.6,0.6,0.4,0.2,0.8,1,0
,,66fc6d168db73b4d68af6cfb,66fc98a769a3d881bf67bb1d,2024-10-02_01h50.09.186,mdp,2024.2.1,Win32,59.88023952,66fa4ebf79326e780c390304,,,,,,,,,,,,,,,,,,,,,885.3426,885.3426,885.343,886.1262,1,0,right,0.279,,886.1266,887.1939,0,0,left,887.1943,888.1113,0,0,left,1,888.1113,888.1113,888.1117,889.6125,0,11,11,11,1,0.4,0.6,0.6,0.4,,,,,,,,,,,,,,,0.5506,,0.6,0.4,0.8,0.2,0.8,0.2,0.2,0.8,,,0.4035,,0.6,0.4,0.4,0.6,0.6,0.4,0.2,0.8,1,0
,,66fc6d168db73b4d68af6cfb,66fc98a769a3d881bf67bb1d,2024-10-02_01h50.09.186,mdp,2024.2.1,Win32,59.88023952,66fa4ebf79326e780c390304,,,,,,,,,,,,,,,,,,,,,889.6127,889.6127,889.613,890.3631,1,1,right,0.2335,,890.3636,892.0312,0,0,left,892.0316,892.9819,0,0,left,1,892.982,892.982,892.9824,894.4832,0,12,12,12,1,0.4,0.6,0.6,0.4,,,,,,,,,,,,,,,1.1597,,0.6,0.4,0.8,0.2,0.8,0.2,0.2,0.8,,,0.4377,,0.6,0.4,0.4,0.6,0.6,0.4,0.2,0.8,1,0
,,66fc6d168db73b4d68af6cfb,66fc98a769a3d881bf67bb1d,2024-10-02_01h50.09.186,mdp,2024.2.1,Win32,59.88023952,66fa4ebf79326e780c390304,,,,,,,,,,,,,,,,,,,,,894.4834,894.4834,894.4838,895.3673,1,0,right,0.3775,,895.3677,896.3347,0,1,left,896.335,897.1521,0,0,left,1,897.1521,897.1521,897.1525,898.6533,0,13,13,13,1,0.4,0.6,0.6,0.4,,,,,,,,,,,,,,,0.4601,,0.6,0.4,0.8,0.2,0.8,0.2,0.2,0.8,,,0.3082,,0.6,0.4,0.4,0.6,0.8,0.2,0.6,0.4,1,0
,,66fc6d168db73b4d68af6cfb,66fc98a769a3d881bf67bb1d,2024-10-02_01h50.09.186,mdp,2024.2.1,Win32,59.88023952,66fa4ebf79326e780c390304,,,,,,,,,,,,,,,,,,,,,898.6535,898.6535,898.6537,899.3206,1,0,right,0.1512,,899.321,900.1712,0,0,left,900.1716,901.1388,0,0,left,1,901.1388,901.1388,901.1392,902.6399,0,14,14,14,1,0.4,0.6,0.6,0.4,,,,,,,,,,,,,,,0.3403,,0.6,0.4,0.8,0.2,0.8,0.2,0.2,0.8,,,0.4552,,0.6,0.4,0.4,0.6,0.8,0.2,0.6,0.4,1,0
,,66fc6d168db73b4d68af6cfb,66fc98a769a3d881bf67bb1d,2024-10-02_01h50.09.186,mdp,2024.2.1,Win32,59.88023952,66fa4ebf79326e780c390304,,,,,,,,,,,,,,,,,,,,,902.6401,902.6401,902.6405,903.474,1,0,right,0.3165,,903.4743,904.3581,0,0,left,904.3585,905.2421,0,0,left,1,905.2421,905.2421,905.2426,906.7433,0,15,15,15,1,0.4,0.6,0.6,0.4,,,,,,,,,,,,,,,0.371,,0.6,0.4,0.8,0.2,0.8,0.2,0.2,0.8,,,0.3664,,0.6,0.4,0.4,0.6,0.8,0.2,0.6,0.4,1,0
,,66fc6d168db73b4d68af6cfb,66fc98a769a3d881bf67bb1d,2024-10-02_01h50.09.186,mdp,2024.2.1,Win32,59.88023952,66fa4ebf79326e780c390304,,,,,,,,,,,,,,,,,,,,,906.7436,906.7436,906.7439,907.6274,1,0,right,0.3729,,907.6279,908.5281,0,1,left,908.5286,909.5457,0,1,left,0,909.5457,909.5457,909.5461,911.0468,0,16,16,16,1,0.4,0.6,0.6,0.4,,,,,,,,,,,,,,,0.3847,,0.6,0.4,0.8,0.2,0.8,0.2,0.2,0.8,,,0.498,,0.6,0.4,0.4,0.6,0.8,0.2,0.6,0.4,1,0
,,66fc6d168db73b4d68af6cfb,66fc98a769a3d881bf67bb1d,2024-10-02_01h50.09.186,mdp,2024.2.1,Win32,59.88023952,66fa4ebf79326e780c390304,,,,,,,,,,,,,,,,,,,,,911.047,911.047,911.0474,911.8809,1,1,right,0.3172,,911.8814,912.8316,0,0,left,912.8321,913.8492,0,0,left,1,913.8493,913.8493,913.8497,915.3505,0,17,17,17,1,0.4,0.6,0.6,0.4,,,,,,,,,,,,,,,0.4329,,0.8,0.2,0.4,0.6,0.8,0.2,0.2,0.8,,,0.5062,,0.6,0.4,0.4,0.6,0.8,0.2,0.6,0.4,1,0
,,66fc6d168db73b4d68af6cfb,66fc98a769a3d881bf67bb1d,2024-10-02_01h50.09.186,mdp,2024.2.1,Win32,59.88023952,66fa4ebf79326e780c390304,,,,,,,,,,,,,,,,,,,,,915.3506,915.3506,915.351,916.0344,1,1,right,0.1736,,916.0348,917.3188,0,0,left,917.3192,918.2528,0,0,left,1,918.2529,918.2529,918.2533,919.7541,0,18,18,18,1,0.4,0.6,0.6,0.4,,,,,,,,,,,,,,,0.7684,,0.8,0.2,0.4,0.6,0.8,0.2,0.2,0.8,,,0.4298,,0.6,0.4,0.4,0.6,0.8,0.2,0.6,0.4,1,0
,,66fc6d168db73b4d68af6cfb,66fc98a769a3d881bf67bb1d,2024-10-02_01h50.09.186,mdp,2024.2.1,Win32,59.88023952,66fa4ebf79326e780c390304,,,,,,,,,,,,,,,,,,,,,919.7543,919.7543,919.7547,920.5382,1,1,right,0.2671,,920.5386,921.3554,0,0,left,921.3558,922.3062,0,0,left,1,922.3062,922.3062,922.3066,923.8074,0,19,19,19,1,0.4,0.6,0.6,0.4,,,,,,,,,,,,,,,0.3064,,0.8,0.2,0.4,0.6,0.8,0.2,0.2,0.8,,,0.4409,,0.6,0.4,0.4,0.6,0.8,0.2,0.6,0.4,1,0
,,66fc6d168db73b4d68af6cfb,66fc98a769a3d881bf67bb1d,2024-10-02_01h50.09.186,mdp,2024.2.1,Win32,59.88023952,66fa4ebf79326e780c390304,,,,,,,,,,,,,,,,,,,,,923.8076,923.8076,923.8079,924.7416,1,0,right,0.429,,924.7422,925.5589,0,0,left,925.5593,926.3929,0,1,left,0,926.3929,926.3929,926.3933,927.8941,0,20,20,20,1,0.4,0.6,0.6,0.4,,,,,,,,,,,,,,,0.3003,,0.8,0.2,0.4,0.6,0.8,0.2,0.2,0.8,,,0.3169,,0.6,0.4,0.4,0.6,0.8,0.2,0.6,0.4,1,0
,,66fc6d168db73b4d68af6cfb,66fc98a769a3d881bf67bb1d,2024-10-02_01h50.09.186,mdp,2024.2.1,Win32,59.88023952,66fa4ebf79326e780c390304,,,,,,,,,,,,,,,,,,,,,927.8943,927.8943,927.8946,928.7615,1,1,right,0.358,,928.762,929.6122,0,0,left,929.6126,930.4963,0,0,left,1,930.4963,930.4964,930.4967,931.9975,0,21,21,21,1,0.6,0.4,0.4,0.6,,,,,,,,,,,,,,,0.3357,,0.8,0.2,0.4,0.6,0.8,0.2,0.2,0.8,,,0.3672,,0.6,0.4,0.4,0.6,0.8,0.2,0.6,0.4,1,0
,,66fc6d168db73b4d68af6cfb,66fc98a769a3d881bf67bb1d,2024-10-02_01h50.09.186,mdp,2024.2.1,Win32,59.88023952,66fa4ebf79326e780c390304,,,,,,,,,,,,,,,,,,,,,931.9977,931.9977,931.998,932.7816,1,0,right,0.2786,,932.782,933.5989,0,0,left,933.5993,934.5497,0,1,left,0,934.5497,934.5497,934.5501,936.0508,0,22,22,22,1,0.6,0.4,0.4,0.6,,,,,,,,,,,,,,,0.3004,,0.8,0.2,0.4,0.6,0.8,0.2,0.2,0.8,,,0.4447,,0.6,0.4,0.4,0.6,0.8,0.2,0.6,0.4,1,0
,,66fc6d168db73b4d68af6cfb,66fc98a769a3d881bf67bb1d,2024-10-02_01h50.09.186,mdp,2024.2.1,Win32,59.88023952,66fa4ebf79326e780c390304,,,,,,,,,,,,,,,,,,,,,936.051,936.051,936.0514,937.0351,1,0,right,0.4668,,937.0354,938.3195,0,0,left,938.3199,939.1201,0,0,left,1,939.1202,939.1202,939.1205,940.6213,0,23,23,23,1,0.6,0.4,0.4,0.6,,,,,,,,,,,,,,,0.7688,,0.8,0.2,0.4,0.6,0.8,0.2,0.2,0.8,,,0.292,,0.6,0.4,0.4,0.6,0.8,0.2,0.6,0.4,1,0
,,66fc6d168db73b4d68af6cfb,66fc98a769a3d881bf67bb1d,2024-10-02_01h50.09.186,mdp,2024.2.1,Win32,59.88023952,66fa4ebf79326e780c390304,,,,,,,,,,,,,,,,,,,,,940.6215,940.6215,940.6218,941.4554,1,1,right,0.3184,,941.4558,942.256,0,1,left,942.2564,943.1235,0,0,left,1,943.1235,943.1235,943.1239,944.6246,0,24,24,24,1,0.6,0.4,0.4,0.6,,,,,,,,,,,,,,,0.2907,,0.2,0.8,0.2,0.8,0.8,0.2,0.2,0.8,,,0.361,,0.6,0.4,0.4,0.6,0.8,0.2,0.6,0.4,1,0
,,66fc6d168db73b4d68af6cfb,66fc98a769a3d881bf67bb1d,2024-10-02_01h50.09.186,mdp,2024.2.1,Win32,59.88023952,66fa4ebf79326e780c390304,,,,,,,,,,,,,,,,,,,,,944.6248,944.6248,944.6252,945.3919,1,0,right,0.2569,,945.3923,946.2427,0,1,left,946.243,947.06,0,0,left,1,947.06,947.06,947.0604,948.5612,0,25,25,25,1,0.6,0.4,0.4,0.6,,,,,,,,,,,,,,,0.3326,,0.2,0.8,0.2,0.8,0.8,0.2,0.2,0.8,,,0.3046,,0.6,0.4,0.4,0.6,0.6,0.4,0.8,0.2,1,0
,,66fc6d168db73b4d68af6cfb,66fc98a769a3d881bf67bb1d,2024-10-02_01h50.09.186,mdp,2024.2.1,Win32,59.88023952,66fa4ebf79326e780c390304,,,,,,,,,,,,,,,,,,,,,948.5614,948.5614,948.5617,949.3786,1,0,right,0.3003,,949.3791,950.1626,0,0,left,950.1631,950.9633,0,1,left,0,950.9633,950.9633,950.9636,952.4644,0,26,26,26,1,0.6,0.4,0.4,0.6,,,,,,,,,,,,,,,0.2671,,0.2,0.8,0.2,0.8,0.8,0.2,0.2,0.8,,,0.2941,,0.6,0.4,0.4,0.6,0.6,0.4,0.8,0.2,1,0
,,66fc6d168db73b4d68af6cfb,66fc98a769a3d881bf67bb1d,2024-10-02_01h50.09.186,mdp,2024.2.1,Win32,59.88023952,66fa4ebf79326e780c390304,,,,,,,,,,,,,,,,,,,,,952.4646,952.4646,952.465,953.1316,1,0,right,0.1496,,953.132,953.8989,0,1,left,953.8994,954.6829,0,1,left,0,954.683,954.683,954.6834,956.1842,0,27,27,27,1,0.6,0.4,0.4,0.6,,,,,,,,,,,,,,,0.2524,,0.2,0.8,0.2,0.8,0.8,0.2,0.2,0.8,,,0.2696,,0.6,0.4,0.4,0.6,0.6,0.4,0.8,0.2,1,0
,,66fc6d168db73b4d68af6cfb,66fc98a769a3d881bf67bb1d,2024-10-02_01h50.09.186,mdp,2024.2.1,Win32,59.88023952,66fa4ebf79326e780c390304,,,,,,,,,,,,,,,,,,,,,956.1844,956.1844,956.1847,957.0849,0,0,left,0.3947,,957.0853,958.1191,0,1,left,958.1195,959.2868,1,1,right,0,959.2868,959.2868,959.2871,960.7879,0,28,28,28,1,0.6,0.4,0.4,0.6,,,,,,,,,,,,,,,0.5262,,0.2,0.8,0.2,0.8,0.8,0.2,0.2,0.8,,,0.6522,,0.6,0.4,0.4,0.6,0.6,0.4,0.8,0.2,1,0
,,66fc6d168db73b4d68af6cfb,66fc98a769a3d881bf67bb1d,2024-10-02_01h50.09.186,mdp,2024.2.1,Win32,59.88023952,66fa4ebf79326e780c390304,,,,,,,,,,,,,,,,,,,,,960.7882,960.7882,960.7886,961.6721,1,1,right,0.367,,961.6725,963.0232,0,0,left,963.0236,963.8739,0,0,left,1,963.8739,963.8739,963.8744,965.3751,0,29,29,29,1,0.6,0.4,0.4,0.6,,,,,,,,,,,,,,,0.8325,,0.2,0.8,0.2,0.8,0.8,0.2,0.2,0.8,,,0.3319,,0.6,0.4,0.4,0.6,0.6,0.4,0.8,0.2,1,0
,,66fc6d168db73b4d68af6cfb,66fc98a769a3d881bf67bb1d,2024-10-02_01h50.09.186,mdp,2024.2.1,Win32,59.88023952,66fa4ebf79326e780c390304,,,,,,,,,,,,,,,,,,,,,965.3753,965.3753,965.3757,966.2926,1,0,right,0.4121,,966.293,967.3601,0,1,left,967.3604,968.5611,0,1,left,0,968.5611,968.5611,968.5615,970.0623,0,30,30,30,1,0.6,0.4,0.4,0.6,,,,,,,,,,,,,,,0.5558,,0.2,0.8,0.2,0.8,0.8,0.2,0.2,0.8,,,0.6813,,0.6,0.4,0.4,0.6,0.6,0.4,0.8,0.2,1,0
,,66fc6d168db73b4d68af6cfb,66fc98a769a3d881bf67bb1d,2024-10-02_01h50.09.186,mdp,2024.2.1,Win32,59.88023952,66fa4ebf79326e780c390304,,,,,,,,,,,,,,,,,,,,,970.0624,970.0624,970.0628,971.1299,1,1,right,0.5561,,971.1303,972.6645,0,0,left,972.6649,973.5652,0,0,left,1,973.5653,973.5653,973.5656,975.0664,0,31,31,31,1,0.6,0.4,0.4,0.6,,,,,,,,,,,,,,,1.0231,,0.2,0.8,0.2,0.8,0.8,0.2,0.2,0.8,,,0.3836,,0.6,0.4,0.4,0.6,0.6,0.4,0.8,0.2,1,0
,,66fc6d168db73b4d68af6cfb,66fc98a769a3d881bf67bb1d,2024-10-02_01h50.09.186,mdp,2024.2.1,Win32,59.88023952,66fa4ebf79326e780c390304,,,,,,,,,,,,,,,,,,,,,975.0666,975.0667,975.0669,975.9005,1,1,right,0.3204,,975.9008,976.8846,0,0,left,976.8851,977.8854,0,1,left,0,977.8855,977.8855,977.8859,979.3866,0,32,32,32,1,0.6,0.4,0.4,0.6,,,,,,,,,,,,,,,0.4704,,0.2,0.8,0.2,0.8,0.8,0.2,0.2,0.8,,,0.4942,,0.6,0.4,0.4,0.6,0.6,0.4,0.8,0.2,1,0
,,66fc6d168db73b4d68af6cfb,66fc98a769a3d881bf67bb1d,2024-10-02_01h50.09.186,mdp,2024.2.1,Win32,59.88023952,66fa4ebf79326e780c390304,,,,,,,,,,,,,,,,,,,,,979.3868,979.3868,979.3872,980.2542,1,0,right,0.3597,,980.2546,981.8053,0,1,left,981.8058,982.9563,0,0,left,1,982.9563,982.9563,982.9568,984.4575,0,33,33,33,1,0.6,0.4,0.4,0.6,,,,,,,,,,,,,,,1.0339,,0.2,0.8,0.2,0.8,0.8,0.2,0.2,0.8,,,0.6354,,0.6,0.4,0.4,0.6,0.6,0.4,0.8,0.2,1,0
,,66fc6d168db73b4d68af6cfb,66fc98a769a3d881bf67bb1d,2024-10-02_01h50.09.186,mdp,2024.2.1,Win32,59.88023952,66fa4ebf79326e780c390304,,,,,,,,,,,,,,,,,,,,,984.4577,984.4577,984.4581,985.3249,1,1,right,0.361,,985.3253,986.1756,0,1,left,986.1761,986.9763,0,0,left,1,986.9764,986.9764,986.9768,988.4775,0,34,34,34,1,0.6,0.4,0.4,0.6,,,,,,,,,,,,,,,0.3316,,0.2,0.8,0.2,0.8,0.8,0.2,0.2,0.8,,,0.2909,,0.6,0.4,0.4,0.6,0.6,0.4,0.8,0.2,1,0
,,66fc6d168db73b4d68af6cfb,66fc98a769a3d881bf67bb1d,2024-10-02_01h50.09.186,mdp,2024.2.1,Win32,59.88023952,66fa4ebf79326e780c390304,,,,,,,,,,,,,,,,,,,,,988.4778,988.4778,988.4781,989.3116,1,0,right,0.325,,989.312,990.0788,0,1,left,990.0793,990.8962,0,1,left,0,990.8963,990.8963,990.8966,992.3974,0,35,35,35,1,0.6,0.4,0.4,0.6,,,,,,,,,,,,,,,0.2559,,0.2,0.8,0.2,0.8,0.8,0.2,0.2,0.8,,,0.3003,,0.6,0.4,0.4,0.6,0.6,0.4,0.8,0.2,1,0
,,66fc6d168db73b4d68af6cfb,66fc98a769a3d881bf67bb1d,2024-10-02_01h50.09.186,mdp,2024.2.1,Win32,59.88023952,66fa4ebf79326e780c390304,,,,,,,,,,,,,,,,,,,,,992.3977,992.3977,992.398,993.2481,1,1,right,0.3407,,993.2486,994.0154,0,0,left,994.0158,994.7994,0,1,left,0,994.7994,994.7994,994.7998,996.3006,0,36,36,36,1,0.6,0.4,0.4,0.6,,,,,,,,,,,,,,,0.256,,0.6,0.4,0.4,0.6,0.8,0.2,0.2,0.8,,,0.2726,,0.6,0.4,0.4,0.6,0.6,0.4,0.8,0.2,1,0
,,66fc6d168db73b4d68af6cfb,66fc98a769a3d881bf67bb1d,2024-10-02_01h50.09.186,mdp,2024.2.1,Win32,59.88023952,66fa4ebf79326e780c390304,,,,,,,,,,,,,,,,,,,,,996.3008,996.3008,996.3012,997.1513,1,1,right,0.3411,,997.1517,997.952,0,0,left,997.9524,998.8195,0,1,left,0,998.8196,998.8196,998.8199,1000.3207,0,37,37,37,1,0.6,0.4,0.4,0.6,,,,,,,,,,,,,,,0.2833,,0.6,0.4,0.4,0.6,0.8,0.2,0.2,0.8,,,0.3542,,0.6,0.4,0.4,0.6,0.6,0.4,0.8,0.2,1,0
,,66fc6d168db73b4d68af6cfb,66fc98a769a3d881bf67bb1d,2024-10-02_01h50.09.186,mdp,2024.2.1,Win32,59.88023952,66fa4ebf79326e780c390304,,,,,,,,,,,,,,,,,,,,,1000.3208,1000.3209,1000.3212,1000.9379,0,1,left,0.1048,,1000.9383,1001.7886,1,1,right,1001.789,1002.606,0,0,left,1,1002.606,1002.606,1002.6064,1004.1073,0,38,38,38,1,0.6,0.4,0.4,0.6,,,,,,,,,,,,,,,0.3362,,0.6,0.4,0.4,0.6,0.8,0.2,0.2,0.8,,,0.2997,,0.6,0.4,0.4,0.6,0.6,0.4,0.8,0.2,1,0
,,66fc6d168db73b4d68af6cfb,66fc98a769a3d881bf67bb1d,2024-10-02_01h50.09.186,mdp,2024.2.1,Win32,59.88023952,66fa4ebf79326e780c390304,,,,,,,,,,,,,,,,,,,,,1004.1075,1004.1075,1004.1079,1004.8577,0,0,left,0.2379,,1004.8581,1005.7252,1,0,right,1005.7255,1006.5925,0,0,left,1,1006.5925,1006.5925,1006.5928,1008.0937,0,39,39,39,1,0.6,0.4,0.4,0.6,,,,,,,,,,,,,,,0.3578,,0.6,0.4,0.4,0.6,0.8,0.2,0.2,0.8,,,0.3548,,0.6,0.4,0.4,0.6,0.6,0.4,0.8,0.2,1,0
,,66fc6d168db73b4d68af6cfb,66fc98a769a3d881bf67bb1d,2024-10-02_01h50.09.186,mdp,2024.2.1,Win32,59.88023952,66fa4ebf79326e780c390304,,,,,,,,,,,,,,,,,,,,,1008.094,1008.094,1008.0943,1008.7276,0,1,left,0.1242,,1008.728,1009.5283,1,1,right,1009.5287,1010.3289,0,1,left,0,1010.3289,1010.3289,1010.3294,1011.8301,0,40,40,40,1,0.6,0.4,0.4,0.6,,,,,,,,,,,,,,,0.2873,,0.6,0.4,0.4,0.6,0.8,0.2,0.2,0.8,,,0.2818,,0.6,0.4,0.4,0.6,0.6,0.4,0.8,0.2,1,0
,,66fc6d168db73b4d68af6cfb,66fc98a769a3d881bf67bb1d,2024-10-02_01h50.09.186,mdp,2024.2.1,Win32,59.88023952,66fa4ebf79326e780c390304,,,,,,,,,,,,,,,,,,,,,1011.8303,1011.8303,1011.8306,1012.4307,0,0,left,0.0835,,1012.4311,1013.4982,1,1,right,1013.4985,1014.3322,0,1,left,0,1014.3323,1014.3323,1014.3326,1015.8334,0,41,41,41,1,0.6,0.4,0.4,0.6,,,,,,,,,,,,,,,0.5605,,0.6,0.4,0.4,0.6,0.8,0.2,0.2,0.8,,,0.3186,,0.6,0.4,0.4,0.6,0.6,0.4,0.8,0.2,1,0
,,66fc6d168db73b4d68af6cfb,66fc98a769a3d881bf67bb1d,2024-10-02_01h50.09.186,mdp,2024.2.1,Win32,59.88023952,66fa4ebf79326e780c390304,,,,,,,,,,,,,,,,,,,,,1015.8337,1015.8337,1015.834,1016.7343,0,0,left,0.384,,1016.7347,1017.8018,1,0,right,1017.8021,1018.7525,0,1,left,0,1018.7526,1018.7526,1018.753,1020.2538,0,42,42,42,1,0.6,0.4,0.4,0.6,,,,,,,,,,,,,,,0.5632,,0.6,0.4,0.4,0.6,0.8,0.2,0.2,0.8,,,0.4366,,0.6,0.4,0.4,0.6,0.6,0.4,0.8,0.2,1,0
,,66fc6d168db73b4d68af6cfb,66fc98a769a3d881bf67bb1d,2024-10-02_01h50.09.186,mdp,2024.2.1,Win32,59.88023952,66fa4ebf79326e780c390304,,,,,,,,,,,,,,,,,,,,,1020.2539,1020.2539,1020.2543,1021.0878,0,0,left,0.3173,,1021.0882,1022.0553,1,0,right,1022.0558,1023.0227,0,0,left,1,1023.0228,1023.0228,1023.0232,1024.5239,0,43,43,43,1,0.6,0.4,0.4,0.6,,,,,,,,,,,,,,,0.4578,,0.2,0.8,0.6,0.4,0.8,0.2,0.2,0.8,,,0.4504,,0.6,0.4,0.4,0.6,0.6,0.4,0.8,0.2,1,0
,,66fc6d168db73b4d68af6cfb,66fc98a769a3d881bf67bb1d,2024-10-02_01h50.09.186,mdp,2024.2.1,Win32,59.88023952,66fa4ebf79326e780c390304,,,,,,,,,,,,,,,,,,,,,1024.5241,1024.5241,1024.5244,1025.3246,0,1,left,0.2856,,1025.325,1026.1253,1,1,right,1026.1257,1027.3096,1,0,right,1,1027.3096,1027.3096,1027.31,1028.8108,0,44,44,44,1,0.6,0.4,0.4,0.6,,,,,,,,,,,,,,,0.2903,,0.2,0.8,0.6,0.4,0.8,0.2,0.2,0.8,,,0.6662,,0.6,0.4,0.4,0.6,0.6,0.4,0.8,0.2,1,0
,,66fc6d168db73b4d68af6cfb,66fc98a769a3d881bf67bb1d,2024-10-02_01h50.09.186,mdp,2024.2.1,Win32,59.88023952,66fa4ebf79326e780c390304,,,,,,,,,,,,,,,,,,,,,1028.811,1028.811,1028.8113,1029.7116,0,1,left,0.39,,1029.7121,1030.8626,1,1,right,1030.8629,1031.8635,1,1,right,0,1031.8635,1031.8635,1031.8638,1033.3646,0,45,45,45,1,0.6,0.4,0.4,0.6,,,,,,,,,,,,,,,0.6415,,0.2,0.8,0.6,0.4,0.8,0.2,0.2,0.8,,,0.4898,,0.6,0.4,0.4,0.6,0.6,0.4,0.8,0.2,1,0
,,66fc6d168db73b4d68af6cfb,66fc98a769a3d881bf67bb1d,2024-10-02_01h50.09.186,mdp,2024.2.1,Win32,59.88023952,66fa4ebf79326e780c390304,,,,,,,,,,,,,,,,,,,,,1033.3648,1033.3648,1033.3652,1034.2987,0,0,left,0.4285,,1034.2992,1035.1495,1,0,right,1035.1498,1036.0169,0,0,left,1,1036.0169,1036.0169,1036.0172,1037.518,0,46,46,46,1,0.6,0.4,0.4,0.6,,,,,,,,,,,,,,,0.3317,,0.2,0.8,0.6,0.4,0.8,0.2,0.2,0.8,,,0.3535,,0.6,0.4,0.4,0.6,0.6,0.4,0.8,0.2,1,0
,,66fc6d168db73b4d68af6cfb,66fc98a769a3d881bf67bb1d,2024-10-02_01h50.09.186,mdp,2024.2.1,Win32,59.88023952,66fa4ebf79326e780c390304,,,,,,,,,,,,,,,,,,,,,1037.5183,1037.5183,1037.5186,1038.3855,0,0,left,0.355,,1038.3858,1039.5031,0,1,left,1039.5035,1040.6207,0,1,left,0,1040.6207,1040.6207,1040.6211,1042.1219,0,47,47,47,1,0.6,0.4,0.4,0.6,,,,,,,,,,,,,,,0.6006,,0.2,0.8,0.6,0.4,0.8,0.2,0.2,0.8,,,0.6077,,0.6,0.4,0.4,0.6,0.6,0.4,0.8,0.2,1,0
,,66fc6d168db73b4d68af6cfb,66fc98a769a3d881bf67bb1d,2024-10-02_01h50.09.186,mdp,2024.2.1,Win32,59.88023952,66fa4ebf79326e780c390304,,,,,,,,,,,,,,,,,,,,,1042.122,1042.122,1042.1223,1042.9393,0,0,left,0.3111,,1042.9396,1043.84,1,0,right,1043.8404,1044.6906,0,1,left,0,1044.6907,1044.6907,1044.6911,1046.1919,0,48,48,48,1,0.6,0.4,0.4,0.6,,,,,,,,,,,,,,,0.3891,,0.2,0.8,0.6,0.4,0.8,0.2,0.2,0.8,,,0.3423,,0.6,0.4,0.4,0.6,0.6,0.4,0.8,0.2,1,0
,,66fc6d168db73b4d68af6cfb,66fc98a769a3d881bf67bb1d,2024-10-02_01h50.09.186,mdp,2024.2.1,Win32,59.88023952,66fa4ebf79326e780c390304,,,,,,,,,,,,,,,,,,,,,1046.192,1046.192,1046.1923,1046.9926,0,1,left,0.2969,,1046.9929,1048.5105,0,0,left,1048.5108,1049.3611,0,1,left,0,1049.3612,1049.3612,1049.3616,1050.8624,0,49,49,49,1,0.6,0.4,0.4,0.6,,,,,,,,,,,,,,,0.999,,0.2,0.8,0.6,0.4,0.8,0.2,0.2,0.8,,,0.3377,,0.6,0.4,0.4,0.6,0.6,0.4,0.8,0.2,1,0
,,66fc6d168db73b4d68af6cfb,66fc98a769a3d881bf67bb1d,2024-10-02_01h50.09.186,mdp,2024.2.1,Win32,59.88023952,66fa4ebf79326e780c390304,,,,,,,,,,,,,,,,,,,,,,,,,,,,,,,,,,,,,,,,,,,,,,,,,,,,,,,,1050.8625,1109.3774,0,3,3,1,1,imgs/goat.png,imgs/cat.png,imgs/elephant.png,imgs/dog.png,imgs/kangaroo.png,,,,,,,,,,,,,,,,,,,,,,,,
,,66fc6d168db73b4d68af6cfb,66fc98a769a3d881bf67bb1d,2024-10-02_01h50.09.186,mdp,2024.2.1,Win32,59.88023952,66fa4ebf79326e780c390304,,,,,,,,,,,,,,1,seqs/st1seq40.csv,1109.3779,1116.9837,space,7.1019,,1116.985,1116.9851,1116.9854,1122.2214,0,0,left,4.7015,,1122.2219,1122.2221,0,0,,1122.2223,1122.2225,0,0,,1,1122.2225,1122.2225,1122.2227,1123.7226,0,0,0,0,1,0.6,0.4,0.8,0.2,1,0,,,,,,,,,,,,,,,,,,,,,,,,,,,,,,,,,,,,
,,66fc6d168db73b4d68af6cfb,66fc98a769a3d881bf67bb1d,2024-10-02_01h50.09.186,mdp,2024.2.1,Win32,59.88023952,66fa4ebf79326e780c390304,,,,,,,,,,,,,,,,,,,,,1123.7227,1123.7228,1123.7231,1124.6234,0,0,left,0.3882,,1124.6238,1124.6241,0,0,,1124.6242,1124.6244,0,0,,1,1124.6244,1124.6244,1124.6246,1126.1245,0,1,1,1,1,0.6,0.4,0.8,0.2,1,0,,,,,,,,,,,,,,,,,,,,,,,,,,,,,,,,,,,,
,,66fc6d168db73b4d68af6cfb,66fc98a769a3d881bf67bb1d,2024-10-02_01h50.09.186,mdp,2024.2.1,Win32,59.88023952,66fa4ebf79326e780c390304,,,,,,,,,,,,,,,,,,,,,1126.1248,1126.1248,1126.1251,1126.9586,0,1,left,0.3298,,1126.959,1126.9592,0,1,,1126.9593,1126.9595,0,1,,0,1126.9595,1126.9595,1126.9596,1128.4599,0,2,2,2,1,0.2,0.8,0.6,0.4,1,0,,,,,,,,,,,,,,,,,,,,,,,,,,,,,,,,,,,,
,,66fc6d168db73b4d68af6cfb,66fc98a769a3d881bf67bb1d,2024-10-02_01h50.09.186,mdp,2024.2.1,Win32,59.88023952,66fa4ebf79326e780c390304,,,,,,,,,,,,,,,,,,,,,1128.46,1128.46,1128.4604,1129.2438,0,1,left,0.2752,,1129.2442,1129.2444,0,0,,1129.2447,1129.2448,0,0,,0,1129.2448,1129.2448,1129.245,1130.7451,0,3,3,3,1,0.2,0.8,0.6,0.4,1,0,,,,,,,,,,,,,,,,,,,,,,,,,,,,,,,,,,,,
,,66fc6d168db73b4d68af6cfb,66fc98a769a3d881bf67bb1d,2024-10-02_01h50.09.186,mdp,2024.2.1,Win32,59.88023952,66fa4ebf79326e780c390304,,,,,,,,,,,,,,,,,,,,,1130.7452,1130.7452,1130.7456,1131.479,0,0,left,0.2289,,1131.4794,1131.4796,0,1,,1131.4798,1131.4799,0,1,,1,1131.4799,1131.4799,1131.48,1132.9802,0,4,4,4,1,0.2,0.8,0.6,0.4,1,0,,,,,,,,,,,,,,,,,,,,,,,,,,,,,,,,,,,,
,,66fc6d168db73b4d68af6cfb,66fc98a769a3d881bf67bb1d,2024-10-02_01h50.09.186,mdp,2024.2.1,Win32,59.88023952,66fa4ebf79326e780c390304,,,,,,,,,,,,,,,,,,,,,1132.9803,1132.9804,1132.9809,1133.5808,0,1,left,0.0831,,1133.5812,1133.5815,0,0,,1133.5817,1133.5821,0,0,,0,1133.5821,1133.5821,1133.5823,1135.082,0,5,5,5,1,0.6,0.4,0.8,0.2,1,0,,,,,,,,,,,,,,,,,,,,,,,,,,,,,,,,,,,,
,,66fc6d168db73b4d68af6cfb,66fc98a769a3d881bf67bb1d,2024-10-02_01h50.09.186,mdp,2024.2.1,Win32,59.88023952,66fa4ebf79326e780c390304,,,,,,,,,,,,,,,,,,,,,1135.0821,1135.0821,1135.0824,1135.7993,1,0,right,0.2043,,1135.7997,1135.7999,0,0,,1135.8001,1135.8002,0,0,,1,1135.8002,1135.8002,1135.8004,1137.3004,0,6,6,6,1,0.6,0.4,0.8,0.2,1,0,,,,,,,,,,,,,,,,,,,,,,,,,,,,,,,,,,,,
,,66fc6d168db73b4d68af6cfb,66fc98a769a3d881bf67bb1d,2024-10-02_01h50.09.186,mdp,2024.2.1,Win32,59.88023952,66fa4ebf79326e780c390304,,,,,,,,,,,,,,,,,,,,,1137.3006,1137.3006,1137.301,1138.0845,1,0,right,0.2676,,1138.0849,1138.0851,0,1,,1138.0853,1138.0854,0,1,,1,1138.0854,1138.0854,1138.0857,1139.5857,0,7,7,7,1,0.2,0.8,0.6,0.4,1,0,,,,,,,,,,,,,,,,,,,,,,,,,,,,,,,,,,,,
,,66fc6d168db73b4d68af6cfb,66fc98a769a3d881bf67bb1d,2024-10-02_01h50.09.186,mdp,2024.2.1,Win32,59.88023952,66fa4ebf79326e780c390304,,,,,,,,,,,,,,,,,,,,,1139.5859,1139.5859,1139.5861,1140.3197,1,1,right,0.2205,,1140.3201,1140.3203,0,0,,1140.3206,1140.3207,0,1,,0,1140.3207,1140.3208,1140.3209,1141.8209,0,8,8,8,1,0.2,0.8,0.6,0.4,1,0,,,,,,,,,,,,,,,,,,,,,,,,,,,,,,,,,,,,
,,66fc6d168db73b4d68af6cfb,66fc98a769a3d881bf67bb1d,2024-10-02_01h50.09.186,mdp,2024.2.1,Win32,59.88023952,66fa4ebf79326e780c390304,,,,,,,,,,,,,,,,,,,,,1141.8211,1141.8211,1141.8215,1142.5883,1,1,right,0.2572,,1142.5887,1142.589,0,1,,1142.5891,1142.5893,0,0,,0,1142.5893,1142.5893,1142.5894,1144.0895,0,9,9,9,1,0.2,0.8,0.6,0.4,1,0,,,,,,,,,,,,,,,,,,,,,,,,,,,,,,,,,,,,
,,66fc6d168db73b4d68af6cfb,66fc98a769a3d881bf67bb1d,2024-10-02_01h50.09.186,mdp,2024.2.1,Win32,59.88023952,66fa4ebf79326e780c390304,,,,,,,,,,,,,,,,,,,,,1144.0896,1144.0896,1144.0899,1144.6065,0,1,left,0.0123,,1144.6069,1144.607,0,1,,1144.6072,1144.6074,0,0,,0,1144.6074,1144.6074,1144.6076,1146.1077,0,10,10,10,1,0.2,0.8,0.6,0.4,1,0,,,,,,,,,,,,,,,,,,,,,,,,,,,,,,,,,,,,
,,66fc6d168db73b4d68af6cfb,66fc98a769a3d881bf67bb1d,2024-10-02_01h50.09.186,mdp,2024.2.1,Win32,59.88023952,66fa4ebf79326e780c390304,,,,,,,,,,,,,,,,,,,,,1146.1079,1146.1079,1146.1082,1146.7583,0,0,left,0.1457,,1146.7587,1146.7589,0,1,,1146.7591,1146.7593,0,1,,1,1146.7593,1146.7593,1146.7594,1148.2595,0,11,11,11,1,0.2,0.8,0.6,0.4,1,0,,,,,,,,,,,,,,,,,,,,,,,,,,,,,,,,,,,,
,,66fc6d168db73b4d68af6cfb,66fc98a769a3d881bf67bb1d,2024-10-02_01h50.09.186,mdp,2024.2.1,Win32,59.88023952,66fa4ebf79326e780c390304,,,,,,,,,,,,,,,,,,,,,1148.2597,1148.2597,1148.26,1149.594,0,1,left,0.8261,,1149.5944,1149.5946,0,0,,1149.5949,1149.5951,0,0,,0,1149.5951,1149.5951,1149.5952,1151.0952,0,12,12,12,1,0.2,0.8,0.6,0.4,1,0,,,,,,,,,,,,,,,,,,,,,,,,,,,,,,,,,,,,
,,66fc6d168db73b4d68af6cfb,66fc98a769a3d881bf67bb1d,2024-10-02_01h50.09.186,mdp,2024.2.1,Win32,59.88023952,66fa4ebf79326e780c390304,,,,,,,,,,,,,,,,,,,,,1151.0954,1151.0954,1151.0958,1151.8292,0,1,left,0.2227,,1151.8295,1151.8297,0,1,,1151.8301,1151.8304,0,1,,0,1151.8304,1151.8304,1151.8306,1153.3304,0,13,13,13,1,0.2,0.8,0.6,0.4,1,0,,,,,,,,,,,,,,,,,,,,,,,,,,,,,,,,,,,,
,,66fc6d168db73b4d68af6cfb,66fc98a769a3d881bf67bb1d,2024-10-02_01h50.09.186,mdp,2024.2.1,Win32,59.88023952,66fa4ebf79326e780c390304,,,,,,,,,,,,,,,,,,,,,1153.3305,1153.3305,1153.3309,1154.0978,1,1,right,0.2515,,1154.0982,1154.0984,0,1,,1154.0986,1154.0988,0,1,,0,1154.0988,1154.0988,1154.099,1155.5989,0,14,14,14,1,0.2,0.8,0.6,0.4,1,0,,,,,,,,,,,,,,,,,,,,,,,,,,,,,,,,,,,,
,,66fc6d168db73b4d68af6cfb,66fc98a769a3d881bf67bb1d,2024-10-02_01h50.09.186,mdp,2024.2.1,Win32,59.88023952,66fa4ebf79326e780c390304,,,,,,,,,,,,,,,,,,,,,1155.5991,1155.5991,1155.5995,1156.1828,1,1,right,0.0695,,1156.1832,1156.1835,0,1,,1156.1837,1156.1838,0,1,,0,1156.1838,1156.1838,1156.184,1157.684,0,15,15,15,1,0.6,0.4,0.4,0.6,1,0,,,,,,,,,,,,,,,,,,,,,,,,,,,,,,,,,,,,
,,66fc6d168db73b4d68af6cfb,66fc98a769a3d881bf67bb1d,2024-10-02_01h50.09.186,mdp,2024.2.1,Win32,59.88023952,66fa4ebf79326e780c390304,,,,,,,,,,,,,,,,,,,,,1157.6842,1157.6842,1157.6844,1158.3179,0,1,left,0.1293,,1158.3182,1158.3185,0,1,,1158.3188,1158.319,0,1,,0,1158.319,1158.319,1158.3192,1159.8191,0,16,16,16,1,0.2,0.8,0.8,0.2,1,0,,,,,,,,,,,,,,,,,,,,,,,,,,,,,,,,,,,,
,,66fc6d168db73b4d68af6cfb,66fc98a769a3d881bf67bb1d,2024-10-02_01h50.09.186,mdp,2024.2.1,Win32,59.88023952,66fa4ebf79326e780c390304,,,,,,,,,,,,,,,,,,,,,1159.8192,1159.8192,1159.8195,1160.5864,0,1,left,0.2583,,1160.5868,1160.5871,0,0,,1160.5872,1160.5874,0,0,,0,1160.5874,1160.5874,1160.5876,1162.0877,0,17,17,17,1,0.2,0.8,0.8,0.2,1,0,,,,,,,,,,,,,,,,,,,,,,,,,,,,,,,,,,,,
,,66fc6d168db73b4d68af6cfb,66fc98a769a3d881bf67bb1d,2024-10-02_01h50.09.186,mdp,2024.2.1,Win32,59.88023952,66fa4ebf79326e780c390304,,,,,,,,,,,,,,,,,,,,,1162.0877,1162.0877,1162.0881,1162.7548,0,1,left,0.1578,,1162.7552,1162.7555,0,1,,1162.7557,1162.7559,0,1,,0,1162.7559,1162.7559,1162.7561,1164.2561,0,18,18,18,1,0.2,0.8,0.8,0.2,1,0,,,,,,,,,,,,,,,,,,,,,,,,,,,,,,,,,,,,
,,66fc6d168db73b4d68af6cfb,66fc98a769a3d881bf67bb1d,2024-10-02_01h50.09.186,mdp,2024.2.1,Win32,59.88023952,66fa4ebf79326e780c390304,,,,,,,,,,,,,,,,,,,,,1164.2562,1164.2562,1164.2565,1165.0735,1,0,right,0.309,,1165.0739,1165.0741,0,1,,1165.0743,1165.0745,0,0,,1,1165.0745,1165.0745,1165.0746,1166.5747,0,19,19,19,1,0.2,0.8,0.8,0.2,1,0,,,,,,,,,,,,,,,,,,,,,,,,,,,,,,,,,,,,
,,66fc6d168db73b4d68af6cfb,66fc98a769a3d881bf67bb1d,2024-10-02_01h50.09.186,mdp,2024.2.1,Win32,59.88023952,66fa4ebf79326e780c390304,,,,,,,,,,,,,,,,,,,,,1166.5748,1166.5748,1166.5752,1167.392,1,0,right,0.3011,,1167.3924,1167.3927,0,0,,1167.3929,1167.3931,0,0,,1,1167.3931,1167.3931,1167.3932,1168.8933,0,20,20,20,1,0.2,0.8,0.8,0.2,1,0,,,,,,,,,,,,,,,,,,,,,,,,,,,,,,,,,,,,
,,66fc6d168db73b4d68af6cfb,66fc98a769a3d881bf67bb1d,2024-10-02_01h50.09.186,mdp,2024.2.1,Win32,59.88023952,66fa4ebf79326e780c390304,,,,,,,,,,,,,,,,,,,,,1168.8934,1168.8934,1168.8937,1169.5771,1,0,right,0.1682,,1169.5775,1169.5778,0,0,,1169.578,1169.5781,0,0,,1,1169.5781,1169.5781,1169.5783,1171.0783,0,21,21,21,1,0.2,0.8,0.8,0.2,1,0,,,,,,,,,,,,,,,,,,,,,,,,,,,,,,,,,,,,
,,66fc6d168db73b4d68af6cfb,66fc98a769a3d881bf67bb1d,2024-10-02_01h50.09.186,mdp,2024.2.1,Win32,59.88023952,66fa4ebf79326e780c390304,,,,,,,,,,,,,,,,,,,,,1171.0785,1171.0785,1171.0788,1171.779,1,0,right,0.1836,,1171.7794,1171.7797,0,0,,1171.7799,1171.7801,0,1,,1,1171.7801,1171.7801,1171.7803,1173.2802,0,22,22,22,1,0.8,0.2,0.6,0.4,1,0,,,,,,,,,,,,,,,,,,,,,,,,,,,,,,,,,,,,
,,66fc6d168db73b4d68af6cfb,66fc98a769a3d881bf67bb1d,2024-10-02_01h50.09.186,mdp,2024.2.1,Win32,59.88023952,66fa4ebf79326e780c390304,,,,,,,,,,,,,,,,,,,,,1173.2804,1173.2804,1173.2807,1174.0642,1,1,right,0.277,,1174.0646,1174.0649,0,1,,1174.0651,1174.0653,0,1,,0,1174.0653,1174.0653,1174.0654,1175.5654,0,23,23,23,1,0.6,0.4,0.2,0.8,1,0,,,,,,,,,,,,,,,,,,,,,,,,,,,,,,,,,,,,
,,66fc6d168db73b4d68af6cfb,66fc98a769a3d881bf67bb1d,2024-10-02_01h50.09.186,mdp,2024.2.1,Win32,59.88023952,66fa4ebf79326e780c390304,,,,,,,,,,,,,,,,,,,,,1175.5656,1175.5656,1175.5659,1176.3494,1,0,right,0.2797,,1176.3498,1176.3501,0,0,,1176.3503,1176.3505,0,0,,1,1176.3505,1176.3505,1176.3506,1177.8506,0,24,24,24,1,0.8,0.2,0.6,0.4,1,0,,,,,,,,,,,,,,,,,,,,,,,,,,,,,,,,,,,,
,,66fc6d168db73b4d68af6cfb,66fc98a769a3d881bf67bb1d,2024-10-02_01h50.09.186,mdp,2024.2.1,Win32,59.88023952,66fa4ebf79326e780c390304,,,,,,,,,,,,,,,,,,,,,1177.8508,1177.8508,1177.8512,1178.4846,1,1,right,0.1221,,1178.485,1178.4852,0,0,,1178.4853,1178.4856,0,0,,0,1178.4856,1178.4856,1178.4857,1179.9857,0,25,25,25,1,0.8,0.2,0.6,0.4,1,0,,,,,,,,,,,,,,,,,,,,,,,,,,,,,,,,,,,,
,,66fc6d168db73b4d68af6cfb,66fc98a769a3d881bf67bb1d,2024-10-02_01h50.09.186,mdp,2024.2.1,Win32,59.88023952,66fa4ebf79326e780c390304,,,,,,,,,,,,,,,,,,,,,1179.9859,1179.9859,1179.9863,1180.9032,1,0,right,0.4033,,1180.9036,1180.9038,0,0,,1180.904,1180.9043,0,0,,1,1180.9043,1180.9043,1180.9044,1182.4044,0,26,26,26,1,0.4,0.6,0.8,0.2,1,0,,,,,,,,,,,,,,,,,,,,,,,,,,,,,,,,,,,,
,,66fc6d168db73b4d68af6cfb,66fc98a769a3d881bf67bb1d,2024-10-02_01h50.09.186,mdp,2024.2.1,Win32,59.88023952,66fa4ebf79326e780c390304,,,,,,,,,,,,,,,,,,,,,1182.4046,1182.4046,1182.4049,1183.1718,1,1,right,0.2497,,1183.1722,1183.1725,0,0,,1183.1727,1183.1729,0,1,,0,1183.1729,1183.1729,1183.1731,1184.6729,0,27,27,27,1,0.4,0.6,0.8,0.2,1,0,,,,,,,,,,,,,,,,,,,,,,,,,,,,,,,,,,,,
,,66fc6d168db73b4d68af6cfb,66fc98a769a3d881bf67bb1d,2024-10-02_01h50.09.186,mdp,2024.2.1,Win32,59.88023952,66fa4ebf79326e780c390304,,,,,,,,,,,,,,,,,,,,,1184.6731,1184.6731,1184.6735,1185.5571,1,0,right,0.3802,,1185.5574,1185.5575,0,0,,1185.5577,1185.5579,0,0,,1,1185.5579,1185.5579,1185.5581,1187.0582,0,28,28,28,1,0.4,0.6,0.8,0.2,1,0,,,,,,,,,,,,,,,,,,,,,,,,,,,,,,,,,,,,
,,66fc6d168db73b4d68af6cfb,66fc98a769a3d881bf67bb1d,2024-10-02_01h50.09.186,mdp,2024.2.1,Win32,59.88023952,66fa4ebf79326e780c390304,,,,,,,,,,,,,,,,,,,,,1187.0584,1187.0584,1187.0588,1187.6088,1,0,right,0.0423,,1187.6091,1187.6093,0,1,,1187.6095,1187.6096,0,1,,1,1187.6096,1187.6096,1187.6098,1189.1099,0,29,29,29,1,0.6,0.4,0.6,0.4,1,0,,,,,,,,,,,,,,,,,,,,,,,,,,,,,,,,,,,,
,,66fc6d168db73b4d68af6cfb,66fc98a769a3d881bf67bb1d,2024-10-02_01h50.09.186,mdp,2024.2.1,Win32,59.88023952,66fa4ebf79326e780c390304,,,,,,,,,,,,,,,,,,,,,1189.1101,1189.1101,1189.1105,1189.9107,1,0,right,0.2946,,1189.911,1189.9113,0,1,,1189.9115,1189.9116,0,0,,1,1189.9116,1189.9116,1189.9118,1191.4119,0,30,30,30,1,0.6,0.4,0.6,0.4,1,0,,,,,,,,,,,,,,,,,,,,,,,,,,,,,,,,,,,,
,,66fc6d168db73b4d68af6cfb,66fc98a769a3d881bf67bb1d,2024-10-02_01h50.09.186,mdp,2024.2.1,Win32,59.88023952,66fa4ebf79326e780c390304,,,,,,,,,,,,,,,,,,,,,1191.412,1191.412,1191.4124,1192.2293,1,0,right,0.3045,,1192.2297,1192.2299,0,0,,1192.2302,1192.2303,0,0,,1,1192.2303,1192.2303,1192.2304,1193.7304,0,31,31,31,1,0.6,0.4,0.6,0.4,1,0,,,,,,,,,,,,,,,,,,,,,,,,,,,,,,,,,,,,
,,66fc6d168db73b4d68af6cfb,66fc98a769a3d881bf67bb1d,2024-10-02_01h50.09.186,mdp,2024.2.1,Win32,59.88023952,66fa4ebf79326e780c390304,,,,,,,,,,,,,,,,,,,,,1193.7306,1193.7306,1193.7309,1194.5811,1,1,right,0.3375,,1194.5815,1194.5818,0,1,,1194.5821,1194.5822,0,0,,0,1194.5822,1194.5822,1194.5824,1196.0824,0,32,32,32,1,0.6,0.4,0.6,0.4,1,0,,,,,,,,,,,,,,,,,,,,,,,,,,,,,,,,,,,,
,,66fc6d168db73b4d68af6cfb,66fc98a769a3d881bf67bb1d,2024-10-02_01h50.09.186,mdp,2024.2.1,Win32,59.88023952,66fa4ebf79326e780c390304,,,,,,,,,,,,,,,,,,,,,1196.0825,1196.0825,1196.0829,1196.6997,1,0,right,0.1001,,1196.7001,1196.7004,0,1,,1196.7005,1196.7006,0,1,,1,1196.7006,1196.7006,1196.7008,1198.2008,0,33,33,33,1,0.8,0.2,0.4,0.6,1,0,,,,,,,,,,,,,,,,,,,,,,,,,,,,,,,,,,,,
,,66fc6d168db73b4d68af6cfb,66fc98a769a3d881bf67bb1d,2024-10-02_01h50.09.186,mdp,2024.2.1,Win32,59.88023952,66fa4ebf79326e780c390304,,,,,,,,,,,,,,,,,,,,,1198.201,1198.201,1198.2012,1198.8681,1,0,right,0.1498,,1198.8684,1198.8687,0,1,,1198.8691,1198.8693,0,1,,1,1198.8694,1198.8694,1198.8695,1200.3693,0,34,34,34,1,0.8,0.2,0.4,0.6,1,0,,,,,,,,,,,,,,,,,,,,,,,,,,,,,,,,,,,,
,,66fc6d168db73b4d68af6cfb,66fc98a769a3d881bf67bb1d,2024-10-02_01h50.09.186,mdp,2024.2.1,Win32,59.88023952,66fa4ebf79326e780c390304,,,,,,,,,,,,,,,,,,,,,1200.3694,1200.3694,1200.3697,1201.0198,1,0,right,0.1329,,1201.0201,1201.0205,0,1,,1201.0207,1201.0208,0,1,,1,1201.0208,1201.0208,1201.021,1202.5211,0,35,35,35,1,0.8,0.2,0.4,0.6,1,0,,,,,,,,,,,,,,,,,,,,,,,,,,,,,,,,,,,,
,,66fc6d168db73b4d68af6cfb,66fc98a769a3d881bf67bb1d,2024-10-02_01h50.09.186,mdp,2024.2.1,Win32,59.88023952,66fa4ebf79326e780c390304,,,,,,,,,,,,,,,,,,,,,1202.5212,1202.5212,1202.5216,1203.305,1,0,right,0.2672,,1203.3054,1203.3056,0,1,,1203.3059,1203.3062,0,0,,1,1203.3062,1203.3062,1203.3063,1204.8063,0,36,36,36,1,0.8,0.2,0.4,0.6,1,0,,,,,,,,,,,,,,,,,,,,,,,,,,,,,,,,,,,,
,,66fc6d168db73b4d68af6cfb,66fc98a769a3d881bf67bb1d,2024-10-02_01h50.09.186,mdp,2024.2.1,Win32,59.88023952,66fa4ebf79326e780c390304,,,,,,,,,,,,,,,,,,,,,1204.8064,1204.8064,1204.8068,1205.3234,1,1,right,9.99999E-05,,1205.3238,1205.324,0,1,,1205.3242,1205.3244,0,1,,0,1205.3244,1205.3244,1205.3246,1206.8246,0,37,37,37,1,0.8,0.2,0.4,0.6,1,0,,,,,,,,,,,,,,,,,,,,,,,,,,,,,,,,,,,,
,,66fc6d168db73b4d68af6cfb,66fc98a769a3d881bf67bb1d,2024-10-02_01h50.09.186,mdp,2024.2.1,Win32,59.88023952,66fa4ebf79326e780c390304,,,,,,,,,,,,,,,,,,,,,1206.8247,1206.8247,1206.8251,1207.4085,1,0,right,0.0754,,1207.4089,1207.4091,0,0,,1207.4093,1207.4095,0,1,,1,1207.4095,1207.4095,1207.4096,1208.9097,0,38,38,38,1,0.8,0.2,0.4,0.6,1,0,,,,,,,,,,,,,,,,,,,,,,,,,,,,,,,,,,,,
,,66fc6d168db73b4d68af6cfb,66fc98a769a3d881bf67bb1d,2024-10-02_01h50.09.186,mdp,2024.2.1,Win32,59.88023952,66fa4ebf79326e780c390304,,,,,,,,,,,,,,,,,,,,,1208.9098,1208.9098,1208.9102,1209.6436,1,0,right,0.2223,,1209.644,1209.6442,0,0,,1209.6445,1209.6446,0,0,,1,1209.6446,1209.6446,1209.6447,1211.1448,0,39,39,39,1,0.2,0.8,0.8,0.2,1,0,,,,,,,,,,,,,,,,,,,,,,,,,,,,,,,,,,,,
,,66fc6d168db73b4d68af6cfb,66fc98a769a3d881bf67bb1d,2024-10-02_01h50.09.186,mdp,2024.2.1,Win32,59.88023952,66fa4ebf79326e780c390304,,,,,,,,,,,,,,,,,,,,,1211.145,1211.145,1211.1454,1211.8288,1,1,right,0.1714,,1211.8291,1211.8294,0,0,,1211.8296,1211.8297,0,0,,0,1211.8297,1211.8297,1211.8299,1213.33,0,40,40,40,1,0.2,0.8,0.8,0.2,1,0,,,,,,,,,,,,,,,,,,,,,,,,,,,,,,,,,,,,
,,66fc6d168db73b4d68af6cfb,66fc98a769a3d881bf67bb1d,2024-10-02_01h50.09.186,mdp,2024.2.1,Win32,59.88023952,66fa4ebf79326e780c390304,,,,,,,,,,,,,,,,,,,,,1213.3301,1213.3301,1213.3304,1213.9305,1,0,right,0.0829,,1213.9309,1213.931,0,1,,1213.9313,1213.9314,0,0,,1,1213.9314,1213.9314,1213.9316,1215.4317,0,41,41,41,1,0.2,0.8,0.8,0.2,1,0,,,,,,,,,,,,,,,,,,,,,,,,,,,,,,,,,,,,
